time,sensor_accX[g],sensor_accY[g],sensor_accZ[g],sensor_gyroX[°/s],sensor_gyroY[°/s],sensor_gyroZ[°/s],sensor_magX[µT],sensor_magY[µT],sensor_magZ[µT]
1033456,-6.093282222747803,7.2327446937561035,-2.172455310821533,-0.510673999786377,0.2439039945602417,-0.04573199898004532,288.3000183105469,-74.10000610351562,-35.10000228881836
1033476,-6.130965232849121,7.163360118865967,-2.161688804626465,-0.3582339882850647,0.25152599811553955,-0.038109999150037766,295.5,-69.30000305175781,-30.900001525878906
1033498,-6.048421859741211,7.351775169372559,-2.20296049118042,-0.22103799879550934,0.2134159952402115,0.114329993724823,300.3000183105469,-74.10000610351562,-30.900001525878906
1033519,-6.022103309631348,7.40082311630249,-2.2017643451690674,-0.28201398253440857,0.13719600439071655,0.07621999830007553,288.3000183105469,-69.30000305175781,-38.10000228881836
1033539,-6.097469329833984,7.229156017303467,-2.211334466934204,-0.28201398253440857,0.07621999830007553,0.015243999660015106,300.3000183105469,-59.70000076293945,-33.30000305175781
1033559,-6.031673908233643,7.30212926864624,-2.1796329021453857,-0.25152599811553955,0.030487999320030212,0,293.1000061035156,-69.30000305175781,-35.70000076293945
1033624,-6.054403305053711,7.333232879638672,-2.1832218170166016,-0.3201240003108978,0.007621999830007553,-0.06859800219535828,288.3000183105469,-76.5,-33.30000305175781
1033644,-6.065169811248779,7.287774085998535,-2.1856143474578857,-0.2743920087814331,0.030487999320030212,-0.09908600151538849,288.3000183105469,-64.5,-36.900001525878906
1033664,-6.014327526092529,7.3314385414123535,-2.1389591693878174,-0.25152599811553955,0.007621999830007553,-0.038109999150037766,276.3000183105469,-71.70000457763672,-35.10000228881836
1033685,-5.980831623077393,7.339812278747559,-2.169464588165283,-0.26677000522613525,0.038109999150037766,-0.060975998640060425,288.3000183105469,-66.9000015258789,-32.70000076293945
1033708,-6.007748126983643,7.34699010848999,-2.2137272357940674,-0.23628199100494385,0.04573199898004532,-0.06859800219535828,295.5,-74.10000610351562,-39.900001525878906
1033728,-6.043038368225098,7.287774085998535,-2.1862125396728516,-0.18292799592018127,0.06859800219535828,-0.09146399796009064,295.5,-62.10000228881836,-37.5
1033748,-5.921017169952393,7.436113357543945,-2.2460267543792725,-0.13719600439071655,-0.04573199898004532,-0.09908600151538849,288.3000183105469,-66.9000015258789,-38.70000076293945
1033770,-5.8797454833984375,7.485161304473877,-2.1299872398376465,-0.2743920087814331,-0.09146399796009064,-0.15243999660015106,293.1000061035156,-71.70000457763672,-37.5
1033790,-5.937765121459961,7.2267632484436035,-2.0905096530914307,-0.39634400606155396,0.04573199898004532,-0.10670799762010574,281.1000061035156,-74.10000610351562,-37.5
1033810,-5.8707733154296875,7.61794900894165,-2.232269525527954,-0.22103799879550934,0.228659987449646,-0.060975998640060425,288.3000183105469,-71.70000457763672,-34.5
1033830,-5.979635238647461,7.443291187286377,-2.164081335067749,-0.46494197845458984,0.19054999947547913,-0.3277460038661957,290.70001220703125,-81.30000305175781,-39.900001525878906
1033854,-6.009542465209961,7.3463921546936035,-2.1449406147003174,-0.6021379828453064,0.2896359860897064,-0.25152599811553955,297.9000244140625,-66.9000015258789,-38.70000076293945
1033874,-6.027486801147461,7.377495288848877,-2.1144354343414307,-0.6554920077323914,0.3201240003108978,-0.18292799592018127,297.9000244140625,-66.9000015258789,-40.5
1033898,-6.114217281341553,7.3105034828186035,-2.2364566326141357,-0.6478700041770935,0.23628199100494385,-0.2591480016708374,297.9000244140625,-71.70000457763672,-33.30000305175781
1033918,-6.155489444732666,7.203435897827148,-2.193390369415283,-0.6250039935112,0.05335399881005287,-0.22103799879550934,288.3000183105469,-71.70000457763672,-35.10000228881836
1033938,-6.117208003997803,7.2895684242248535,-2.229278802871704,-0.5564059615135193,-0.038109999150037766,-0.08384199440479279,295.5,-66.9000015258789,-34.5
1033958,-6.104049205780029,7.390654563903809,-2.2340641021728516,-0.5411620140075684,-0.12195199728012085,-0.10670799762010574,295.5,-69.30000305175781,-38.10000228881836
1033978,-6.182405948638916,7.390654563903809,-2.3716368675231934,-0.5792719721794128,-0.1600620001554489,-0.2591480016708374,283.5,-71.70000457763672,-33.30000305175781
1033998,-6.100460052490234,7.408000469207764,-2.3835997581481934,-0.6478700041770935,-0.3201240003108978,-0.2439039945602417,297.9000244140625,-74.10000610351562,-38.10000228881836
1034018,-5.970065116882324,7.324858665466309,-2.289691209793091,-0.914639949798584,-0.2743920087814331,-0.09146399796009064,278.70001220703125,-66.9000015258789,-33.30000305175781
1034038,-5.951522350311279,7.399626731872559,-2.2968690395355225,-0.967993974685669,-0.19817200303077698,-0.02286599949002266,278.70001220703125,-78.9000015258789,-36.30000305175781
1034059,-5.878549098968506,7.356560230255127,-2.2699525356292725,-1.1661659479141235,-0.06859800219535828,-0.06859800219535828,288.3000183105469,-66.9000015258789,-37.5
1034079,-5.905465602874756,7.35297155380249,-2.205353021621704,-1.3414719104766846,0.114329993724823,-0.06859800219535828,281.1000061035156,-74.10000610351562,-38.70000076293945
1034101,-5.919820785522461,7.42474889755249,-2.2526063919067383,-1.471045970916748,0.2591480016708374,-0.13719600439071655,300.3000183105469,-81.30000305175781,-33.900001525878906
1034121,-5.882137775421143,7.285381317138672,-2.0277047157287598,-1.7759259939193726,0.342989981174469,-0.23628199100494385,276.3000183105469,-62.10000228881836,-38.70000076293945
1034141,-5.961092948913574,7.161565780639648,-2.0318915843963623,-1.9054999351501465,0.7469559907913208,-0.2591480016708374,295.5,-64.5,-35.10000228881836
1034164,-6.3032307624816895,7.010833740234375,-2.074958086013794,-1.7987920045852661,1.0442140102386475,-0.18292799592018127,305.1000061035156,-71.70000457763672,-38.70000076293945
1034185,-6.258967876434326,7.42474889755249,-1.9068797826766968,-1.8978779315948486,0.7317119836807251,0.030487999320030212,297.9000244140625,-64.5,-30.900001525878906
1034206,-6.348689556121826,7.155584335327148,-1.5653401613235474,-2.1570260524749756,0.8993960022926331,-0.12195199728012085,281.1000061035156,-66.9000015258789,-40.5
1034226,-6.548469066619873,7.060479640960693,-1.5898640155792236,-1.9207439422607422,1.5320219993591309,0.06859800219535828,297.9000244140625,-66.9000015258789,-38.70000076293945
1034246,-6.739874839782715,7.065863132476807,-1.4122155904769897,-1.9512319564819336,1.8216580152511597,0.25152599811553955,290.70001220703125,-69.30000305175781,-36.30000305175781
1034266,-6.929486274719238,7.173528671264648,-1.3577845096588135,-1.8445239067077637,2.385685920715332,0.4420759975910187,290.70001220703125,-76.5,-39.900001525878906
1034286,-7.207024574279785,7.193267345428467,-1.4845908880233765,-1.6311079263687134,2.843005895614624,0.426831990480423,300.3000183105469,-64.5,-38.70000076293945
1034307,-7.375700950622559,7.2776055335998535,-1.5372273921966553,-1.4405579566955566,2.9725799560546875,0.46494197845458984,293.1000061035156,-69.30000305175781,-35.70000076293945
1034348,-7.510881423950195,7.6233320236206055,-2.166473865509033,-0.9222619533538818,2.7744078636169434,0.48018598556518555,293.1000061035156,-81.30000305175781,-35.10000228881836
1034368,-7.246501922607422,7.7932047843933105,-2.601922035217285,-0.8384199738502502,2.3551979064941406,0.7469559907913208,290.70001220703125,-83.70000457763672,-39.30000305175781
1034389,-7.312895774841309,7.004254341125488,-3.1229045391082764,-0.9375059604644775,1.3872039318084717,0.9984819889068604,283.5,-66.9000015258789,-34.5
1034409,-6.525141716003418,7.050909519195557,-2.5678277015686035,-1.1661659479141235,-0.36585599184036255,2.378063917160034,288.3000183105469,-71.70000457763672,-39.30000305175781
1034429,-6.188387393951416,7.2357354164123535,-2.19996976852417,-1.1280559301376343,0.07621999830007553,3.155508041381836,288.3000183105469,-71.70000457763672,-30.900001525878906
1034453,-6.193770408630371,8.165249824523926,-2.1772403717041016,-1.5091559886932373,0.5030519962310791,2.995445966720581,281.1000061035156,-81.30000305175781,-38.10000228881836
1034473,-6.5532546043396,8.015115737915039,-2.1706607341766357,-1.935987949371338,0.9603719711303711,2.39330792427063,285.9000244140625,-76.5,-35.70000076293945
1034493,-6.70159387588501,7.538993835449219,-1.934394359588623,-2.4085519313812256,0.8689079880714417,2.3018438816070557,281.1000061035156,-74.10000610351562,-36.30000305175781
1034513,-6.5353102684021,7.439104080200195,-1.446907877922058,-2.484771966934204,1.1204339265823364,2.9344699382781982,276.3000183105469,-78.9000015258789,-35.70000076293945
1034533,-6.507197380065918,7.49832010269165,-1.2824184894561768,-2.385685920715332,1.806414008140564,3.49849796295166,278.70001220703125,-81.30000305175781,-44.10000228881836
1034553,-6.447382926940918,7.692716598510742,-1.2375577688217163,-2.027451992034912,2.3018438816070557,4.07014799118042,264.3000183105469,-86.10000610351562,-36.30000305175781
1034573,-6.3116044998168945,7.821915626525879,-1.0479464530944824,-1.8597679138183594,2.530503988265991,4.306429862976074,266.70001220703125,-88.5,-37.5
1034593,-6.258967876434326,7.794999122619629,-1.1663787364959717,-1.471045970916748,3.0716660022735596,4.519845962524414,271.5,-86.10000610351562,-39.900001525878906
1034613,-6.059188365936279,7.983414173126221,-1.0640963315963745,-1.295740008354187,3.041177988052368,4.89332389831543,276.3000183105469,-93.30000305175781,-30.30000114440918
1034633,-5.910250663757324,7.859598636627197,-0.9624120593070984,-1.1661659479141235,3.292703866958618,5.160093784332275,257.1000061035156,-95.70000457763672,-36.30000305175781
1034653,-5.800790309906006,7.988199234008789,-1.2848111391067505,-0.7850660085678101,3.711913824081421,5.510705947875977,266.70001220703125,-105.30000305175781,-35.70000076293945
1034674,-5.570505619049072,7.977432727813721,-1.1807342767715454,-0.6478700041770935,3.757645845413208,5.640279769897461,252.3000030517578,-102.9000015258789,-30.30000114440918
1034694,-5.190086364746094,8.2800931930542,-1.2196135520935059,-0.44969800114631653,4.2149658203125,5.838451862335205,254.70001220703125,-117.30000305175781,-36.900001525878906
1034714,-5.06028938293457,8.161062240600586,-1.3805140256881714,-0.4192099869251251,4.649419784545898,5.579303741455078,240.3000030517578,-107.70000457763672,-35.70000076293945
1034736,-4.900585174560547,8.1126127243042,-1.4857871532440186,-0.18292799592018127,5.076251983642578,5.7698540687561035,240.3000030517578,-110.10000610351562,-33.900001525878906
1034756,-3.853835105895996,8.278298377990723,-1.3003628253936768,-0.25152599811553955,6.089977741241455,5.891805648803711,245.10000610351562,-117.30000305175781,-29.100000381469727
1034776,-3.788039445877075,8.12756633758545,-1.3912805318832397,-0.114329993724823,6.836933612823486,5.625035762786865,235.50001525878906,-126.9000015258789,-30.30000114440918
1034796,-3.7216455936431885,7.884122371673584,-1.8267285823822021,0.3582339882850647,8.079319953918457,5.266801834106445,223.50001525878906,-129.3000030517578,-25.500001907348633
1034816,-3.886733055114746,7.673576354980469,-2.295074462890625,0.8307979702949524,9.009203910827637,5.007653713226318,235.50001525878906,-122.10000610351562,-28.500001907348633
1034836,-3.636709213256836,8.20532512664795,-2.5056209564208984,1.0594580173492432,8.658592224121094,5.243936061859131,221.10000610351562,-129.3000030517578,-32.10000228881836
1034856,-3.1976723670959473,8.73827075958252,-2.3357481956481934,0.853663980960846,8.765299797058105,4.832347869873047,216.3000030517578,-136.5,-21.30000114440918
1034876,-3.422574043273926,8.45534896850586,-2.7640187740325928,0.8917739987373352,8.993959426879883,3.696669816970825,225.90000915527344,-134.10000610351562,-24.30000114440918
1034896,-3.46683669090271,8.376394271850586,-3.1372599601745605,0.7469559907913208,8.521395683288574,3.4222779273986816,218.70001220703125,-126.9000015258789,-21.900001525878906
1034916,-3.132474660873413,8.843544006347656,-3.1851112842559814,0.36585599184036255,7.553401947021484,3.7271578311920166,204.3000030517578,-117.30000305175781,-27.900001525878906
1034940,-2.354888916015625,8.951807975769043,-2.9966962337493896,-0.8993960022926331,6.600651741027832,2.743919849395752,201.90000915527344,-134.10000610351562,-20.700000762939453
1034960,-2.7562427520751953,7.660417079925537,-3.4052278995513916,-0.7621999979019165,6.2805280685424805,2.0960500240325928,199.50001525878906,-143.70001220703125,-18.30000114440918
1034982,-2.3267762660980225,7.844645023345947,-3.451284885406494,-0.39634400606155396,4.9466776847839355,3.559473991394043,199.50001525878906,-143.70001220703125,-19.5
1035003,-1.5988361835479736,8.481069564819336,-3.320291519165039,-0.3582339882850647,4.077769756317139,4.481735706329346,180.3000030517578,-153.3000030517578,-22.5
1035023,-0.9893285036087036,8.51217269897461,-3.2718420028686523,-0.2439039945602417,3.361301898956299,4.207344055175781,182.70001220703125,-136.5,-24.900001525878906
1035043,-0.5879745483398438,8.265737533569336,-3.171952247619629,-0.030487999320030212,2.8582499027252197,4.07014799118042,182.70001220703125,-148.5,-17.700000762939453
1035063,-0.16867631673812866,8.208913803100586,-2.9847333431243896,-0.08384199440479279,2.233245849609375,4.39027214050293,180.3000030517578,-150.90000915527344,-22.5
1035083,-0.04725329577922821,8.74604606628418,-3.0475385189056396,0.5259180068969727,2.5762360095977783,4.588443756103516,170.70001220703125,-148.5,-18.30000114440918
1035103,0.27275320887565613,9.29813289642334,-3.1671669483184814,0.2591480016708374,2.1570260524749756,4.268320083618164,163.5,-150.90000915527344,-16.5
1035123,0.26976248621940613,9.078614234924316,-2.7323172092437744,-0.3048799932003021,1.0594580173492432,3.506119966506958,163.5,-153.3000030517578,-19.5
1035147,0.3427359163761139,9.75212287902832,-2.878862142562866,0.17530599236488342,1.5625100135803223,3.414655923843384,163.5,-146.10000610351562,-21.30000114440918
1035168,0.48629024624824524,10.746834754943848,-2.950639247894287,-0.07621999830007553,0.6478700041770935,3.155508041381836,153.90000915527344,-150.90000915527344,-17.700000762939453
1035188,0.14654502272605896,11.033345222473145,-2.4613583087921143,-0.4039659798145294,-0.9984819889068604,2.126538038253784,165.90000915527344,-141.3000030517578,-20.100000381469727
1035208,0.04844957962632179,10.898762702941895,-1.955329418182373,-1.2881180047988892,-1.6615959405899048,1.417691946029663,149.10000610351562,-153.3000030517578,-18.30000114440918
1035229,-0.32180091738700867,10.029661178588867,-1.4869834184646606,-1.875011920928955,-1.5929979085922241,0.7621999979019165,153.90000915527344,-146.10000610351562,-17.700000762939453
1035249,-0.4432239532470703,10.3915376663208,-1.6724077463150024,-1.6082419157028198,-0.9375059604644775,1.2500079870224,168.3000030517578,-155.70001220703125,-26.100000381469727
1035269,-0.9384863376617432,10.195944786071777,-1.8087843656539917,-1.9131219387054443,-1.1661659479141235,0.9756159782409668,151.5,-153.3000030517578,-22.5
1035292,-1.2543058395385742,9.1802978515625,-1.5252646207809448,-2.4085519313812256,-1.7911700010299683,0.8612859845161438,163.5,-146.10000610351562,-21.30000114440918
1035312,-1.3595789670944214,8.279495239257812,-1.2232023477554321,-2.530503988265991,-1.4024479389190674,1.7606819868087769,146.70001220703125,-148.5,-18.30000114440918
1035355,-0.8984107375144958,8.921900749206543,-1.8500561714172363,-1.5548880100250244,-0.49542999267578125,3.7347798347473145,158.70001220703125,-158.10000610351562,-19.5
1035375,-0.6687238216400146,9.098352432250977,-1.6867631673812866,-1.3948259353637695,-0.6707359552383423,4.054903984069824,153.90000915527344,-148.5,-20.100000381469727
1035395,-0.40554094314575195,9.102540016174316,-1.6598467826843262,-1.3643379211425781,-0.5259180068969727,4.146368026733398,146.70001220703125,-165.3000030517578,-20.100000381469727
1035415,-0.258995920419693,8.905750274658203,-1.5725178718566895,-1.3567159175872803,-0.36585599184036255,4.199721813201904,137.10000610351562,-158.10000610351562,-25.500001907348633
1035495,0.7040143013000488,9.125866889953613,-1.7238479852676392,-0.5868939757347107,-0.4039659798145294,3.3917899131774902,110.70000457763672,-162.90000915527344,-22.5
1035541,0.8768776059150696,9.535594940185547,-1.7705031633377075,0.030487999320030212,0.6097599864006042,3.6738038063049316,117.9000015258789,-172.5,-25.500001907348633
1035561,0.6753033995628357,9.08280086517334,-1.536629319190979,-0.3277460038661957,0.5868939757347107,3.1326420307159424,113.10000610351562,-172.5,-16.5
1035601,0.6525740027427673,8.677260398864746,-1.5043295621871948,-0.1295740008354187,1.9512319564819336,2.957335948944092,101.10000610351562,-182.10000610351562,-20.100000381469727
1035624,0.8804664611816406,8.704176902770996,-1.533638596534729,-0.13719600439071655,1.7225719690322876,3.1707520484924316,108.30000305175781,-179.70001220703125,-21.900001525878906
1035644,1.0108616352081299,8.71135425567627,-1.0760592222213745,-0.25152599811553955,1.478667974472046,3.2774598598480225,96.30000305175781,-174.90000915527344,-26.100000381469727
1035704,2.1718571186065674,10.039830207824707,-1.0096653699874878,-0.33536797761917114,2.8277618885040283,2.4619059562683105,91.5,-162.90000915527344,-24.900001525878906
1035724,2.48289155960083,9.665990829467773,-0.7961282730102539,-0.6631140112876892,2.2484898567199707,1.8216580152511597,74.70000457763672,-165.3000030517578,-26.700000762939453
1035744,2.515191078186035,9.31906795501709,-0.6107039451599121,-0.3201240003108978,3.102154016494751,1.7378159761428833,89.10000610351562,-170.10000610351562,-15.90000057220459
1035785,2.5767998695373535,8.55284595489502,-1.2979702949523926,-0.07621999830007553,2.698187828063965,1.7835479974746704,84.30000305175781,-177.3000030517578,-25.500001907348633
1035825,2.4781062602996826,8.630006790161133,-1.925422191619873,0.6021379828453064,3.864353895187378,3.4908759593963623,72.30000305175781,-165.3000030517578,-20.100000381469727
1035845,2.539715051651001,9.136035919189453,-2.552276134490967,0.2972579896450043,4.153989791870117,3.048799991607666,62.70000076293945,-182.10000610351562,-14.100000381469727
1035869,2.6994192600250244,9.230542182922363,-2.9996869564056396,0.5335400104522705,3.612828016281128,2.8201398849487305,55.500003814697266,-158.10000610351562,-22.5
1035889,2.787346363067627,9.457837104797363,-3.496145725250244,0.7317119836807251,3.292703866958618,2.6295900344848633,72.30000305175781,-179.70001220703125,-25.500001907348633
1035910,2.744878053665161,8.890198707580566,-3.943556547164917,1.2500079870224,2.987823963165283,1.882633924484253,62.70000076293945,-172.5,-22.5
1035930,2.6031181812286377,8.271718978881836,-4.405323028564453,2.5076379776000977,2.1570260524749756,2.1494040489196777,57.900001525878906,-165.3000030517578,-18.30000114440918
1035952,2.9129562377929688,9.14560604095459,-4.627233982086182,2.957335948944092,0.48018598556518555,3.96343994140625,55.500003814697266,-174.90000915527344,-20.100000381469727
1035972,3.6887476444244385,10.527914047241211,-4.423267364501953,2.2027578353881836,0.08384199440479279,4.5427117347717285,48.30000305175781,-177.3000030517578,-14.700000762939453
1035992,3.469229221343994,9.90046215057373,-4.148121356964111,1.7987920045852661,0.5640279650688171,1.0747020244598389,60.30000305175781,-179.70001220703125,-20.100000381469727
1036012,3.1432414054870605,8.915321350097656,-4.273133277893066,1.4939119815826416,0.9070180058479309,0.5411620140075684,53.10000228881836,-162.90000915527344,-18.900001525878906
1036032,3.0421552658081055,8.62462329864502,-4.17384147644043,1.013725996017456,0.685979962348938,0.6783579587936401,45.900001525878906,-170.10000610351562,-22.5
1036052,2.733513355255127,8.081509590148926,-3.7031030654907227,0.19054999947547913,0.571649968624115,0.9375059604644775,50.70000076293945,-170.10000610351562,-12.90000057220459
1036072,2.6952321529388428,7.832682132720947,-3.546389579772949,-0.4344539940357208,1.2042759656906128,1.2347639799118042,33.900001525878906,-182.10000610351562,-17.700000762939453
1036092,2.671306610107422,7.477385520935059,-3.299356698989868,-0.8612859845161438,1.0594580173492432,1.371959924697876,33.900001525878906,-174.90000915527344,-11.700000762939453
1036112,2.8244311809539795,7.458842754364014,-3.1851112842559814,-1.0975680351257324,1.6387299299240112,1.9207439422607422,50.70000076293945,-172.5,-9.90000057220459
1036132,2.807682991027832,7.360747337341309,-3.320889711380005,-1.1204339265823364,2.14178204536438,2.0960500240325928,43.5,-174.90000915527344,-15.300000190734863
1036154,2.8752732276916504,7.16874361038208,-3.5194733142852783,-0.8765299916267395,2.134160041809082,2.28659987449646,33.900001525878906,-170.10000610351562,-19.5
1036174,3.1617836952209473,7.575480937957764,-3.8430685997009277,-0.5945159792900085,1.8902559280395508,2.9802019596099854,33.900001525878906,-174.90000915527344,-20.700000762939453
1036194,3.4022371768951416,7.805765628814697,-3.951930522918701,-0.5335400104522705,1.3186060190200806,3.2241058349609375,26.700000762939453,-174.90000915527344,-24.900001525878906
1036214,3.6085965633392334,7.928385257720947,-3.9160420894622803,-0.6554920077323914,1.1509219408035278,3.3765459060668945,33.900001525878906,-167.70001220703125,-15.90000057220459
1036234,3.8227317333221436,8.268728256225586,-4.029090881347656,-0.6250039935112,1.4939119815826416,3.3917899131774902,21.900001525878906,-182.10000610351562,-15.300000190734863
1036256,3.767104387283325,8.3997220993042,-4.137354850769043,-0.7012239694595337,1.371959924697876,2.942091941833496,7.500000476837158,-182.10000610351562,-21.30000114440918
1036316,3.7629175186157227,8.33691692352295,-4.024305820465088,-1.1509219408035278,0.5259180068969727,1.6844619512557983,12.300000190734863,-172.5,-20.100000381469727
1036336,3.69293475151062,8.1544828414917,-3.8951070308685303,-1.5167779922485352,-0.09146399796009064,1.2804960012435913,12.300000190734863,-182.10000610351562,-19.5
1036356,3.5840725898742676,7.562919616699219,-3.657644271850586,-1.8597679138183594,-0.48018598556518555,1.14329993724823,7.500000476837158,-174.90000915527344,-18.30000114440918
1036376,3.6319241523742676,7.678959369659424,-3.5751004219055176,-1.707327961921692,-0.7926880121231079,1.4481799602508545,17.100000381469727,-174.90000915527344,-20.100000381469727
1036396,3.755739688873291,7.804569721221924,-3.2766273021698,-2.080806016921997,-1.242385983467102,1.425313949584961,0.30000001192092896,-177.3000030517578,-20.700000762939453
1036416,3.684560775756836,7.613761901855469,-2.9769575595855713,-2.2180018424987793,-1.0823240280151367,1.0747020244598389,5.100000381469727,-182.10000610351562,-17.700000762939453
1036436,3.762319326400757,7.565312385559082,-3.0026776790618896,-2.042695999145508,-1.0975680351257324,0.7850660085678101,0.30000001192092896,-174.90000915527344,-23.700000762939453
1036456,3.946547269821167,7.666398525238037,-2.7711963653564453,-2.126538038253784,-1.6692179441452026,0.7850660085678101,2.700000047683716,-165.3000030517578,-21.900001525878906
1036477,4.282105445861816,7.846439361572266,-2.4912655353546143,-2.3551979064941406,-1.9969639778137207,0.7545779943466187,0.30000001192092896,-155.70001220703125,-20.100000381469727
1036498,4.300049781799316,7.681352138519287,-2.2962708473205566,-2.126538038253784,-1.3948259353637695,0.6097599864006042,2.700000047683716,-160.5,-18.30000114440918
1036519,4.231861591339111,7.488152027130127,-2.2424380779266357,-2.179892063140869,-1.3414719104766846,0.6554920077323914,2.700000047683716,-184.5,-24.900001525878906
1036539,4.316199779510498,7.575480937957764,-2.19398832321167,-1.8673899173736572,-1.3795819282531738,1.0365920066833496,-6.900000095367432,-179.70001220703125,-20.700000762939453
1036559,4.4878668785095215,8.039639472961426,-2.134174108505249,-1.707327961921692,-1.8445239067077637,1.417691946029663,-6.900000095367432,-167.70001220703125,-20.700000762939453
1036579,4.583569526672363,8.360244750976562,-1.9499460458755493,-1.6311079263687134,-2.1646480560302734,1.3262280225753784,0.30000001192092896,-182.10000610351562,-22.5
1036599,4.59613037109375,8.405104637145996,-1.7609329223632812,-1.5472660064697266,-2.2180018424987793,0.9984819889068604,-6.900000095367432,-167.70001220703125,-22.5
1036619,4.633813381195068,8.507986068725586,-1.5898640155792236,-1.806414008140564,-2.4542839527130127,0.853663980960846,-14.100000381469727,-170.10000610351562,-27.30000114440918
1036639,4.608691692352295,8.948817253112793,-1.3529994487762451,-1.707327961921692,-2.225623846054077,0.7317119836807251,-6.900000095367432,-184.5,-32.70000076293945
1036659,4.530932903289795,9.514659881591797,-1.1897063255310059,-1.7606819868087769,-2.3170878887176514,0.7469559907913208,-9.300000190734863,-170.10000610351562,-20.700000762939453
1036679,4.45078182220459,9.822105407714844,-0.9079810380935669,-2.2103798389434814,-2.385685920715332,0.26677000522613525,-2.1000001430511475,-172.5,-21.30000114440918
1036699,4.435230255126953,9.798778533935547,-0.2930900454521179,-1.9893419742584229,-2.4009299278259277,-0.2743920087814331,-6.900000095367432,-174.90000915527344,-23.100000381469727
1036721,4.3413214683532715,9.685729026794434,0.0017944289138540626,-2.0045859813690186,-1.3643379211425781,-0.38109999895095825,0.30000001192092896,-167.70001220703125,-27.30000114440918
1036741,4.277918338775635,9.611559867858887,-0.06938458234071732,-1.5548880100250244,-0.2134159952402115,-0.3277460038661957,-4.5,-186.90000915527344,-27.30000114440918
1036761,4.231861591339111,9.97223949432373,-0.256005197763443,-1.1737879514694214,0.12195199728012085,-0.015243999660015106,-11.700000762939453,-184.5,-27.900001525878906
1036783,4.050025939941406,9.557127952575684,-0.37144678831100464,-1.021347999572754,0.4192099869251251,-0.28201398253440857,-9.300000190734863,-182.10000610351562,-21.30000114440918
1036803,3.7958152294158936,9.310693740844727,-0.4886828064918518,-0.39634400606155396,0.13719600439071655,-0.08384199440479279,-9.300000190734863,-189.3000030517578,-21.900001525878906
1036823,3.7808616161346436,9.001453399658203,-0.37324121594429016,-0.4344539940357208,-0.05335399881005287,-0.114329993724823,-6.900000095367432,-177.3000030517578,-23.700000762939453
1036843,3.6504664421081543,8.826197624206543,-0.42767223715782166,-0.36585599184036255,0.20579399168491364,0,-2.1000001430511475,-189.3000030517578,-24.900001525878906
1036865,3.6893458366394043,8.822608947753906,-0.7135845422744751,-0.4420759975910187,0.13719600439071655,0.05335399881005287,0.30000001192092896,-167.70001220703125,-32.70000076293945
1036885,3.573306083679199,8.341103553771973,-0.7339214086532593,-0.7621999979019165,-0.15243999660015106,-0.16768398880958557,0.30000001192092896,-177.3000030517578,-28.500001907348633
1036906,3.553567409515381,8.101248741149902,-0.7225567102432251,-0.5868939757347107,-0.39634400606155396,0.04573199898004532,-4.5,-189.3000030517578,-27.30000114440918
1036926,3.782656192779541,8.368020057678223,-0.6830793023109436,-0.5564059615135193,-0.2743920087814331,0.44969800114631653,-2.1000001430511475,-179.70001220703125,-24.30000114440918
1036947,3.806581974029541,8.198745727539062,-0.8756812810897827,-0.7012239694595337,-0.07621999830007553,0.342989981174469,-14.100000381469727,-174.90000915527344,-29.700000762939453
1036968,3.977052688598633,8.30282211303711,-0.8984107375144958,-0.3887220025062561,-0.2743920087814331,0.457319974899292,-9.300000190734863,-177.3000030517578,-24.30000114440918
1036988,4.136756896972656,8.423048973083496,-0.817661464214325,-0.19817200303077698,-0.3201240003108978,0.5259180068969727,-11.700000762939453,-186.90000915527344,-29.100000381469727
1037008,4.366443634033203,8.63778305053711,-0.7309306859970093,-0.02286599949002266,-0.09146399796009064,0.6097599864006042,-4.5,-179.70001220703125,-30.30000114440918
1037028,4.521362781524658,8.75322437286377,-0.7536601424217224,0.030487999320030212,0.33536797761917114,0.685979962348938,2.700000047683716,-184.5,-24.30000114440918
1037048,4.376612186431885,8.640174865722656,-0.6872662901878357,0.015243999660015106,0.7698220014572144,0.6707359552383423,0.30000001192092896,-172.5,-29.100000381469727
1037110,4.20673942565918,8.350075721740723,-0.6268538236618042,-0.114329993724823,1.3490939140319824,0.060975998640060425,-23.700000762939453,-184.5,-26.100000381469727
1037130,4.159486293792725,8.131753921508789,-0.4049427807331085,-0.23628199100494385,1.2728739976882935,-0.06859800219535828,-4.5,-182.10000610351562,-22.5
1037150,4.4938483238220215,8.60189437866211,-0.359483927488327,-0.08384199440479279,1.471045970916748,-0.04573199898004532,-18.900001525878906,-165.3000030517578,-28.500001907348633
1037171,4.678674221038818,8.75800895690918,-0.2147333323955536,-0.36585599184036255,1.653973937034607,-0.35061198472976685,-11.700000762939453,-182.10000610351562,-20.700000762939453
1037191,5.204442024230957,9.177906036376953,-0.17106889188289642,-0.8155539631843567,1.6844619512557983,-0.20579399168491364,-6.900000095367432,-172.5,-26.100000381469727
1037211,4.9735589027404785,8.200540542602539,-0.15491902828216553,-1.0365920066833496,2.5609920024871826,-0.853663980960846,-11.700000762939453,-182.10000610351562,-21.30000114440918
1037235,4.878454208374023,8.19336223602295,-0.5138047933578491,0.09908600151538849,2.446661949157715,-0.23628199100494385,-9.300000190734863,-179.70001220703125,-26.700000762939453
1037276,4.561438083648682,7.981021881103516,-1.0539278984069824,1.2042759656906128,2.7286758422851562,-0.5792719721794128,-6.900000095367432,-172.5,-24.30000114440918
1037296,4.365845680236816,7.832682132720947,-1.5689289569854736,1.3795819282531738,3.048799991607666,-0.7850660085678101,-18.900001525878906,-167.70001220703125,-23.700000762939453
1037358,4.344910621643066,7.7393717765808105,-2.6485769748687744,1.3186060190200806,2.530503988265991,0.4725639820098877,-16.5,-177.3000030517578,-20.700000762939453
1037428,4.575195789337158,8.924891471862793,-3.853835105895996,1.1737879514694214,1.6615959405899048,-0.26677000522613525,-9.300000190734863,-170.10000610351562,-22.5
1037468,4.384387969970703,9.319665908813477,-5.002867698669434,1.7835479974746704,3.048799991607666,-1.3338500261306763,0.30000001192092896,-172.5,-21.900001525878906
1037488,3.9961931705474854,8.747840881347656,-5.407810688018799,1.9436099529266357,0.9908599853515625,-2.042695999145508,-2.1000001430511475,-172.5,-26.100000381469727
1037528,4.460351943969727,8.883021354675293,-4.118812561035156,0.1448179930448532,-1.3414719104766846,-1.196653962135315,-4.5,-170.10000610351562,-23.700000762939453
1037548,4.210328578948975,8.217885971069336,-3.9184346199035645,-0.853663980960846,-0.6097599864006042,-1.1128119230270386,0.30000001192092896,-174.90000915527344,-18.900001525878906
1037572,3.9160420894622803,7.379289627075195,-3.442312717437744,-1.7835479974746704,-0.9298839569091797,-0.9832379817962646,5.100000381469727,-177.3000030517578,-21.30000114440918
1037592,4.032680034637451,7.137639999389648,-3.0056684017181396,-2.1036720275878906,-0.8612859845161438,-0.02286599949002266,-9.300000190734863,-172.5,-26.100000381469727
1037634,4.7666015625,7.49233865737915,-2.450591802597046,-2.385685920715332,-0.5259180068969727,0.5411620140075684,-6.900000095367432,-186.90000915527344,-23.100000381469727
1037654,4.692431449890137,6.647162914276123,-2.3261780738830566,-2.339953899383545,-0.8841519951820374,0.3125019967556,2.700000047683716,-172.5,-19.5
1037675,5.119505882263184,7.160967826843262,-1.8386914730072021,-1.5167779922485352,-1.3414719104766846,1.2652519941329956,7.500000476837158,-184.5,-19.5
1037695,5.4712138175964355,7.897879600524902,-1.7746901512145996,-1.7987920045852661,-0.33536797761917114,1.295740008354187,-2.1000001430511475,-186.90000915527344,-31.500001907348633
1037715,5.230162143707275,7.7519330978393555,-1.8757764101028442,-1.9969639778137207,0.38109999895095825,0.571649968624115,-9.300000190734863,-182.10000610351562,-26.100000381469727
1037777,5.3192853927612305,7.600602626800537,-1.619771122932434,-1.6387299299240112,-0.04573199898004532,0.739333987236023,-6.900000095367432,-174.90000915527344,-28.500001907348633
1037821,5.263658046722412,8.17541790008545,-1.537825584411621,-1.4481799602508545,-0.3734779953956604,0.8689079880714417,-26.100000381469727,-167.70001220703125,-18.30000114440918
1037842,4.9735589027404785,7.937955379486084,-1.5743123292922974,-1.2195199728012085,-0.4725639820098877,0.1600620001554489,-2.1000001430511475,-184.5,-27.900001525878906
1037884,5.911447048187256,9.495519638061523,-1.8799633979797363,-0.342989981174469,-1.5091559886932373,1.0518360137939453,-14.100000381469727,-186.90000915527344,-23.100000381469727
1037904,6.303828716278076,9.580455780029297,-1.1316864490509033,-1.6615959405899048,-2.9192259311676025,0.3887220025062561,-11.700000762939453,-177.3000030517578,-29.700000762939453
1037925,5.220592021942139,7.2596611976623535,-0.3445303440093994,-2.294221878051758,-2.0655620098114014,-0.8384199738502502,-23.700000762939453,-172.5,-23.100000381469727
1037945,5.236143589019775,8.1245756149292,-0.7608378529548645,-1.2804960012435913,-0.685979962348938,0.8612859845161438,-16.5,-170.10000610351562,-25.500001907348633
1037965,4.960997581481934,8.483461380004883,-0.7889505624771118,-1.8369019031524658,-0.685979962348938,0.13719600439071655,-11.700000762939453,-170.10000610351562,-29.100000381469727
1038025,4.252796649932861,8.129361152648926,-0.2649773359298706,-1.1661659479141235,-0.8384199738502502,-0.967993974685669,-21.30000114440918,-184.5,-35.70000076293945
1038123,3.392666816711426,10.3197603225708,-0.5520859360694885,-0.3887220025062561,-0.4192099869251251,-0.3277460038661957,-18.900001525878906,-179.70001220703125,-32.10000228881836
1038184,2.744878053665161,8.864479064941406,-0.253014475107193,-0.6250039935112,-0.7317119836807251,-2.0122079849243164,-6.900000095367432,-196.50001525878906,-27.900001525878906
1038226,3.103165626525879,8.676063537597656,0.03947743773460388,-0.6554920077323914,-0.8841519951820374,-1.5015339851379395,-9.300000190734863,-179.70001220703125,-29.100000381469727
1038246,3.096586227416992,8.490639686584473,0.18781688809394836,-0.8307979702949524,-0.39634400606155396,-1.371959924697876,5.100000381469727,-172.5,-31.500001907348633
1038266,3.2467200756073,8.65273666381836,0.09510473161935806,-0.685979962348938,0.15243999660015106,-1.196653962135315,-9.300000190734863,-174.90000915527344,-24.900001525878906
1038322,3.3998446464538574,8.13952922821045,0.01973871886730194,-0.4878079891204834,0.9527499675750732,-1.3262280225753784,0.30000001192092896,-170.10000610351562,-31.500001907348633
1038421,3.9387714862823486,8.99128532409668,-1.21303391456604,0.9984819889068604,0.20579399168491364,0.2591480016708374,5.100000381469727,-174.90000915527344,-29.100000381469727
1038441,4.255787372589111,9.469799995422363,-1.5976399183273315,1.0975680351257324,0.3887220025062561,0.7088459730148315,5.100000381469727,-179.70001220703125,-28.500001907348633
1038484,4.163673400878906,8.36562728881836,-1.520479440689087,0.2134159952402115,-0.2591480016708374,0.9375059604644775,14.700000762939453,-174.90000915527344,-24.900001525878906
1038524,4.24262809753418,8.336318969726562,-1.8470654487609863,0.114329993724823,0.12195199728012085,1.935987949371338,-2.1000001430511475,-184.5,-23.700000762939453
1038544,4.195374965667725,8.58095932006836,-1.728633165359497,0.09146399796009064,-0.13719600439071655,1.8673899173736572,-2.1000001430511475,-170.10000610351562,-31.500001907348633
1038564,4.33234977722168,8.56600570678711,-1.7501662969589233,-0.2972579896450043,0.007621999830007553,1.3795819282531738,-14.100000381469727,-177.3000030517578,-26.100000381469727
1038611,4.325769901275635,8.46432113647461,-1.6724077463150024,-0.38109999895095825,0.1600620001554489,0.41158798336982727,-14.100000381469727,-179.70001220703125,-22.5
1038671,4.42685604095459,8.53609848022461,-1.5856770277023315,-0.3125019967556,0.16768398880958557,0.17530599236488342,0.30000001192092896,-184.5,-27.900001525878906
1038732,4.4549689292907715,8.67546558380127,-1.4678428173065186,-0.457319974899292,0.1600620001554489,-0.06859800219535828,2.700000047683716,-184.5,-29.100000381469727
1038752,4.429248809814453,8.462526321411133,-1.3601771593093872,-0.510673999786377,0.38109999895095825,-0.20579399168491364,-9.300000190734863,-189.3000030517578,-27.900001525878906
1038774,4.322181224822998,8.261550903320312,-1.2878018617630005,-0.510673999786377,0.48018598556518555,-0.18292799592018127,-11.700000762939453,-179.70001220703125,-21.900001525878906
1038795,4.403528690338135,8.43262004852295,-1.3571864366531372,-0.3125019967556,0.7012239694595337,-0.06859800219535828,0.30000001192092896,-184.5,-25.500001907348633
1038815,4.309619903564453,8.559426307678223,-1.3260829448699951,-0.2591480016708374,0.6554920077323914,-0.060975998640060425,0.30000001192092896,-165.3000030517578,-27.900001525878906
1038835,4.25758171081543,8.43262004852295,-1.2931851148605347,-0.2896359860897064,0.6478700041770935,-0.030487999320030212,-18.900001525878906,-179.70001220703125,-27.900001525878906
1038921,4.276124000549316,8.344094276428223,-1.235763430595398,-0.08384199440479279,0.6250039935112,0.09908600151538849,-2.1000001430511475,-172.5,-29.700000762939453
1038961,4.351490020751953,8.466115951538086,-1.4696372747421265,-0.2439039945602417,0.19054999947547913,0.33536797761917114,-6.900000095367432,-170.10000610351562,-26.100000381469727
1039023,4.255787372589111,8.388955116271973,-1.2907925844192505,-0.18292799592018127,0.18292799592018127,-0.030487999320030212,-9.300000190734863,-184.5,-21.900001525878906
1039047,4.450183868408203,8.312393188476562,-1.110153317451477,0.07621999830007553,0.3201240003108978,0.060975998640060425,-21.30000114440918,-189.3000030517578,-32.10000228881836
1039067,4.4340338706970215,8.55105209350586,-1.2423429489135742,0.2591480016708374,0.5411620140075684,0.2591480016708374,-21.30000114440918,-167.70001220703125,-33.30000305175781
1039087,4.388575077056885,8.632997512817383,-1.1974822282791138,0.09146399796009064,0.39634400606155396,0.09146399796009064,-11.700000762939453,-174.90000915527344,-24.30000114440918
1039149,4.349097728729248,8.42663860321045,-1.22499680519104,-0.1600620001554489,0.05335399881005287,0.09146399796009064,-16.5,-174.90000915527344,-30.900001525878906
1039383,4.301844120025635,8.445180892944336,-1.3559901714324951,0.13719600439071655,0.48018598556518555,0.12195199728012085,-9.300000190734863,-172.5,-32.10000228881836
1039403,4.306629180908203,8.3638334274292,-1.4977500438690186,0.13719600439071655,0.3048799932003021,0.26677000522613525,-18.900001525878906,-177.3000030517578,-31.500001907348633
1039443,4.334742069244385,8.487051010131836,-1.439730167388916,0.2134159952402115,0.4344539940357208,0.1295740008354187,-23.700000762939453,-186.90000915527344,-30.30000114440918
1039487,4.325171947479248,8.430227279663086,-1.4516929388046265,0.22103799879550934,0.4420759975910187,-0.12195199728012085,-9.300000190734863,-172.5,-30.900001525878906
1039622,4.426258087158203,8.42663860321045,-1.4564781188964844,-0.04573199898004532,0.3887220025062561,0.05335399881005287,-11.700000762939453,-182.10000610351562,-29.700000762939453
1039642,4.390369415283203,8.373403549194336,-1.4839926958084106,-0.07621999830007553,0.342989981174469,0.04573199898004532,-21.30000114440918,-170.10000610351562,-26.700000762939453
1039684,4.430445194244385,8.421255111694336,-1.4074304103851318,-0.19817200303077698,0.1295740008354187,0.02286599949002266,-16.5,-174.90000915527344,-23.100000381469727
1039704,4.440613269805908,8.45833969116211,-1.412813663482666,-0.2896359860897064,0.05335399881005287,-0.04573199898004532,-14.100000381469727,-172.5,-26.100000381469727
1039724,4.480090618133545,8.382375717163086,-1.432552456855774,-0.33536797761917114,0.015243999660015106,-0.15243999660015106,-11.700000762939453,-184.5,-26.700000762939453
1039745,4.452576160430908,8.354263305664062,-1.431954264640808,-0.2743920087814331,-0.1295740008354187,-0.1295740008354187,-11.700000762939453,-184.5,-30.30000114440918
1039805,4.520764350891113,8.656923294067383,-1.1920989751815796,-0.6707359552383423,-0.07621999830007553,-0.3125019967556,-2.1000001430511475,-177.3000030517578,-20.100000381469727
1040099,4.53153133392334,8.454751014709473,-1.4522911310195923,-0.4039659798145294,0.342989981174469,-0.4420759975910187,-9.300000190734863,-174.90000915527344,-32.10000228881836
1040119,4.406519412994385,8.343496322631836,-1.5121054649353027,-0.4420759975910187,0.38109999895095825,-0.6402480006217957,-40.5,-177.3000030517578,-23.100000381469727
1040159,4.395752906799316,8.4356107711792,-1.5043295621871948,-0.36585599184036255,0.228659987449646,-0.6631140112876892,-18.900001525878906,-174.90000915527344,-30.30000114440918
1040179,4.44480037689209,8.502602577209473,-1.4702354669570923,-0.4192099869251251,0.20579399168491364,-0.7012239694595337,-18.900001525878906,-174.90000915527344,-28.500001907348633
1040199,4.38498592376709,8.519350051879883,-1.4863852262496948,-0.5030519962310791,0.28201398253440857,-0.8231759667396545,-33.30000305175781,-177.3000030517578,-24.900001525878906
1040259,4.297657012939453,8.308205604553223,-1.3212977647781372,-0.4725639820098877,0.2591480016708374,-1.013725996017456,-28.500001907348633,-174.90000915527344,-23.100000381469727
1040303,4.181019306182861,8.290261268615723,-1.3661586046218872,-0.07621999830007553,0.09908600151538849,-0.9298839569091797,-16.5,-189.3000030517578,-21.30000114440918
1040402,4.233057975769043,8.396132469177246,-1.4612632989883423,-0.2972579896450043,-0.060975998640060425,-0.6097599864006042,-14.100000381469727,-172.5,-28.500001907348633
1040463,4.292273998260498,8.475088119506836,-1.3601771593093872,-0.114329993724823,0,-0.49542999267578125,0.30000001192092896,-174.90000915527344,-27.30000114440918
1040522,4.286292552947998,8.484658241271973,-1.3440272808074951,0.1448179930448532,0.18292799592018127,-0.8231759667396545,-2.1000001430511475,-177.3000030517578,-24.900001525878906
1040542,4.26057243347168,8.46133041381836,-1.3769251108169556,0.1448179930448532,0.2972579896450043,-0.8917739987373352,-6.900000095367432,-172.5,-28.500001907348633
1040582,4.216310024261475,8.376992225646973,-1.4211877584457397,0.23628199100494385,0.25152599811553955,-0.853663980960846,-4.5,-177.3000030517578,-31.500001907348633
1040622,4.29347038269043,8.439797401428223,-1.4152063131332397,0.16768398880958557,0.02286599949002266,-0.7240899801254272,-9.300000190734863,-174.90000915527344,-22.5
1040825,4.404725074768066,8.457143783569336,-1.3183071613311768,0.26677000522613525,-0.5030519962310791,-1.7987920045852661,0.30000001192092896,-184.5,-23.700000762939453
1040845,4.106849670410156,8.12756633758545,-1.415804386138916,0.2743920087814331,-0.46494197845458984,-2.1722700595855713,-2.1000001430511475,-172.5,-27.900001525878906
1040885,3.4566681385040283,7.096368312835693,-1.2638760805130005,0.2896359860897064,-0.914639949798584,-2.682943820953369,24.30000114440918,-170.10000610351562,-20.700000762939453
1040925,2.316009521484375,5.059691429138184,-0.6639387011528015,-0.342989981174469,-1.189031958580017,-2.8734939098358154,17.100000381469727,-182.10000610351562,-21.30000114440918
1041002,1.8871411085128784,7.978031158447266,-2.2759339809417725,-0.2134159952402115,0.914639949798584,1.8140360116958618,5.100000381469727,-174.90000915527344,-22.5
1041022,2.0875189304351807,8.927882194519043,-2.8926193714141846,-0.1295740008354187,0.6402480006217957,2.179892063140869,12.300000190734863,-184.5,-23.700000762939453
1041062,3.8556296825408936,13.930749893188477,-3.341824769973755,-0.12195199728012085,1.9512319564819336,6.158576011657715,-2.1000001430511475,-174.90000915527344,-22.5
1041102,10.205514907836914,19.599349975585938,-5.616562366485596,2.385685920715332,7.233277797698975,7.660109996795654,-11.700000762939453,-170.10000610351562,-22.5
1041122,11.748126029968262,19.599349975585938,-7.051507472991943,2.8277618885040283,4.100636005401611,2.088428020477295,-21.30000114440918,-170.10000610351562,-24.30000114440918
1041182,7.111321926116943,14.57734203338623,-2.3064393997192383,-2.126538038253784,-7.5915117263793945,-4.024415969848633,-4.5,-174.90000915527344,-29.100000381469727
1041204,4.606298923492432,9.5272216796875,-1.4702354669570923,-0.7698220014572144,-5.586925983428955,-9.977197647094727,-2.1000001430511475,-182.10000610351562,-20.100000381469727
1041224,1.9308055639266968,3.561941385269165,-0.06998272985219955,-1.478667974472046,-5.510705947875977,-13.368988037109375,2.700000047683716,-182.10000610351562,-21.30000114440918
1041244,-0.38939106464385986,-0.5496934056282043,0.909177303314209,-3.1707520484924316,-2.6677000522613525,-8.650969505310059,26.700000762939453,-182.10000610351562,-24.900001525878906
1041264,-0.16867631673812866,-1.3823083639144897,0.9325048923492432,-3.0106899738311768,0.4725639820098877,-2.2637338638305664,21.900001525878906,-172.5,-32.70000076293945
1041284,0.5508896708488464,-0.0029907147400081158,0.818857729434967,-1.6768399477005005,1.6387299299240112,1.4405579566955566,24.30000114440918,-177.3000030517578,-31.500001907348633
1041304,0.7524638772010803,0.9360937476158142,0.3899892270565033,-0.6326259970664978,1.981719970703125,1.7378159761428833,29.100000381469727,-184.5,-29.100000381469727
1041324,0.36127835512161255,0.5939559936523438,0.24404233694076538,-0.3582339882850647,1.524399995803833,1.0061039924621582,19.5,-184.5,-26.100000381469727
1041344,0.08732887357473373,-0.0005981429712846875,0.5634506940841675,-0.33536797761917114,0.914639949798584,0.48018598556518555,26.700000762939453,-172.5,-30.900001525878906
1041365,-0.042468149214982986,0.23327575623989105,0.6902570128440857,-0.2896359860897064,1.0899460315704346,0.342989981174469,24.30000114440918,-184.5,-26.700000762939453
1041385,-0.3678579330444336,0.06519758701324463,0.4868883788585663,-0.6173819899559021,1.6768399477005005,-0.8841519951820374,26.700000762939453,-189.3000030517578,-26.100000381469727
1041407,-0.6280501484870911,-0.7016217112541199,0.45099979639053345,-0.6250039935112,1.4100699424743652,-1.9512319564819336,29.100000381469727,-172.5,-29.700000762939453
1041429,-0.803305983543396,-1.0294040441513062,0.515001118183136,0.06859800219535828,1.7759259939193726,-1.2118979692459106,29.100000381469727,-189.3000030517578,-24.30000114440918
1041449,0.5227769613265991,2.2436342239379883,-0.1280025988817215,1.4405579566955566,2.240867853164673,2.942091941833496,17.100000381469727,-189.3000030517578,-29.700000762939453
1041469,1.6161823272705078,5.4712138175964355,-0.605918824672699,1.1585439443588257,3.1326420307159424,4.740883827209473,9.90000057220459,-182.10000610351562,-27.30000114440918
1041489,2.566033363342285,8.536696434020996,-1.3344569206237793,2.134160041809082,6.082355976104736,7.507669925689697,12.300000190734863,-179.70001220703125,-24.30000114440918
1041533,8.605483055114746,19.050853729248047,-4.295862674713135,2.2103798389434814,5.297289848327637,5.564059734344482,-11.700000762939453,-170.10000610351562,-27.30000114440918
1041553,13.34337329864502,19.599349975585938,-5.871969699859619,5.198204040527344,8.498529434204102,8.635725975036621,-21.30000114440918,-170.10000610351562,-23.100000381469727
1041573,18.15962028503418,19.599349975585938,-8.34170150756836,2.073184013366699,8.750056266784668,12.058003425598145,-38.10000228881836,-174.90000915527344,-27.900001525878906
1041593,18.424598693847656,19.599349975585938,-7.993582725524902,-0.2972579896450043,-1.7987920045852661,0.9832379817962646,-40.5,-162.90000915527344,-23.700000762939453
1041613,13.580238342285156,19.599349975585938,-6.063375473022461,-1.524399995803833,-11.17385196685791,-5.602169990539551,-30.900001525878906,-172.5,-23.700000762939453
1041633,9.599596977233887,17.714601516723633,-3.457266330718994,-1.7149499654769897,-11.029033660888672,-7.057971954345703,-26.100000381469727,-155.70001220703125,-17.100000381469727
1041653,5.800790309906006,11.559112548828125,-2.536126136779785,0,-7.522913932800293,-13.186059951782227,-6.900000095367432,-179.70001220703125,-21.900001525878906
1041673,2.498443126678467,4.539307117462158,-1.318905234336853,-0.23628199100494385,-9.436036109924316,-18.102249145507812,24.30000114440918,-165.3000030517578,-26.700000762939453
1041693,-0.4133167862892151,-1.539620041847229,0.9271215796470642,-2.2637338638305664,-7.522913932800293,-14.42082405090332,17.100000381469727,-184.5,-21.900001525878906
1041713,-1.0886201858520508,-2.7137746810913086,0.9235327243804932,-2.7210538387298584,-0.5335400104522705,-4.2911858558654785,7.500000476837158,-191.70001220703125,-23.700000762939453
1041733,0.611900269985199,-0.16209673881530762,-0.32419347763061523,-1.5548880100250244,0.5030519962310791,1.242385983467102,29.100000381469727,-174.90000915527344,-26.100000381469727
1041776,0.9564306139945984,0.39955949783325195,0.06340315192937851,-0.9832379817962646,0.8917739987373352,0.19817200303077698,19.5,-179.70001220703125,-21.900001525878906
1041799,0.5772079825401306,0.1692744642496109,0.2619866132736206,-0.8307979702949524,0.685979962348938,0.28201398253440857,21.900001525878906,-179.70001220703125,-31.500001907348633
1041839,0.01914057508111,-0.011364716105163097,0.715378999710083,-1.2042759656906128,1.0823240280151367,-1.0061039924621582,7.500000476837158,-179.70001220703125,-20.700000762939453
1041859,-0.3355582058429718,-0.32897862792015076,0.7309306859970093,-1.3872039318084717,1.425313949584961,-1.600619912147522,36.30000305175781,-170.10000610351562,-25.500001907348633
1041879,-0.6113021373748779,-0.5520859360694885,0.4342517852783203,-1.0747020244598389,1.9893419742584229,-2.0960500240325928,36.30000305175781,-184.5,-24.30000114440918
1041899,-0.28471603989601135,0.06639386713504791,-0.08613258600234985,0.04573199898004532,2.0503180027008057,-1.14329993724823,26.700000762939453,-179.70001220703125,-26.100000381469727
1041963,4.39096736907959,12.336698532104492,-3.463247776031494,4.146368026733398,7.492425918579102,16.745532989501953,2.700000047683716,-179.70001220703125,-23.700000762939453
1041983,9.760497093200684,19.599349975585938,-4.364649295806885,-2.987823963165283,5.129605770111084,16.417787551879883,-9.300000190734863,-184.5,-23.100000381469727
1042025,14.53367805480957,19.599349975585938,-6.004158973693848,4.7027740478515625,7.56864595413208,5.1067399978637695,-30.900001525878906,-158.10000610351562,-21.900001525878906
1042045,16.307172775268555,19.599349975585938,-7.029376029968262,0.17530599236488342,5.724122047424316,4.6951518058776855,-28.500001907348633,-177.3000030517578,-33.30000305175781
1042067,14.61741828918457,19.599349975585938,-7.835672855377197,1.5091559886932373,-2.294221878051758,-2.446661949157715,-26.100000381469727,-174.90000915527344,-23.700000762939453
1042087,11.511859893798828,19.537742614746094,-6.236238479614258,-2.0503180027008057,-10.952814102172852,-4.672286033630371,-23.700000762939453,-177.3000030517578,-24.900001525878906
1042107,7.750138282775879,15.343563079833984,-2.884843587875366,-4.824726104736328,-13.696733474731445,-7.576267719268799,-16.5,-172.5,-27.30000114440918
1042147,1.3727381229400635,3.326272964477539,-0.727940022945404,-0.3582339882850647,-4.817103862762451,-17.675416946411133,12.300000190734863,-177.3000030517578,-25.500001907348633
1042211,0.6759015321731567,0.91575688123703,0.412120521068573,-0.9298839569091797,-0.038109999150037766,0.3201240003108978,38.70000076293945,-191.70001220703125,-27.900001525878906
1042266,0.7201641201972961,0.22849062085151672,0.8535500168800354,-1.3338500261306763,0.8384199738502502,-0.3048799932003021,19.5,-179.70001220703125,-30.900001525878906
1042286,0.34094148874282837,-0.3792226314544678,1.0497409105300903,-1.2042759656906128,0.914639949798584,-0.4878079891204834,26.700000762939453,-167.70001220703125,-22.5
1042306,-0.06400129944086075,-0.7590434551239014,0.8679054379463196,-0.9832379817962646,1.707327961921692,-0.510673999786377,24.30000114440918,-182.10000610351562,-27.900001525878906
1042326,-0.40374651551246643,-1.024020791053772,0.518589973449707,-0.7088459730148315,1.882633924484253,-0.228659987449646,41.10000228881836,-174.90000915527344,-23.700000762939453
1042349,-0.33017492294311523,-0.12022674083709717,0.04545886442065239,0.35061198472976685,2.2637338638305664,1.7759259939193726,24.30000114440918,-179.70001220703125,-27.900001525878906
1042410,2.5588555335998535,8.511574745178223,-1.9678903818130493,1.9664759635925293,5.998513698577881,8.437553405761719,19.5,-186.90000915527344,-21.900001525878906
1042466,9.313684463500977,19.599349975585938,-5.448484420776367,1.882633924484253,9.291217803955078,9.626585960388184,-14.100000381469727,-155.70001220703125,-27.900001525878906
1042504,17.403568267822266,19.599349975585938,-6.476692199707031,-2.1494040489196777,0.18292799592018127,2.835383892059326,-28.500001907348633,-170.10000610351562,-19.5
1042524,15.180868148803711,19.599349975585938,-6.473103046417236,-0.5792719721794128,-3.3384358882904053,-1.8140360116958618,-38.10000228881836,-172.5,-27.30000114440918
1042564,8.464919090270996,15.463789939880371,-3.67499041557312,-3.5823400020599365,-10.007685661315918,-6.654006004333496,-18.900001525878906,-165.3000030517578,-29.700000762939453
1042682,0.9767674803733826,0.1178341656923294,0.37563377618789673,-0.2743920087814331,0.1600620001554489,0.038109999150037766,19.5,-179.70001220703125,-22.5
1042702,1.3715418577194214,0.517991840839386,0.506627082824707,-0.228659987449646,0.1295740008354187,0.685979962348938,9.90000057220459,-186.90000915527344,-26.700000762939453
1042742,0.6190779805183411,-0.3517080545425415,0.7895486950874329,-1.1737879514694214,1.1204339265823364,-0.35061198472976685,17.100000381469727,-177.3000030517578,-28.500001907348633
1042784,-0.1339840292930603,-0.7919412851333618,0.806296706199646,-0.8917739987373352,1.417691946029663,-0.8917739987373352,21.900001525878906,-179.70001220703125,-31.500001907348633
1042804,-0.3074454963207245,-1.114938497543335,0.8021097183227539,-0.457319974899292,1.371959924697876,-0.6097599864006042,21.900001525878906,-174.90000915527344,-26.700000762939453
1042824,0.9791600704193115,1.9690866470336914,-0.0005981429712846875,1.4939119815826416,1.753059983253479,3.048799991607666,36.30000305175781,-167.70001220703125,-21.900001525878906
1042864,2.1892032623291016,6.84096097946167,-1.0204318761825562,3.0106899738311768,4.230209827423096,7.004617691040039,14.700000762939453,-170.10000610351562,-22.5
1042904,7.12089204788208,17.04288673400879,-3.1767373085021973,-0.342989981174469,3.9481959342956543,9.885733604431152,-23.700000762939453,-167.70001220703125,-26.700000762939453
1042944,13.25963306427002,19.584396362304688,-4.74267578125,0.4878079891204834,5.701255798339844,6.699738025665283,-30.900001525878906,-167.70001220703125,-21.900001525878906
1043101,-1.21004319190979,-1.7914382219314575,0.04725329577922821,-0.7850660085678101,-1.0061039924621582,-10.32018756866455,12.300000190734863,-177.3000030517578,-29.100000381469727
1043121,-1.094003438949585,-1.652669072151184,0.30325847864151,-0.9451279640197754,-0.15243999660015106,-2.7210538387298584,12.300000190734863,-184.5,-33.30000305175781
1043161,0.31701576709747314,0.11065644770860672,0.4886828064918518,1.2042759656906128,-0.4725639820098877,-1.3338500261306763,7.500000476837158,-174.90000915527344,-23.100000381469727
1043184,0.4462146461009979,0.5580673813819885,0.2811271846294403,0.8384199738502502,0.49542999267578125,-0.914639949798584,12.300000190734863,-182.10000610351562,-25.500001907348633
1043205,0.020935004577040672,-0.09988987445831299,0.25839775800704956,0.5259180068969727,0.4192099869251251,-1.242385983467102,17.100000381469727,-162.90000915527344,-32.10000228881836
1043226,-0.2709587514400482,-0.62147057056427,0.28471603989601135,0.2972579896450043,0.2439039945602417,-1.425313949584961,7.500000476837158,-179.70001220703125,-24.900001525878906
1043246,-0.3858022093772888,-0.715977132320404,0.16448931396007538,0.48018598556518555,0.2439039945602417,-1.2500079870224,12.300000190734863,-172.5,-29.700000762939453
1043266,0.359483927488327,0.8685035705566406,-0.19200389087200165,1.1128119230270386,0.007621999830007553,0.038109999150037766,26.700000762939453,-191.70001220703125,-27.30000114440918
1043286,1.120919942855835,2.751457691192627,-0.27574390172958374,1.3567159175872803,0.15243999660015106,1.3490939140319824,19.5,-179.70001220703125,-23.100000381469727
1043309,2.4009459018707275,6.137545108795166,-0.9809544682502747,2.2561118602752686,1.7987920045852661,6.189064025878906,5.100000381469727,-174.90000915527344,-27.900001525878906
1043329,5.458054542541504,11.213386535644531,-1.728633165359497,-0.914639949798584,2.987823963165283,10.106771469116211,2.700000047683716,-172.5,-22.5
1043352,5.440110206604004,12.693790435791016,-2.131781578063965,0.39634400606155396,2.6677000522613525,3.9863059520721436,9.90000057220459,-172.5,-25.500001907348633
1043372,6.781744956970215,15.10131549835205,-3.4859771728515625,3.208861827850342,5.137228012084961,6.379613876342773,-14.100000381469727,-186.90000915527344,-24.900001525878906
1043392,10.06375503540039,19.376243591308594,-4.41489315032959,1.6082419157028198,6.250040054321289,8.673835754394531,-23.700000762939453,-174.90000915527344,-30.30000114440918
1043416,17.48910140991211,19.59097671508789,-6.664508819580078,0.09908600151538849,8.612859725952148,9.481767654418945,-28.500001907348633,-177.3000030517578,-27.30000114440918
1043437,15.785591125488281,19.599349975585938,-7.149004936218262,-0.6478700041770935,-3.5823400020599365,-6.303393840789795,-38.10000228881836,-165.3000030517578,-24.900001525878906
1043457,10.834761619567871,18.84568977355957,-4.341919898986816,-4.436003684997559,-11.85221004486084,-7.507669925689697,-38.10000228881836,-160.5,-23.100000381469727
1043477,8.594118118286133,16.730058670043945,-0.818259596824646,-4.344540119171143,-6.509187698364258,-3.7195358276367188,-23.700000762939453,-184.5,-28.500001907348633
1043497,6.077730655670166,13.321242332458496,-1.8781689405441284,-1.6615959405899048,-0.9527499675750732,-8.407065391540527,-11.700000762939453,-182.10000610351562,-33.30000305175781
1043517,3.8532369136810303,8.536696434020996,-1.6472856998443604,-0.3277460038661957,-2.2561118602752686,-14.53515338897705,-6.900000095367432,-174.90000915527344,-24.900001525878906
1043537,0.8368020057678223,2.6814749240875244,-0.07895487546920776,-1.9664759635925293,-4.1921000480651855,-15.579367637634277,0.30000001192092896,-172.5,-26.100000381469727
1043579,-1.2124358415603638,-2.2047550678253174,0.37742820382118225,-0.7698220014572144,0.5792719721794128,-3.300325870513916,36.30000305175781,-160.5,-24.900001525878906
1043599,-0.8541481494903564,-1.734614610671997,0.22729432582855225,0.2972579896450043,0.038109999150037766,0.2972579896450043,19.5,-186.90000915527344,-23.700000762939453
1043619,0.7644267082214355,1.8691967725753784,0.13039517402648926,1.4024479389190674,-0.8231759667396545,2.6677000522613525,36.30000305175781,-165.3000030517578,-29.100000381469727
1043639,0.9253271818161011,2.286700487136841,0.28591233491897583,0.6326259970664978,-0.6478700041770935,1.8673899173736572,21.900001525878906,-174.90000915527344,-23.700000762939453
1043702,-0.4898791015148163,-0.6866681575775146,0.38340964913368225,-0.457319974899292,-0.05335399881005287,0.1600620001554489,41.10000228881836,-182.10000610351562,-22.5
1043763,6.203340530395508,13.55870532989502,-2.504424571990967,-1.0518360137939453,5.830830097198486,13.887283325195312,7.500000476837158,-184.5,-28.500001907348633
1043784,8.472695350646973,17.03032684326172,-3.0977823734283447,-1.6844619512557983,3.9405739307403564,7.218033790588379,9.90000057220459,-167.70001220703125,-26.700000762939453
1043804,6.684845924377441,12.140507698059082,-2.723942995071411,-2.0503180027008057,-0.4878079891204834,-4.077769756317139,0.30000001192092896,-170.10000610351562,-31.500001907348633
1043824,5.982625961303711,12.684818267822266,-2.014545440673828,-0.6783579587936401,1.7835479974746704,2.4237959384918213,-6.900000095367432,-186.90000915527344,-26.100000381469727
1043844,9.737767219543457,19.599349975585938,-3.0750529766082764,-2.134160041809082,8.056453704833984,11.013790130615234,-6.900000095367432,-186.90000915527344,-24.30000114440918
1043884,7.254278182983398,16.63256072998047,-4.617663860321045,-0.39634400606155396,-2.7286758422851562,-5.571681976318359,-11.700000762939453,-184.5,-20.700000762939453
1043904,6.42465353012085,13.975610733032227,-2.5594537258148193,-1.5167779922485352,-6.1204657554626465,-5.625035762786865,-6.900000095367432,-179.70001220703125,-31.500001907348633
1043924,4.393360137939453,9.823302268981934,-1.2034636735916138,-0.8841519951820374,-6.417723655700684,-9.115911483764648,2.700000047683716,-172.5,-32.70000076293945
1043945,2.5887627601623535,6.87385892868042,-0.28292161226272583,1.5853760242462158,-4.054903984069824,-10.266833305358887,5.100000381469727,-167.70001220703125,-32.10000228881836
1043965,1.4110193252563477,3.6283352375030518,-0.7614359855651855,1.6234859228134155,-2.2484898567199707,-8.803409576416016,17.100000381469727,-182.10000610351562,-24.30000114440918
1043985,1.4792075157165527,4.208533763885498,0.09031958878040314,-1.2728739976882935,-0.7621999979019165,0.967993974685669,17.100000381469727,-179.70001220703125,-24.900001525878906
1044006,2.0695745944976807,5.091990947723389,-0.10766573250293732,-1.021347999572754,0,1.6615959405899048,19.5,-174.90000915527344,-32.70000076293945
1044026,1.739399790763855,4.756433010101318,-0.12202116847038269,-1.4405579566955566,0.8993960022926331,0.6554920077323914,12.300000190734863,-186.90000915527344,-37.5
1044046,1.9810495376586914,4.428650379180908,-0.3253897726535797,-1.4634239673614502,1.1051899194717407,1.1356779336929321,17.100000381469727,-191.70001220703125,-28.500001907348633
1044066,2.4458065032958984,5.548972129821777,-0.5341416597366333,-0.6250039935112,1.0747020244598389,1.9054999351501465,5.100000381469727,-182.10000610351562,-27.30000114440918
1044086,2.8926193714141846,6.465925693511963,-0.8738868832588196,-0.2134159952402115,1.067080020904541,2.134160041809082,24.30000114440918,-189.3000030517578,-27.30000114440918
1044106,3.1755409240722656,7.303325653076172,-0.8170632719993591,0.17530599236488342,0.3887220025062561,2.1722700595855713,9.90000057220459,-167.70001220703125,-24.900001525878906
1044126,3.8137595653533936,8.909937858581543,-0.9887303113937378,0.9375059604644775,1.3643379211425781,3.3155698776245117,5.100000381469727,-174.90000915527344,-19.5
1044146,6.191976070404053,13.419337272644043,-2.3925719261169434,1.471045970916748,4.496979713439941,8.551883697509766,12.300000190734863,-167.70001220703125,-25.500001907348633
1044166,8.41347885131836,16.505157470703125,-3.439321994781494,-0.26677000522613525,2.0960500240325928,4.451247692108154,0.30000001192092896,-172.5,-29.100000381469727
1044186,5.291172504425049,11.094355583190918,-1.9176464080810547,-0.5792719721794128,-4.961921691894531,-8.086941719055176,7.500000476837158,-174.90000915527344,-33.30000305175781
1044210,2.035480499267578,6.046627521514893,-1.2889981269836426,2.3628199100494385,-2.652456045150757,-6.471077919006348,12.300000190734863,-179.70001220703125,-21.900001525878906
1044270,3.2287757396698,9.301721572875977,-0.9665990471839905,0.18292799592018127,-0.22103799879550934,-4.634175777435303,21.900001525878906,-177.3000030517578,-22.5
1044308,2.7281301021575928,7.690922260284424,-1.7370071411132812,0.7545779943466187,0.49542999267578125,-4.184477806091309,29.100000381469727,-174.90000915527344,-33.900001525878906
1044328,2.6922414302825928,7.679557800292969,-1.9487497806549072,1.2195199728012085,0.48018598556518555,-2.4237959384918213,29.100000381469727,-165.3000030517578,-24.30000114440918
1044348,2.890825033187866,8.319570541381836,-2.2454288005828857,1.7987920045852661,0.16768398880958557,-0.48018598556518555,24.30000114440918,-167.70001220703125,-27.30000114440918
1044408,3.458462715148926,9.135437965393066,-2.3740293979644775,1.3872039318084717,-0.8231759667396545,0.8917739987373352,38.70000076293945,-162.90000915527344,-23.100000381469727
1044662,2.9338912963867188,8.851319313049316,-1.7513625621795654,-0.1295740008354187,2.3551979064941406,0.15243999660015106,38.70000076293945,-186.90000915527344,-25.500001907348633
1044682,3.2927770614624023,8.933863639831543,-1.7447830438613892,0.5487840175628662,2.179892063140869,-0.2743920087814331,14.700000762939453,-182.10000610351562,-29.700000762939453
1044725,2.9410688877105713,8.38656234741211,-2.136566638946533,2.1570260524749756,2.2713558673858643,-0.28201398253440857,36.30000305175781,-179.70001220703125,-18.30000114440918
1044765,3.064286470413208,9.302319526672363,-2.045050859451294,-0.5411620140075684,2.0198299884796143,1.7301939725875854,26.700000762939453,-189.3000030517578,-22.5
1044785,3.451284885406494,8.745448112487793,-1.5611531734466553,-2.3628199100494385,1.9664759635925293,2.126538038253784,29.100000381469727,-165.3000030517578,-27.900001525878906
1044848,3.1875038146972656,9.46441650390625,-1.8919261693954468,1.5472660064697266,1.2576299905776978,-0.5640279650688171,36.30000305175781,-170.10000610351562,-25.500001907348633
1044869,3.4112093448638916,9.20123291015625,-1.8799633979797363,0.4192099869251251,1.6844619512557983,-1.707327961921692,14.700000762939453,-170.10000610351562,-20.700000762939453
1044889,3.4273593425750732,8.732887268066406,-1.8380934000015259,0.5792719721794128,1.2042759656906128,-2.187514066696167,26.700000762939453,-172.5,-23.700000762939453
1044909,2.718559741973877,8.685633659362793,-1.9589182138442993,0.5945159792900085,2.332331895828247,-1.4862899780273438,29.100000381469727,-172.5,-23.100000381469727
1044972,3.1546061038970947,9.605578422546387,-2.477508068084717,1.425313949584961,2.2713558673858643,-3.9939279556274414,31.500001907348633,-177.3000030517578,-21.900001525878906
1045043,2.148529529571533,8.737074851989746,-2.5145931243896484,-0.09908600151538849,2.042695999145508,-2.8811159133911133,36.30000305175781,-194.10000610351562,-18.30000114440918
1045204,2.623455047607422,9.011622428894043,-1.2243986129760742,-2.4237959384918213,-0.6936019659042358,-0.04573199898004532,60.30000305175781,-186.90000915527344,-27.30000114440918
1045225,2.5139949321746826,8.950013160705566,-1.320699691772461,-2.4161739349365234,-0.3201240003108978,-0.038109999150037766,53.10000228881836,-172.5,-24.900001525878906
1045265,2.42008638381958,9.176111221313477,-1.2142301797866821,-1.600619912147522,-0.6554920077323914,-0.1448179930448532,48.30000305175781,-179.70001220703125,-23.100000381469727
1045307,2.399749517440796,9.033753395080566,-1.3440272808074951,-1.1128119230270386,-0.4192099869251251,-0.38109999895095825,57.900001525878906,-182.10000610351562,-32.10000228881836
1045327,2.384197950363159,9.10672664642334,-1.3643641471862793,-0.8231759667396545,-0.36585599184036255,-0.15243999660015106,57.900001525878906,-174.90000915527344,-23.100000381469727
1045388,2.545098304748535,9.146801948547363,-1.513899803161621,-0.10670799762010574,-0.3125019967556,0.13719600439071655,50.70000076293945,-174.90000915527344,-32.70000076293945
1045408,2.674297332763672,9.161755561828613,-1.8889354467391968,-0.05335399881005287,-0.26677000522613525,0.114329993724823,60.30000305175781,-174.90000915527344,-23.100000381469727
1045448,3.296365976333618,10.682833671569824,5.647068023681641,-9.443657875061035,-20.0001277923584,4.253076076507568,48.30000305175781,-184.5,-21.30000114440918
1045526,2.7849535942077637,8.725111961364746,-1.3123257160186768,1.6082419157028198,-5.236313819885254,0.9984819889068604,45.900001525878906,-182.10000610351562,-36.30000305175781
1045742,2.6096978187561035,8.661109924316406,-1.5784993171691895,1.2576299905776978,-1.2195199728012085,-1.4100699424743652,60.30000305175781,-174.90000915527344,-20.100000381469727
1045762,2.641399383544922,8.637184143066406,-1.8249342441558838,1.0823240280151367,-1.4481799602508545,-1.0061039924621582,67.5,-179.70001220703125,-24.30000114440918
1045802,2.3357481956481934,8.58275318145752,-1.735212802886963,0.46494197845458984,-1.6615959405899048,0.038109999150037766,77.10000610351562,-179.70001220703125,-21.900001525878906
1045824,1.748371958732605,8.204129219055176,-1.515694260597229,0.12195199728012085,-2.2027578353881836,0.2743920087814331,67.5,-179.70001220703125,-30.900001525878906
1045844,0.815268874168396,7.956497669219971,-1.399654507637024,0.2743920087814331,-2.3170878887176514,0.7850660085678101,43.5,-179.70001220703125,-22.5
1045864,1.117929220199585,9.352563858032227,-1.7190629243850708,0.4878079891204834,-2.3551979064941406,2.599102020263672,55.500003814697266,-184.5,-22.5
1045884,1.1364716291427612,10.636178016662598,-1.737605333328247,-0.22103799879550934,-2.583858013153076,2.7667858600616455,55.500003814697266,-184.5,-24.900001525878906
1045927,1.1639862060546875,10.800667762756348,-1.6945390701293945,-0.5411620140075684,-3.307947874069214,0.35061198472976685,60.30000305175781,-172.5,-26.700000762939453
1045947,1.429561734199524,11.084187507629395,-1.3948694467544556,-0.6707359552383423,-3.353679895401001,0.05335399881005287,50.70000076293945,-174.90000915527344,-29.100000381469727
1045967,1.4092248678207397,10.850313186645508,-1.2752407789230347,-0.9222619533538818,-2.4237959384918213,-0.6021379828453064,60.30000305175781,-177.3000030517578,-18.30000114440918
1045987,1.3506067991256714,10.258749961853027,-1.3212977647781372,-0.7774440050125122,-2.080806016921997,-0.800309956073761,55.500003814697266,-170.10000610351562,-21.900001525878906
1046007,0.9588232040405273,9.322656631469727,-0.9707860350608826,-0.6554920077323914,-1.981719970703125,-0.8307979702949524,53.10000228881836,-165.3000030517578,-30.900001525878906
1046029,1.3392421007156372,9.518847465515137,-0.9743748903274536,-0.41158798336982727,-1.0289700031280518,0.3734779953956604,57.900001525878906,-182.10000610351562,-20.700000762939453
1046049,1.1741546392440796,8.73827075958252,-0.9426733255386353,-0.2972579896450043,-0.914639949798584,0.3734779953956604,41.10000228881836,-186.90000915527344,-29.100000381469727
1046109,2.133575916290283,8.917713165283203,-0.9606176018714905,0.20579399168491364,-0.1448179930448532,0.8689079880714417,55.500003814697266,-177.3000030517578,-27.30000114440918
1046129,2.521770715713501,9.1802978515625,-0.9875340461730957,0.3582339882850647,-0.015243999660015106,1.0899460315704346,53.10000228881836,-172.5,-24.30000114440918
1046153,2.848954916000366,9.321459770202637,-1.143051266670227,0.15243999660015106,0.4192099869251251,1.1204339265823364,55.500003814697266,-174.90000915527344,-24.30000114440918
1046173,3.1336710453033447,9.43450927734375,-1.1974822282791138,0.114329993724823,0.6707359552383423,1.1661659479141235,55.500003814697266,-174.90000915527344,-26.700000762939453
1046233,3.219205379486084,8.439199447631836,-1.232772707939148,-0.2134159952402115,1.5320219993591309,0.5640279650688171,53.10000228881836,-182.10000610351562,-24.30000114440918
1046281,2.7586352825164795,7.137639999389648,-1.1855193376541138,0.015243999660015106,1.6387299299240112,-0.12195199728012085,43.5,-177.3000030517578,-27.900001525878906
1046301,2.178436756134033,5.714059829711914,-1.2315763235092163,0.800309956073761,2.4237959384918213,-1.5396440029144287,57.900001525878906,-189.3000030517578,-20.700000762939453
1046343,4.361658573150635,10.651729583740234,-3.514090061187744,1.5929979085922241,5.304912090301514,2.179892063140869,41.10000228881836,-184.5,-25.500001907348633
1046363,3.618764877319336,8.87165641784668,-3.6761868000030518,2.2561118602752686,3.407033920288086,-3.239349842071533,43.5,-184.5,-24.30000114440918
1046385,3.573904275894165,7.786625385284424,-3.800002336502075,4.131124019622803,2.332331895828247,-2.835383892059326,53.10000228881836,-170.10000610351562,-21.900001525878906
1046406,3.788039445877075,9.125866889953613,-3.9872210025787354,3.1326420307159424,2.431417942047119,-0.9984819889068604,45.900001525878906,-174.90000915527344,-21.900001525878906
1046426,4.0344743728637695,9.98240852355957,-4.464539051055908,3.7957558631896973,3.513741970062256,-0.8460419774055481,48.30000305175781,-179.70001220703125,-21.900001525878906
1046446,4.264759540557861,10.386154174804688,-5.065672874450684,3.910085916519165,2.5762360095977783,-1.1661659479141235,48.30000305175781,-153.3000030517578,-24.30000114440918
1046466,3.594839334487915,9.64864444732666,-4.836584091186523,2.7210538387298584,-0.02286599949002266,-2.2561118602752686,55.500003814697266,-174.90000915527344,-16.5
1046527,2.6043145656585693,8.155080795288086,-3.3944613933563232,-0.23628199100494385,-0.510673999786377,-3.8491098880767822,67.5,-165.3000030517578,-23.100000381469727
1046547,2.399151563644409,7.2327446937561035,-3.094193696975708,-0.9832379817962646,-0.853663980960846,-4.024415969848633,60.30000305175781,-167.70001220703125,-24.30000114440918
1046587,2.3064393997192383,7.263848304748535,-2.905778646469116,-0.685979962348938,-0.5411620140075684,-2.644834041595459,62.70000076293945,-174.90000915527344,-20.700000762939453
1046607,2.423675298690796,7.15079927444458,-2.885441780090332,-0.571649968624115,-0.7088459730148315,-2.240867853164673,67.5,-174.90000915527344,-17.700000762939453
1046627,2.546294689178467,7.506096363067627,-2.8746750354766846,-0.2591480016708374,-0.914639949798584,-1.2804960012435913,60.30000305175781,-170.10000610351562,-21.30000114440918
1046647,2.5445001125335693,7.797989845275879,-2.9703779220581055,-0.46494197845458984,-0.8612859845161438,-0.3734779953956604,72.30000305175781,-172.5,-21.30000114440918
1046710,4.288685321807861,10.4035005569458,-4.54050350189209,0.48018598556518555,-0.49542999267578125,2.2484898567199707,60.30000305175781,-172.5,-23.700000762939453
1046731,1.3314661979675293,8.3937406539917,-0.5790023803710938,-5.228692054748535,-8.17840576171875,-0.8765299916267395,69.9000015258789,-165.3000030517578,-18.900001525878906
1046751,3.142045021057129,10.203721046447754,-2.6090996265411377,2.736297845840454,1.6082419157028198,1.8369019031524658,79.5,-167.70001220703125,-23.700000762939453
1046771,3.3065342903137207,9.688719749450684,-3.380704164505005,1.829279899597168,1.7454379796981812,1.478667974472046,69.9000015258789,-177.3000030517578,-21.30000114440918
1046831,1.6562578678131104,9.421948432922363,-2.47092866897583,-0.8384199738502502,-3.9481959342956543,-0.10670799762010574,72.30000305175781,-170.10000610351562,-24.30000114440918
1046881,2.1419498920440674,9.07083797454834,-2.817253351211548,-0.9908599853515625,-2.8734939098358154,3.513741970062256,65.10000610351562,-182.10000610351562,-28.500001907348633
1046901,1.7047075033187866,9.88251781463623,-2.1808292865753174,-1.3795819282531738,-3.5899620056152344,2.5152599811553955,57.900001525878906,-184.5,-24.900001525878906
1046941,0.6687238216400146,9.533801078796387,-2.1473333835601807,-2.1036720275878906,-2.6295900344848633,-1.0061039924621582,55.500003814697266,-167.70001220703125,-19.5
1046984,0.16748003661632538,9.176111221313477,-2.4751155376434326,-4.839970111846924,-4.596065998077393,-1.4024479389190674,67.5,-177.3000030517578,-22.5
1047004,-0.5102159380912781,9.30112361907959,-1.6622393131256104,-4.64179801940918,-4.451247692108154,-2.2637338638305664,57.900001525878906,-182.10000610351562,-27.30000114440918
1047024,-0.22430361807346344,8.62462329864502,-1.3452235460281372,-2.179892063140869,-1.3262280225753784,-0.2972579896450043,79.5,-186.90000915527344,-24.30000114440918
1047064,0.2458367645740509,11.928765296936035,-2.2430360317230225,-0.9222619533538818,5.929915904998779,-0.2591480016708374,74.70000457763672,-177.3000030517578,-15.90000057220459
1047084,0.5102159380912781,9.042725563049316,-1.8057936429977417,-7.225656032562256,9.161643981933594,-6.1738200187683105,81.9000015258789,-186.90000915527344,-30.900001525878906
1047108,-0.8738868832588196,8.270523071289062,-5.086607933044434,5.083873748779297,0.2972579896450043,-2.698187828063965,84.30000305175781,-172.5,-29.700000762939453
1047128,-0.4079335033893585,9.143811225891113,-1.62336003780365,-4.28356409072876,-7.324741840362549,1.8521459102630615,77.10000610351562,-177.3000030517578,-24.900001525878906
1047148,0.1411617398262024,10.436996459960938,0.39955949783325195,-2.042695999145508,-1.013725996017456,1.5167779922485352,65.10000610351562,-177.3000030517578,-18.30000114440918
1047211,-0.025122005492448807,9.61873722076416,-0.8583351373672485,-1.14329993724823,0.4039659798145294,1.4329359531402588,65.10000610351562,-172.5,-24.900001525878906
1047242,-0.09211401641368866,9.177308082580566,-1.6383136510849,-0.6783579587936401,1.8369019031524658,1.7911700010299683,77.10000610351562,-174.90000915527344,-23.700000762939453
1047262,0.01854243129491806,9.20841121673584,-1.4857871532440186,-0.4344539940357208,1.2881180047988892,2.0579400062561035,50.70000076293945,-182.10000610351562,-26.100000381469727
1047302,0.7476786971092224,9.618139266967773,-1.518684983253479,-0.41158798336982727,0.9222619533538818,1.8597679138183594,62.70000076293945,-172.5,-26.100000381469727
1047322,0.921140193939209,9.113903999328613,-1.3864953517913818,-0.46494197845458984,0.5564059615135193,1.6844619512557983,50.70000076293945,-177.3000030517578,-24.30000114440918
1047343,1.226791262626648,9.016407012939453,-1.2453336715698242,-0.3887220025062561,0.3277460038661957,1.9512319564819336,53.10000228881836,-184.5,-21.900001525878906
1047363,1.4564781188964844,9.046314239501953,-1.1783416271209717,-0.44969800114631653,0.35061198472976685,2.1112940311431885,43.5,-177.3000030517578,-24.900001525878906
1047383,1.6927446126937866,9.026576042175293,-1.1466400623321533,-0.5945159792900085,0.49542999267578125,2.088428020477295,45.900001525878906,-186.90000915527344,-23.700000762939453
1047423,2.059406280517578,8.994874000549316,-1.3541957139968872,-0.38109999895095825,0.2896359860897064,1.4939119815826416,48.30000305175781,-179.70001220703125,-26.700000762939453
1047443,2.2544009685516357,8.688624382019043,-1.4223840236663818,-0.06859800219535828,0.2591480016708374,1.189031958580017,45.900001525878906,-179.70001220703125,-25.500001907348633
1047483,2.5056209564208984,7.628715515136719,-1.6610430479049683,0.5411620140075684,-0.20579399168491364,0.914639949798584,33.900001525878906,-186.90000915527344,-29.700000762939453
1047504,2.8902268409729004,7.442692756652832,-1.742390513420105,0.8460419774055481,-0.3125019967556,1.1661659479141235,48.30000305175781,-179.70001220703125,-26.700000762939453
1047524,3.5308380126953125,8.36084270477295,-1.8357007503509521,0.685979962348938,-0.038109999150037766,1.806414008140564,33.900001525878906,-174.90000915527344,-27.900001525878906
1047544,4.819836139678955,10.06495189666748,-2.3949644565582275,0.4420759975910187,1.7987920045852661,2.637212038040161,33.900001525878906,-184.5,-24.900001525878906
1047567,5.606992244720459,10.898164749145508,-3.159989356994629,0.030487999320030212,2.9192259311676025,1.2347639799118042,29.100000381469727,-184.5,-18.30000114440918
1047587,5.233152866363525,9.31488037109375,-3.746169328689575,0.6097599864006042,1.7149499654769897,-1.875011920928955,33.900001525878906,-177.3000030517578,-24.900001525878906
1047607,4.801293849945068,8.039639472961426,-3.7479639053344727,1.882633924484253,-1.0747020244598389,-1.4481799602508545,38.70000076293945,-172.5,-22.5
1047627,4.98073673248291,8.726905822753906,-3.1342692375183105,1.1509219408035278,-2.439039945602417,0.2591480016708374,31.500001907348633,-179.70001220703125,-25.500001907348633
1047647,5.276219367980957,9.68453311920166,-2.8782639503479004,1.1661659479141235,-1.4939119815826416,-0.4344539940357208,36.30000305175781,-174.90000915527344,-19.5
1047670,5.019017696380615,8.99606990814209,-2.935685634613037,0.6631140112876892,-0.46494197845458984,-2.9116039276123047,48.30000305175781,-174.90000915527344,-33.30000305175781
1047732,3.923219680786133,7.7692790031433105,-2.21791410446167,0.571649968624115,-0.8917739987373352,-2.903981924057007,65.10000610351562,-177.3000030517578,-20.100000381469727
1047905,3.720449209213257,8.176015853881836,-2.152716636657715,0.49542999267578125,-1.189031958580017,-1.0518360137939453,67.5,-174.90000915527344,-27.900001525878906
1047926,3.66003680229187,8.019302368164062,-2.238250970840454,0.28201398253440857,-1.0747020244598389,-0.8689079880714417,65.10000610351562,-167.70001220703125,-24.900001525878906
1047966,4.523755073547363,10.807247161865234,-2.972172498703003,0.38109999895095825,-1.2271419763565063,-0.228659987449646,62.70000076293945,-172.5,-20.700000762939453
1047986,3.994398832321167,9.88371467590332,-2.5534722805023193,-0.6554920077323914,-2.2103798389434814,-2.538125991821289,72.30000305175781,-165.3000030517578,-26.100000381469727
1048006,3.242532968521118,8.048013687133789,-2.008563995361328,0.3048799932003021,-2.690565824508667,-3.7881338596343994,62.70000076293945,-174.90000915527344,-19.5
1048026,3.3795077800750732,8.768775939941406,-1.952338695526123,-0.015243999660015106,-2.4695279598236084,-2.1646480560302734,60.30000305175781,-167.70001220703125,-21.30000114440918
1048046,2.771794557571411,8.475088119506836,-1.6472856998443604,-0.739333987236023,-1.875011920928955,-2.545747995376587,69.9000015258789,-174.90000915527344,-25.500001907348633
1048069,2.318402051925659,9.213794708251953,-1.8691967725753784,-0.5411620140075684,-1.14329993724823,-1.707327961921692,79.5,-182.10000610351562,-28.500001907348633
1048089,1.6269488334655762,9.282580375671387,-1.8608227968215942,-0.7164679765701294,-0.6097599864006042,-1.8978779315948486,79.5,-167.70001220703125,-26.700000762939453
1048109,1.2345670461654663,9.866368293762207,-2.19398832321167,-0.28201398253440857,-0.8841519951820374,-1.5396440029144287,91.5,-172.5,-20.700000762939453
1048131,0.8822608590126038,9.460827827453613,-1.9158519506454468,-0.5640279650688171,-0.9375059604644775,-1.9588539600372314,93.9000015258789,-165.3000030517578,-23.700000762939453
1048151,-0.05502915382385254,9.82689094543457,-2.101276159286499,0.22103799879550934,0.23628199100494385,-1.6158639192581177,96.30000305175781,-170.10000610351562,-26.700000762939453
1048171,-0.47731807827949524,10.632589340209961,-2.9350874423980713,0.4725639820098877,1.2881180047988892,-1.3948259353637695,79.5,-174.90000915527344,-22.5
1048191,-1.043161392211914,10.106224060058594,-3.088212251663208,0.426831990480423,0.6021379828453064,-2.240867853164673,81.9000015258789,-158.10000610351562,-24.30000114440918
1048212,-1.4869834184646606,9.86756420135498,-3.030790328979492,0.914639949798584,-0.3887220025062561,-2.0198299884796143,77.10000610351562,-158.10000610351562,-19.5
1048232,-1.6562578678131104,10.620028495788574,-2.9949018955230713,0.5335400104522705,-0.4344539940357208,-1.425313949584961,86.70000457763672,-165.3000030517578,-20.100000381469727
1048252,-1.9924142360687256,10.146897315979004,-3.099576950073242,0.36585599184036255,0.6936019659042358,-2.888737916946411,103.50000762939453,-172.5,-25.500001907348633
1048272,-2.552276134490967,9.168933868408203,-3.6295316219329834,1.4329359531402588,1.0594580173492432,-3.864353895187378,86.70000457763672,-162.90000915527344,-18.900001525878906
1048313,-2.124603748321533,9.310693740844727,-3.9812395572662354,1.806414008140564,-1.92836594581604,-1.2042759656906128,81.9000015258789,-165.3000030517578,-18.30000114440918
1048355,-1.948151707649231,8.953601837158203,-3.744374990463257,2.088428020477295,-0.8384199738502502,-0.16768398880958557,101.10000610351562,-158.10000610351562,-14.100000381469727
1048504,-0.06878644227981567,8.100051879882812,-2.7699999809265137,-0.7317119836807251,0.342989981174469,-0.2896359860897064,103.50000762939453,-174.90000915527344,-23.100000381469727
1048525,0.22549989819526672,8.691017150878906,-2.6222589015960693,-0.7240899801254272,0.510673999786377,0.007621999830007553,98.70000457763672,-162.90000915527344,-19.5
1048565,0.4617663621902466,8.63479232788086,-2.9590132236480713,-0.33536797761917114,2.195136070251465,-1.2500079870224,115.50000762939453,-174.90000915527344,-17.100000381469727
1048585,0.8822608590126038,8.76399040222168,-3.078641891479492,0.16768398880958557,2.2180018424987793,-1.0289700031280518,93.9000015258789,-177.3000030517578,-19.5
1048605,1.0204318761825562,8.908143043518066,-3.0750529766082764,-0.2439039945602417,2.3475759029388428,-1.5320219993591309,98.70000457763672,-165.3000030517578,-26.700000762939453
1048626,1.123910665512085,8.86567497253418,-3.1928870677948,0.12195199728012085,3.1783738136291504,-1.8140360116958618,103.50000762939453,-179.70001220703125,-15.300000190734863
1048646,2.009162187576294,10.178000450134277,-3.8077781200408936,0.457319974899292,3.300325870513916,-0.6097599864006042,105.9000015258789,-162.90000915527344,-15.90000057220459
1048666,2.3746275901794434,10.228842735290527,-3.794619083404541,-0.18292799592018127,2.2561118602752686,-2.073184013366699,108.30000305175781,-170.10000610351562,-21.900001525878906
1048688,2.0761542320251465,9.03315544128418,-3.785048723220825,0.6250039935112,1.6844619512557983,-2.690565824508667,103.50000762939453,-167.70001220703125,-21.30000114440918
1048771,3.052921772003174,9.043323516845703,-3.338834047317505,-0.41158798336982727,0.7621999979019165,-1.8369019031524658,113.10000610351562,-143.70001220703125,-18.30000114440918
1048858,2.1150336265563965,8.179605484008789,-2.5654351711273193,-1.1661659479141235,0.5030519962310791,-1.5625100135803223,117.9000015258789,-165.3000030517578,-18.900001525878906
1048921,1.5551717281341553,9.131848335266113,-2.339337110519409,-1.3490939140319824,-0.13719600439071655,-0.17530599236488342,117.9000015258789,-158.10000610351562,-24.30000114440918
1049042,-1.1155366897583008,8.908143043518066,-2.747868776321411,-0.6783579587936401,-2.042695999145508,-0.114329993724823,115.50000762939453,-170.10000610351562,-18.30000114440918
1049062,-1.7148759365081787,9.25028133392334,-2.5086116790771484,-0.3887220025062561,-0.7926880121231079,1.478667974472046,125.10000610351562,-162.90000915527344,-18.900001525878906
1049105,-1.7005205154418945,9.06007194519043,-3.1665689945220947,-0.07621999830007553,-0.2896359860897064,-0.3582339882850647,105.9000015258789,-155.70001220703125,-20.100000381469727
1049125,-1.7956252098083496,8.55404281616211,-3.084623336791992,0.44969800114631653,-0.7850660085678101,0.08384199440479279,120.30000305175781,-165.3000030517578,-16.5
1049168,-1.4774131774902344,8.947022438049316,-3.1193156242370605,0.6402480006217957,-1.6234859228134155,0.4344539940357208,110.70000457763672,-155.70001220703125,-20.100000381469727
1049188,-0.9552343487739563,8.203531265258789,-2.831608772277832,0.7621999979019165,-1.8902559280395508,0.4878079891204834,113.10000610351562,-165.3000030517578,-20.100000381469727
1049208,-0.30684733390808105,8.97214412689209,-2.8513474464416504,0.5487840175628662,-2.073184013366699,1.3109840154647827,115.50000762939453,-165.3000030517578,-13.500000953674316
1049228,0.2954826354980469,9.56789493560791,-2.351300001144409,-0.48018598556518555,-1.1051899194717407,0.8765299916267395,110.70000457763672,-162.90000915527344,-20.700000762939453
1049250,0.30983805656433105,8.84294605255127,-2.614482879638672,-0.2896359860897064,1.1814099550247192,-0.3201240003108978,103.50000762939453,-170.10000610351562,-20.700000762939453
1049270,0.3792226314544678,8.241811752319336,-3.0600993633270264,0.17530599236488342,1.3948259353637695,-0.09146399796009064,103.50000762939453,-160.5,-27.30000114440918
1049290,0.9079810380935669,9.3717041015625,-2.874077081680298,0.23628199100494385,0.015243999660015106,0.9984819889068604,101.10000610351562,-172.5,-16.5
1049310,2.3859922885894775,11.426324844360352,-2.7670094966888428,-0.5259180068969727,0.7926880121231079,0.5564059615135193,103.50000762939453,-170.10000610351562,-18.900001525878906
1049371,0.509019672870636,8.647951126098633,-4.150514125823975,0.7012239694595337,0,-0.7621999979019165,105.9000015258789,-170.10000610351562,-14.700000762939453
1049400,0.5305528044700623,9.121082305908203,-3.368143081665039,0.114329993724823,-1.2042759656906128,-0.38109999895095825,115.50000762939453,-160.5,-20.700000762939453
1049420,0.5568711161613464,9.349573135375977,-3.4118075370788574,-0.4039659798145294,-0.26677000522613525,-0.6936019659042358,120.30000305175781,-160.5,-20.700000762939453
1049461,0.5263658165931702,8.689821243286133,-3.1552040576934814,-1.653973937034607,0.3277460038661957,-0.342989981174469,105.9000015258789,-174.90000915527344,-12.90000057220459
1049481,0.5311509370803833,8.70537281036377,-3.051725387573242,-1.425313949584961,0.5945159792900085,0.05335399881005287,113.10000610351562,-158.10000610351562,-23.100000381469727
1049501,0.40075579285621643,8.609071731567383,-3.1103434562683105,-0.8307979702949524,0.6326259970664978,0.19817200303077698,110.70000457763672,-162.90000915527344,-18.900001525878906
1049523,0.4827013909816742,8.980518341064453,-3.0918009281158447,-0.49542999267578125,0.038109999150037766,0.571649968624115,101.10000610351562,-165.3000030517578,-15.300000190734863
1049588,0.6142928600311279,9.102540016174316,-3.4088168144226074,0.18292799592018127,0.18292799592018127,0.4039659798145294,125.10000610351562,-162.90000915527344,-11.700000762939453
1049608,0.5724228024482727,9.136035919189453,-3.4207797050476074,0.22103799879550934,-0.114329993724823,0.46494197845458984,91.5,-158.10000610351562,-19.5
1049628,0.596946656703949,9.074426651000977,-3.3609652519226074,-0.09908600151538849,-0.342989981174469,0.2439039945602417,120.30000305175781,-165.3000030517578,-21.30000114440918
1049648,0.5873764157295227,9.10672664642334,-3.2144203186035156,-0.39634400606155396,-0.25152599811553955,0.2439039945602417,113.10000610351562,-162.90000915527344,-12.300000190734863
1049668,0.5957503914833069,9.337610244750977,-3.2215981483459473,-0.7012239694595337,-0.05335399881005287,0.030487999320030212,103.50000762939453,-167.70001220703125,-23.700000762939453
1049688,0.5730209946632385,8.96616268157959,-3.0870158672332764,-0.9451279640197754,0.09908600151538849,-0.35061198472976685,103.50000762939453,-170.10000610351562,-11.100000381469727
1049710,0.5329453945159912,8.915321350097656,-2.900395154953003,-0.8765299916267395,0.38109999895095825,-0.06859800219535828,120.30000305175781,-160.5,-19.5
1049730,0.6310408115386963,9.1802978515625,-2.8866379261016846,-0.739333987236023,0.571649968624115,-0.02286599949002266,108.30000305175781,-158.10000610351562,-22.5
1049770,0.5520859360694885,8.92848014831543,-2.9141526222229004,-0.5030519962310791,0.6097599864006042,0.28201398253440857,108.30000305175781,-158.10000610351562,-24.900001525878906
1049790,0.6107039451599121,8.88182544708252,-2.8663010597229004,-0.49542999267578125,0.48018598556518555,0.36585599184036255,105.9000015258789,-174.90000915527344,-26.100000381469727
1049810,0.7590434551239014,8.94642448425293,-2.864506721496582,-0.44969800114631653,0.49542999267578125,0.4344539940357208,113.10000610351562,-170.10000610351562,-14.700000762939453
1049833,0.8906348943710327,9.05409049987793,-2.9231247901916504,-0.44969800114631653,0.510673999786377,0.3048799932003021,110.70000457763672,-170.10000610351562,-18.30000114440918
1049873,0.9983006119728088,8.938050270080566,-2.847160577774048,-0.4878079891204834,0.8765299916267395,0.015243999660015106,110.70000457763672,-155.70001220703125,-20.700000762939453
1049893,1.003085732460022,8.966761589050293,-2.993107318878174,-0.3201240003108978,1.0823240280151367,-0.007621999830007553,113.10000610351562,-174.90000915527344,-16.5
1049913,1.0467501878738403,8.905152320861816,-2.855534553527832,-0.3887220025062561,0.9451279640197754,-0.10670799762010574,120.30000305175781,-165.3000030517578,-27.30000114440918
1049934,1.0904146432876587,9.018799781799316,-2.8357958793640137,-0.3887220025062561,1.0289700031280518,-0.06859800219535828,108.30000305175781,-170.10000610351562,-15.300000190734863
1049975,0.9731786251068115,9.272412300109863,-2.789738893508911,-0.6173819899559021,1.3414719104766846,-0.41158798336982727,103.50000762939453,-167.70001220703125,-20.100000381469727
1050005,0.6208723783493042,8.79808521270752,-2.7323172092437744,-0.6783579587936401,1.8445239067077637,-0.7621999979019165,113.10000610351562,-162.90000915527344,-20.100000381469727
1050025,0.5072252154350281,9.278393745422363,-2.9255173206329346,-0.228659987449646,1.4939119815826416,-0.1600620001554489,103.50000762939453,-172.5,-21.30000114440918
1050065,0.1573116034269333,9.932762145996094,-2.5983331203460693,-0.426831990480423,0.9908599853515625,0.3734779953956604,105.9000015258789,-162.90000915527344,-21.900001525878906
1050105,-0.3696523606777191,9.420751571655273,-2.3800108432769775,-0.6707359552383423,-0.2743920087814331,1.3109840154647827,105.9000015258789,-165.3000030517578,-21.30000114440918
1050145,-0.40075579285621643,8.862086296081543,-1.1418548822402954,-1.3033620119094849,-3.361301898956299,2.797273874282837,110.70000457763672,-170.10000610351562,-23.100000381469727
1050182,-0.42169079184532166,7.646659851074219,0.6621442437171936,-1.5929979085922241,-5.678390026092529,2.278977870941162,101.10000610351562,-170.10000610351562,-19.5
1050202,-0.7949320077896118,6.869671821594238,1.1556122303009033,-0.46494197845458984,-7.073215961456299,2.0960500240325928,98.70000457763672,-165.3000030517578,-20.100000381469727
1050248,-0.3074454963207245,5.4801859855651855,0.5658432245254517,1.2118979692459106,-11.821722030639648,2.5228819847106934,96.30000305175781,-167.70001220703125,-27.30000114440918
1050288,0.699827253818512,3.1318767070770264,1.4935630559921265,0.7317119836807251,-18.36139678955078,3.4680099487304688,89.10000610351562,-167.70001220703125,-23.700000762939453
1050360,3.2981603145599365,3.731813907623291,-0.14295616745948792,-0.18292799592018127,-10.03055191040039,-0.19054999947547913,79.5,-172.5,-22.5
1050380,2.9261155128479004,3.5661284923553467,-1.7902419567108154,0.23628199100494385,-2.1189160346984863,-2.9344699382781982,81.9000015258789,-165.3000030517578,-27.30000114440918
1050420,3.317301034927368,4.4699225425720215,-7.497124195098877,6.768335819244385,5.3582658767700195,1.3186060190200806,89.10000610351562,-172.5,-20.700000762939453
1050483,2.537322521209717,6.47848653793335,-7.887113094329834,3.353679895401001,1.2804960012435913,-8.917739868164062,93.9000015258789,-158.10000610351562,-18.900001525878906
1050784,-5.772677898406982,13.716614723205566,-6.593329906463623,-3.7957558631896973,6.951263904571533,-6.814067840576172,170.70001220703125,-126.9000015258789,-17.100000381469727
1050805,-5.18290901184082,14.96194839477539,-6.345698833465576,-1.371959924697876,9.679940223693848,-2.8125178813934326,158.70001220703125,-124.50000762939453,-16.5
1050846,-5.980233192443848,14.482237815856934,-5.720639228820801,-1.4100699424743652,7.1418137550354,-4.5427117347717285,168.3000030517578,-138.90000915527344,-14.700000762939453
1050962,-5.451475143432617,11.766668319702148,-1.7711013555526733,-5.091495990753174,-2.179892063140869,4.939055919647217,161.10000610351562,-141.3000030517578,-11.700000762939453
1050982,-5.180516242980957,11.945513725280762,-1.2513151168823242,-4.763750076293945,-1.6920839548110962,5.487839698791504,153.90000915527344,-160.5,-8.700000762939453
1051025,-3.9991838932037354,9.350171089172363,-1.918244481086731,-3.2698378562927246,-1.7149499654769897,6.135709762573242,141.90000915527344,-150.90000915527344,-17.100000381469727
1051045,-3.898695945739746,9.038537979125977,-1.111947774887085,-4.725639820098877,-3.666181802749634,6.989373683929443,151.5,-146.10000610351562,-17.100000381469727
1051065,-2.9590132236480713,8.604286193847656,-1.4660484790802002,-4.352161884307861,-2.850627899169922,7.118947982788086,129.90000915527344,-158.10000610351562,-15.300000190734863
1051085,-2.3297669887542725,7.43970251083374,-1.3954675197601318,-4.336917877197266,-5.762231826782227,6.311016082763672,120.30000305175781,-150.90000915527344,-19.5
1051145,0.0735715851187706,5.487363815307617,0.5299546718597412,-4.375028133392334,-7.835415840148926,4.184477806091309,117.9000015258789,-167.70001220703125,-20.100000381469727
1051169,-0.23207947611808777,2.5923516750335693,-0.016748003661632538,-0.9375059604644775,-5.777475833892822,1.0061039924621582,98.70000457763672,-167.70001220703125,-18.30000114440918
1051189,0.7955301403999329,2.4840877056121826,-1.0347872972488403,1.5701320171356201,-7.507669925689697,4.900945663452148,98.70000457763672,-165.3000030517578,-15.90000057220459
1051209,1.2614835500717163,4.355677127838135,0.08314187079668045,0.04573199898004532,-10.213479995727539,7.164680004119873,110.70000457763672,-172.5,-24.900001525878906
1051232,1.3422328233718872,3.827516794204712,-0.5610581040382385,0.8231759667396545,-6.082355976104736,4.10825777053833,91.5,-167.70001220703125,-16.5
1051252,1.8189527988433838,3.502725124359131,-1.0018894672393799,1.425313949584961,-7.46193790435791,4.314052104949951,98.70000457763672,-160.5,-21.30000114440918
1051292,3.3603672981262207,4.618261814117432,-0.03828115016222,0.3201240003108978,-7.538157939910889,4.580821990966797,81.9000015258789,-186.90000915527344,-27.30000114440918
1051502,2.7496633529663086,8.662904739379883,-4.22767448425293,1.4329359531402588,0.060975998640060425,-2.0579400062561035,60.30000305175781,-174.90000915527344,-23.700000762939453
1051523,2.393170118331909,8.807655334472656,-3.4829864501953125,0.23628199100494385,-1.5472660064697266,-0.8460419774055481,74.70000457763672,-184.5,-16.5
1051565,2.22389554977417,8.84174919128418,-3.281412363052368,-0.02286599949002266,0.4878079891204834,-0.6097599864006042,79.5,-172.5,-17.700000762939453
1051585,2.0606024265289307,8.807655334472656,-3.0146405696868896,-0.228659987449646,0.04573199898004532,-0.6783579587936401,74.70000457763672,-165.3000030517578,-24.900001525878906
1051607,2.0827338695526123,8.87165641784668,-2.6778860092163086,-0.4878079891204834,0.2439039945602417,-0.6707359552383423,72.30000305175781,-160.5,-22.5
1051627,2.023517608642578,9.158764839172363,-2.629436492919922,-0.2972579896450043,1.5396440029144287,-0.8231759667396545,74.70000457763672,-172.5,-21.30000114440918
1051647,1.8500561714172363,8.890198707580566,-2.858525276184082,-0.2134159952402115,2.4161739349365234,-1.4939119815826416,77.10000610351562,-186.90000915527344,-23.100000381469727
1051667,1.525862693786621,8.619239807128906,-2.8991990089416504,0.20579399168491364,2.027451992034912,-1.3795819282531738,77.10000610351562,-179.70001220703125,-16.5
1051687,1.5964435338974,8.93446159362793,-2.6970267295837402,0.2743920087814331,1.7378159761428833,-0.7012239694595337,81.9000015258789,-165.3000030517578,-17.700000762939453
1051710,1.2949795722961426,9.03794002532959,-2.43803071975708,0.114329993724823,2.0122079849243164,-1.3795819282531738,79.5,-167.70001220703125,-21.900001525878906
1051730,1.5031332969665527,9.318469047546387,-2.5319392681121826,0.15243999660015106,2.187514066696167,-0.7621999979019165,81.9000015258789,-182.10000610351562,-21.30000114440918
1051750,1.326681137084961,9.23233699798584,-2.3853940963745117,-0.4420759975910187,2.03507399559021,-1.2652519941329956,84.30000305175781,-177.3000030517578,-21.30000114440918
1051793,1.0503391027450562,9.354357719421387,-2.515789270401001,0.20579399168491364,1.9131219387054443,-0.5945159792900085,79.5,-170.10000610351562,-15.300000190734863
1051815,0.9139624834060669,9.69350528717041,-2.220306634902954,-0.6402480006217957,0.9832379817962646,-0.6783579587936401,84.30000305175781,-162.90000915527344,-17.100000381469727
1051835,0.7195659875869751,9.59182071685791,-2.304046630859375,-0.44969800114631653,0.7240899801254272,-0.967993974685669,84.30000305175781,-172.5,-21.30000114440918
1051855,0.7357158660888672,9.26822566986084,-2.48289155960083,-0.04573199898004532,-0.7698220014572144,-0.5259180068969727,84.30000305175781,-167.70001220703125,-20.100000381469727
1051939,0.9546361565589905,8.197549819946289,-0.9654027819633484,-1.2804960012435913,-6.913153648376465,1.8521459102630615,81.9000015258789,-162.90000915527344,-22.5
1051985,0.9504491686820984,7.181304454803467,0.3929799199104309,-3.003067970275879,-8.498529434204102,1.3490939140319824,77.10000610351562,-174.90000915527344,-20.700000762939453
1052026,0.4916735291481018,4.23066520690918,-0.49645867943763733,-1.242385983467102,-11.372023582458496,-0.2591480016708374,91.5,-167.70001220703125,-22.5
1052046,1.402645230293274,4.572803020477295,0.4252796471118927,-0.9070180058479309,-15.297353744506836,1.1280559301376343,91.5,-165.3000030517578,-24.30000114440918
1052069,2.5349299907684326,4.533923625946045,0.5544785261154175,-0.7317119836807251,-14.062589645385742,-0.2896359860897064,77.10000610351562,-170.10000610351562,-26.700000762939453
1052089,2.483489513397217,3.725832462310791,-0.10766573250293732,-0.7621999979019165,-12.538189888000488,-1.2271419763565063,86.70000457763672,-167.70001220703125,-25.500001907348633
1052109,2.41410493850708,3.4560701847076416,-0.8439797163009644,0.02286599949002266,-11.821722030639648,-1.9436099529266357,96.30000305175781,-179.70001220703125,-23.700000762939453
1052129,2.4781062602996826,2.8154590129852295,-1.3063442707061768,0.9984819889068604,-10.914703369140625,-2.6143460273742676,77.10000610351562,-177.3000030517578,-21.900001525878906
1052150,2.841179132461548,4.091896057128906,-1.7776808738708496,1.2576299905776978,-9.801891326904297,-1.5929979085922241,84.30000305175781,-165.3000030517578,-23.700000762939453
1052170,3.0182294845581055,5.365940570831299,-2.1981754302978516,0.9832379817962646,-7.347607612609863,-2.385685920715332,77.10000610351562,-165.3000030517578,-23.700000762939453
1052191,2.23884916305542,5.613571643829346,-2.8483567237854004,0.5182960033416748,-3.567095994949341,-4.085391998291016,86.70000457763672,-177.3000030517578,-27.900001525878906
1052211,1.4839926958084106,6.298445701599121,-4.083521842956543,0.8841519951820374,-0.1600620001554489,-4.710395812988281,98.70000457763672,-170.10000610351562,-25.500001907348633
1052231,1.2435392141342163,6.340913772583008,-4.675683498382568,-0.41158798336982727,-1.4634239673614502,-5.678390026092529,110.70000457763672,-162.90000915527344,-20.100000381469727
1052251,0.9689916372299194,6.501215934753418,-4.375415802001953,-0.3582339882850647,-1.806414008140564,-5.7698540687561035,103.50000762939453,-162.90000915527344,-28.500001907348633
1052272,0.5455064177513123,7.7064738273620605,-4.312012672424316,1.1661659479141235,1.5091559886932373,-5.579303741455078,108.30000305175781,-162.90000915527344,-26.700000762939453
1052292,0.5837875604629517,9.665990829467773,-5.432932376861572,2.6295900344848633,7.660109996795654,-4.740883827209473,110.70000457763672,-172.5,-24.30000114440918
1052375,1.2614835500717163,14.463695526123047,-8.938648223876953,0.4725639820098877,12.827825546264648,-3.353679895401001,127.50000762939453,-153.3000030517578,-20.100000381469727
1052464,-0.36127835512161255,14.84231948852539,-7.998965740203857,-0.9070180058479309,13.818685531616211,-3.414655923843384,132.3000030517578,-160.5,-15.90000057220459
1052484,-0.709397554397583,14.174792289733887,-8.70836353302002,0.33536797761917114,14.618995666503906,-6.364369869232178,139.5,-153.3000030517578,-12.90000057220459
1052524,-1.8034011125564575,14.124547958374023,-8.073135375976562,-1.524399995803833,11.623549461364746,-3.620450019836426,156.3000030517578,-148.5,-12.90000057220459
1052544,-1.696333408355713,15.1461763381958,-6.967767238616943,-2.446661949157715,10.525981903076172,-5.640279769897461,158.70001220703125,-150.90000915527344,-13.500000953674316
1052568,-3.5212676525115967,12.891775131225586,-6.209920406341553,-1.0518360137939453,12.027515411376953,-7.789683818817139,161.10000610351562,-148.5,-13.500000953674316
1052588,-3.5906522274017334,13.53059196472168,-6.808063507080078,-0.015243999660015106,14.96198558807373,-3.445143938064575,156.3000030517578,-148.5,-16.5
1052608,-3.2766273021698,14.232213973999023,-6.803277969360352,-1.4558019638061523,12.134223937988281,-3.041177988052368,156.3000030517578,-136.5,-14.700000762939453
1052629,-4.229468822479248,13.660388946533203,-5.8498382568359375,-1.6920839548110962,8.734811782836914,-3.109776020050049,156.3000030517578,-122.10000610351562,-18.30000114440918
1052651,-4.788732528686523,13.873926162719727,-5.175731182098389,-2.439039945602417,9.550365447998047,-1.935987949371338,158.70001220703125,-136.5,-8.700000762939453
1052671,-4.46573543548584,12.9450101852417,-5.146421909332275,-1.295740008354187,10.449761390686035,-1.3872039318084717,153.90000915527344,-136.5,-8.700000762939453
1052691,-5.217601299285889,13.326026916503906,-4.595532417297363,-2.545747995376587,8.544261932373047,1.2500079870224,153.90000915527344,-129.3000030517578,-8.700000762939453
1052711,-5.3282575607299805,13.553321838378906,-4.592541694641113,-2.4771499633789062,9.550365447998047,1.8597679138183594,153.90000915527344,-136.5,-9.300000190734863
1052731,-5.034569263458252,13.235109329223633,-5.149412631988525,-1.3490939140319824,8.666213989257812,1.5091559886932373,151.5,-155.70001220703125,-8.100000381469727
1052754,-4.980138301849365,12.77453899383545,-4.585962295532227,-3.3231918811798096,1.2576299905776978,2.179892063140869,149.10000610351562,-141.3000030517578,-8.100000381469727
1052777,-4.401734352111816,12.947402954101562,-3.4925568103790283,-4.588443756103516,-2.0655620098114014,3.910085916519165,158.70001220703125,-150.90000915527344,-8.700000762939453
1052797,-4.23066520690918,12.497000694274902,-2.3291687965393066,-5.762231826782227,-3.8795979022979736,3.0640439987182617,137.10000610351562,-141.3000030517578,-20.100000381469727
1052817,-4.138551235198975,10.496810913085938,-1.7926344871520996,-5.198204040527344,-3.4298999309539795,1.2195199728012085,141.90000915527344,-150.90000915527344,-20.700000762939453
1052837,-3.669607162475586,8.159866333007812,-1.1980804204940796,-4.557955741882324,-6.112843990325928,1.4024479389190674,139.5,-146.10000610351562,-15.300000190734863
1052857,-3.0421552658081055,7.042535305023193,0.3367545008659363,-5.297289848327637,-8.376577377319336,4.275941848754883,137.10000610351562,-162.90000915527344,-13.500000953674316
1052877,-2.0217232704162598,7.5072922706604,0.9863377809524536,-3.96343994140625,-4.557955741882324,6.089977741241455,134.70001220703125,-155.70001220703125,-20.100000381469727
1052937,-0.24344418942928314,5.030980587005615,-0.23148132860660553,-2.2713558673858643,-9.4970121383667,4.740883827209473,110.70000457763672,-153.3000030517578,-16.5
1052957,0.7608378529548645,5.056700706481934,0.5855819582939148,-2.7591638565063477,-9.52750015258789,5.929915904998779,122.70000457763672,-160.5,-14.100000381469727
1052977,0.8559426069259644,4.28150749206543,0.22191104292869568,-2.6295900344848633,-6.836933612823486,5.198204040527344,113.10000610351562,-162.90000915527344,-11.100000381469727
1052997,1.5677326917648315,3.8669943809509277,-0.5514878034591675,-1.013725996017456,-6.74547004699707,5.7164998054504395,108.30000305175781,-177.3000030517578,-24.30000114440918
1053081,2.924320936203003,4.727123737335205,-0.805698573589325,0.7240899801254272,-5.625035762786865,4.451247692108154,91.5,-162.90000915527344,-22.5
1053120,3.3394322395324707,5.871969699859619,-1.1364716291427612,0.8917739987373352,-4.2988080978393555,3.3308138847351074,93.9000015258789,-177.3000030517578,-20.100000381469727
1053142,4.0105485916137695,6.485664367675781,-1.5707234144210815,1.371959924697876,-2.134160041809082,2.690565824508667,84.30000305175781,-160.5,-25.500001907348633
1053224,3.4321444034576416,8.740663528442383,-3.4321444034576416,-0.4420759975910187,-0.3734779953956604,1.3948259353637695,77.10000610351562,-167.70001220703125,-23.100000381469727
1053264,3.004472255706787,8.764589309692383,-3.3077306747436523,-0.914639949798584,0.06859800219535828,-0.05335399881005287,79.5,-174.90000915527344,-20.700000762939453
1053326,2.7676074504852295,9.508678436279297,-2.5032284259796143,-0.5792719721794128,-0.1600620001554489,0.1448179930448532,79.5,-172.5,-23.100000381469727
1053366,2.2735414505004883,8.68742847442627,-2.665325164794922,0.02286599949002266,1.4939119815826416,-1.7911700010299683,72.30000305175781,-170.10000610351562,-21.900001525878906
1053387,1.9415720701217651,8.61684799194336,-2.4870784282684326,0.33536797761917114,1.5853760242462158,-1.600619912147522,74.70000457763672,-182.10000610351562,-22.5
1053427,1.24294114112854,8.879432678222656,-2.616875410079956,0.09146399796009064,1.6082419157028198,-1.2500079870224,74.70000457763672,-170.10000610351562,-16.5
1053470,1.3518030643463135,9.515856742858887,-2.6485769748687744,0.2134159952402115,1.5929979085922241,-1.3033620119094849,84.30000305175781,-172.5,-21.900001525878906
1053490,1.1346771717071533,9.156970977783203,-2.6360161304473877,-0.1295740008354187,1.1509219408035278,-1.5701320171356201,84.30000305175781,-174.90000915527344,-17.100000381469727
1053510,1.0168430805206299,9.13962459564209,-2.3351502418518066,-0.41158798336982727,0.4878079891204834,-1.2347639799118042,86.70000457763672,-170.10000610351562,-23.100000381469727
1053551,0.7488750219345093,10.540475845336914,-1.7591384649276733,-1.2118979692459106,0.6097599864006042,-1.4481799602508545,86.70000457763672,-170.10000610351562,-20.700000762939453
1053571,0.14235801994800568,10.127159118652344,-1.5659383535385132,-1.5701320171356201,-0.015243999660015106,-2.4161739349365234,74.70000457763672,-158.10000610351562,-27.900001525878906
1053591,-0.4444202184677124,8.77715015411377,-1.0772554874420166,-1.5320219993591309,-2.0655620098114014,-2.6600780487060547,81.9000015258789,-174.90000915527344,-17.700000762939453
1053611,-0.7560527324676514,7.888309478759766,-0.11424531042575836,-1.425313949584961,-4.146368026733398,-1.3795819282531738,98.70000457763672,-167.70001220703125,-21.30000114440918
1053651,-1.0365817546844482,7.003057956695557,0.4264759421348572,-0.800309956073761,-5.7164998054504395,0.4192099869251251,81.9000015258789,-177.3000030517578,-16.5
1053711,0.21951846778392792,6.425849914550781,0.36307278275489807,0.9527499675750732,-14.054967880249023,0.9603719711303711,89.10000610351562,-174.90000915527344,-19.5
1053731,0.5024400949478149,4.943053722381592,0.8433815836906433,0.5945159792900085,-15.823271751403809,0.4344539940357208,86.70000457763672,-174.90000915527344,-23.700000762939453
1053751,1.4642540216445923,4.425659656524658,0.9432714581489563,1.1661659479141235,-16.227237701416016,1.8216580152511597,101.10000610351562,-174.90000915527344,-21.30000114440918
1053795,1.6610430479049683,3.230570077896118,0.9378882050514221,-0.3048799932003021,-12.957399368286133,0.7012239694595337,96.30000305175781,-160.5,-20.700000762939453
1053815,2.121613025665283,3.594241142272949,-0.4815050959587097,1.8521459102630615,-10.983302116394043,1.14329993724823,98.70000457763672,-182.10000610351562,-26.100000381469727
1053835,2.918339490890503,6.450972080230713,-0.9432714581489563,1.8902559280395508,-11.013790130615234,2.3704419136047363,79.5,-165.3000030517578,-26.700000762939453
1053855,1.9954049587249756,6.266744136810303,-2.077948570251465,0.228659987449646,-5.4649739265441895,-2.0655620098114014,96.30000305175781,-177.3000030517578,-28.500001907348633
1053920,2.40812349319458,11.214582443237305,-6.2194905281066895,3.2622158527374268,2.789651870727539,0.04573199898004532,93.9000015258789,-165.3000030517578,-22.5
1053960,0.20576117932796478,6.3893632888793945,-6.343306064605713,2.5686140060424805,-1.8521459102630615,-7.240900039672852,105.9000015258789,-160.5,-20.100000381469727
1053980,0.7267436981201172,8.26513957977295,-5.895895481109619,2.0122079849243164,1.2804960012435913,-2.179892063140869,110.70000457763672,-160.5,-22.5
1054023,1.2202116250991821,11.626703262329102,-8.393141746520996,4.839970111846924,6.562541961669922,-4.496979713439941,110.70000457763672,-172.5,-20.700000762939453
1054046,0.3146232068538666,10.04999828338623,-8.350075721740723,2.652456045150757,3.6356940269470215,-6.250040054321289,103.50000762939453,-158.10000610351562,-20.700000762939453
1054066,0.18721875548362732,9.760497093200684,-8.274709701538086,2.987823963165283,5.564059734344482,-5.297289848327637,122.70000457763672,-158.10000610351562,-21.900001525878906
1054086,1.716670274734497,11.939532279968262,-9.027771949768066,3.4680099487304688,7.477181911468506,-1.806414008140564,122.70000457763672,-160.5,-17.100000381469727
1054146,0.8571388721466064,10.512960433959961,-7.866178035736084,-2.0655620098114014,4.504601955413818,-6.311016082763672,117.9000015258789,-153.3000030517578,-14.700000762939453
1054261,-0.9438695907592773,12.531693458557129,-6.538898944854736,-2.6295900344848633,9.900978088378906,-4.634175777435303,127.50000762939453,-150.90000915527344,-14.700000762939453
1054281,-1.2788296937942505,11.798968315124512,-6.595722675323486,-2.0579400062561035,13.445207595825195,-5.663146018981934,139.5,-150.90000915527344,-10.5
1054322,-1.7836623191833496,14.554015159606934,-7.553349494934082,-2.0122079849243164,11.936051368713379,-2.8277618885040283,132.3000030517578,-150.90000915527344,-12.300000190734863
1054365,-3.9949967861175537,13.324233055114746,-6.843353748321533,-1.524399995803833,14.740947723388672,-4.306429862976074,158.70001220703125,-150.90000915527344,-3.3000001907348633
1054385,-3.690542221069336,13.980395317077637,-7.824308395385742,-1.4481799602508545,11.631172180175781,-1.577754020690918,132.3000030517578,-146.10000610351562,-11.100000381469727
1054406,-3.857424020767212,14.356029510498047,-6.622639179229736,-4.67990779876709,6.112843990325928,-1.067080020904541,139.5,-150.90000915527344,-14.100000381469727
1054448,-4.017726421356201,12.490421295166016,-6.636396408081055,-2.896359920501709,6.699738025665283,2.5076379776000977,149.10000610351562,-146.10000610351562,-5.100000381469727
1054490,-3.264066219329834,11.677545547485352,-3.883742332458496,-5.525949954986572,-1.8902559280395508,2.583858013153076,137.10000610351562,-153.3000030517578,-10.5
1054560,-2.45597505569458,6.588544845581055,-2.121613025665283,-4.253076076507568,-4.8018598556518555,2.6600780487060547,134.70001220703125,-162.90000915527344,-14.700000762939453
1054603,-1.2878018617630005,6.092086315155029,0.10467501729726791,-4.718018054962158,0.9222619533538818,1.7987920045852661,122.70000457763672,-162.90000915527344,-16.5
1054682,0.503038227558136,4.694226264953613,0.5024400949478149,-2.2484898567199707,-3.8262438774108887,4.268320083618164,113.10000610351562,-160.5,-22.5
1054702,0.4695422351360321,4.87307071685791,0.5873764157295227,-2.39330792427063,-3.5823400020599365,4.199721813201904,110.70000457763672,-160.5,-22.5
1054744,1.2656705379486084,5.481382369995117,0.2601921856403351,-1.7225719690322876,-2.9192259311676025,3.3308138847351074,96.30000305175781,-165.3000030517578,-20.700000762939453
1054764,1.5599569082260132,5.624338150024414,-0.05383286625146866,-1.1051899194717407,-3.155508041381836,2.9802019596099854,103.50000762939453,-160.5,-22.5
1054784,1.9032909870147705,6.024496078491211,-0.2326776087284088,-0.853663980960846,-3.658559799194336,2.8201398849487305,93.9000015258789,-170.10000610351562,-20.100000381469727
1054804,2.112640857696533,5.9216156005859375,-0.2709587514400482,-0.46494197845458984,-3.5213639736175537,2.4695279598236084,89.10000610351562,-162.90000915527344,-26.700000762939453
1054866,2.9009933471679688,7.583854675292969,-0.2853142023086548,-0.38109999895095825,-2.0198299884796143,2.2180018424987793,98.70000457763672,-170.10000610351562,-27.30000114440918
1054886,2.653362274169922,7.6029953956604,-0.5849838256835938,-0.4344539940357208,-0.5564059615135193,1.524399995803833,74.70000457763672,-162.90000915527344,-26.700000762939453
1054906,2.9410688877105713,8.59591293334961,-1.0814424753189087,0.510673999786377,0.5259180068969727,1.9893419742584229,84.30000305175781,-162.90000915527344,-26.700000762939453
1054928,2.9733686447143555,9.73537540435791,-1.415804386138916,0.5411620140075684,1.0747020244598389,1.3262280225753784,91.5,-177.3000030517578,-17.700000762939453
1054990,2.42606782913208,9.03016471862793,-2.6838674545288086,1.7149499654769897,-0.5259180068969727,0.5564059615135193,93.9000015258789,-174.90000915527344,-17.700000762939453
1055010,2.4966487884521484,9.86457347869873,-1.6825761795043945,0.7012239694595337,-1.2804960012435913,0.6478700041770935,77.10000610351562,-184.5,-25.500001907348633
1055052,2.0970892906188965,9.489538192749023,-2.5229671001434326,0.6707359552383423,0.2591480016708374,-0.6173819899559021,96.30000305175781,-179.70001220703125,-26.100000381469727
1055072,1.4403282403945923,8.348281860351562,-2.304046630859375,0.7164679765701294,-0.10670799762010574,-1.1585439443588257,81.9000015258789,-167.70001220703125,-21.900001525878906
1055094,1.6532671451568604,8.085098266601562,-2.4996395111083984,0.967993974685669,-0.5868939757347107,-0.22103799879550934,84.30000305175781,-167.70001220703125,-11.100000381469727
1055134,1.9337961673736572,9.47518253326416,-2.540313243865967,0.7317119836807251,-0.18292799592018127,-0.060975998640060425,93.9000015258789,-160.5,-15.300000190734863
1055185,2.7191579341888428,9.281384468078613,-2.057013750076294,0.25152599811553955,-1.013725996017456,-0.457319974899292,86.70000457763672,-177.3000030517578,-17.700000762939453
1055220,2.7532520294189453,8.975733757019043,-1.8859448432922363,0.13719600439071655,-0.26677000522613525,-1.021347999572754,81.9000015258789,-167.70001220703125,-18.900001525878906
1055283,2.668315887451172,9.965062141418457,-2.241241693496704,0.7926880121231079,-1.3262280225753784,-1.5853760242462158,96.30000305175781,-170.10000610351562,-18.900001525878906
1055422,0.33615633845329285,9.404004096984863,-2.875871419906616,0.6783579587936401,-2.682943820953369,-0.7088459730148315,98.70000457763672,-162.90000915527344,-25.500001907348633
1055479,-0.7530620098114014,8.164651870727539,-2.7436819076538086,0.6250039935112,-1.9588539600372314,-1.5091559886932373,101.10000610351562,-177.3000030517578,-21.900001525878906
1055525,-0.7949320077896118,9.24429988861084,-2.8447680473327637,0.6478700041770935,-2.4161739349365234,0.7545779943466187,110.70000457763672,-162.90000915527344,-13.500000953674316
1055546,-0.45578494668006897,10.09964370727539,-2.8214404582977295,0.3734779953956604,-1.7759259939193726,-0.015243999660015106,103.50000762939453,-160.5,-19.5
1055586,-0.8350076079368591,7.503105640411377,-2.5953423976898193,-0.3048799932003021,-0.9984819889068604,-1.7378159761428833,108.30000305175781,-162.90000915527344,-24.900001525878906
1055629,0.3367545008659363,8.167642593383789,-2.7891407012939453,0.3887220025062561,0.09908600151538849,0.2591480016708374,96.30000305175781,-150.90000915527344,-24.30000114440918
1055649,0.5138047933578491,8.833374977111816,-2.589959144592285,0.13719600439071655,0.5182960033416748,-0.5868939757347107,101.10000610351562,-172.5,-17.700000762939453
1055689,1.1986784934997559,9.361536026000977,-3.299954891204834,0.4039659798145294,2.3551979064941406,-2.088428020477295,105.9000015258789,-165.3000030517578,-20.100000381469727
1055733,1.2578946352005005,9.661205291748047,-3.072660446166992,0.1295740008354187,2.2561118602752686,-1.471045970916748,117.9000015258789,-167.70001220703125,-20.700000762939453
1055763,1.1603974103927612,9.99915599822998,-3.461453437805176,0.030487999320030212,3.551851987838745,-1.2804960012435913,115.50000762939453,-162.90000915527344,-17.100000381469727
1055783,0.8284280300140381,9.486547470092773,-3.6558499336242676,-0.19817200303077698,3.650938034057617,-1.7149499654769897,103.50000762939453,-160.5,-14.700000762939453
1055824,0.6465925574302673,9.42852783203125,-3.5182769298553467,0.26677000522613525,2.4542839527130127,-1.0061039924621582,127.50000762939453,-165.3000030517578,-19.5
1055844,0.42886850237846375,9.554137229919434,-3.708486318588257,0.4344539940357208,2.591480016708374,-0.5640279650688171,113.10000610351562,-165.3000030517578,-21.900001525878906
1055864,-0.07895487546920776,9.391443252563477,-3.6313259601593018,0.038109999150037766,2.324709892272949,-0.457319974899292,108.30000305175781,-162.90000915527344,-20.700000762939453
