time,sensor_accX[g],sensor_accY[g],sensor_accZ[g],sensor_gyroX[°/s],sensor_gyroY[°/s],sensor_gyroZ[°/s],sensor_magX[µT],sensor_magY[µT],sensor_magZ[µT]
1350758,-3.693532943725586,7.824308395385742,-4.565625190734863,-0.20579399168491364,0.3048799932003021,-0.23628199100494385,261.9000244140625,-81.30000305175781,-9.300000190734863
1350779,-3.645681381225586,7.927786827087402,-4.491455554962158,-0.10670799762010574,0.3125019967556,-0.28201398253440857,242.70001220703125,-71.70000457763672,-10.5
1350799,-3.481192111968994,7.7429609298706055,-4.307825565338135,-0.28201398253440857,0.457319974899292,-0.2972579896450043,252.3000030517578,-81.30000305175781,-11.100000381469727
1350821,-3.5332305431365967,7.7453532218933105,-4.289283275604248,-0.38109999895095825,0.7926880121231079,-0.12195199728012085,259.5,-81.30000305175781,-7.500000476837158
1350841,-3.5254547595977783,7.720231533050537,-4.304834842681885,-0.3201240003108978,0.8689079880714417,-0.12195199728012085,257.1000061035156,-71.70000457763672,-10.5
1350861,-3.473416328430176,7.752531051635742,-4.241431713104248,-0.16768398880958557,0.7926880121231079,-0.030487999320030212,254.70001220703125,-76.5,-12.90000057220459
1350885,-3.5128936767578125,7.687931537628174,-4.350892066955566,-0.2591480016708374,0.8307979702949524,-0.060975998640060425,254.70001220703125,-81.30000305175781,-10.5
1350905,-3.5164825916290283,7.8051676750183105,-4.366443634033203,-0.07621999830007553,0.6021379828453064,0.09146399796009064,247.50001525878906,-76.5,-9.300000190734863
1350925,-3.5164825916290283,7.7842326164245605,-4.333545684814453,-0.20579399168491364,0.4725639820098877,0.09146399796009064,252.3000030517578,-81.30000305175781,-4.5
1350945,-3.624746322631836,7.806962013244629,-4.410706043243408,-0.3734779953956604,0.3734779953956604,0.12195199728012085,249.90000915527344,-78.9000015258789,-9.300000190734863
1350965,-3.6504664421081543,7.723820209503174,-4.472314834594727,-0.4039659798145294,0.17530599236488342,0.09908600151538849,257.1000061035156,-81.30000305175781,-6.300000190734863
1350987,-3.4213778972625732,7.837467193603516,-4.404725074768066,-0.26677000522613525,0.007621999830007553,0.13719600439071655,242.70001220703125,-88.5,-7.500000476837158
1351010,-3.567922830581665,7.616154670715332,-4.219898700714111,-0.46494197845458984,0.06859800219535828,0.342989981174469,257.1000061035156,-74.10000610351562,-11.100000381469727
1351030,-3.508706569671631,7.7339887619018555,-4.294666767120361,-0.5945159792900085,0.20579399168491364,0.4344539940357208,240.3000030517578,-78.9000015258789,-12.90000057220459
1351050,-3.499136447906494,7.723222255706787,-4.240235328674316,-0.3887220025062561,0.20579399168491364,0.44969800114631653,252.3000030517578,-88.5,-8.100000381469727
1351070,-3.603213310241699,7.7124552726745605,-4.274329662322998,-0.5411620140075684,0.35061198472976685,0.23628199100494385,240.3000030517578,-76.5,-6.900000095367432
1351090,-3.481192111968994,7.824308395385742,-4.253993034362793,-0.28201398253440857,0.1600620001554489,0.22103799879550934,249.90000915527344,-69.30000305175781,-14.700000762939453
1351112,-3.5786893367767334,7.583256721496582,-4.300049781799316,-0.5792719721794128,0.18292799592018127,0,252.3000030517578,-83.70000457763672,-8.100000381469727
1351132,-3.67199969291687,7.580265998840332,-4.406519412994385,-0.3125019967556,0.04573199898004532,0.17530599236488342,240.3000030517578,-71.70000457763672,-3.9000000953674316
1351152,-3.546987771987915,7.967264175415039,-4.3383307456970215,0.1295740008354187,-0.1600620001554489,0.10670799762010574,257.1000061035156,-90.9000015258789,-12.90000057220459
1351172,-3.591250419616699,7.7040815353393555,-4.442408084869385,-0.4039659798145294,-0.07621999830007553,-0.2743920087814331,259.5,-74.10000610351562,-5.100000381469727
1351193,-3.5727078914642334,7.7932047843933105,-4.397547245025635,-0.05335399881005287,-0.2134159952402115,-0.1600620001554489,252.3000030517578,-71.70000457763672,-8.700000762939453
1351213,-3.4853789806365967,7.885916709899902,-4.276722431182861,-0.228659987449646,-0.1600620001554489,-0.1600620001554489,247.50001525878906,-74.10000610351562,-9.300000190734863
1351233,-3.49973464012146,7.652641296386719,-4.238440990447998,-0.5182960033416748,0.1448179930448532,-0.1600620001554489,257.1000061035156,-78.9000015258789,-13.500000953674316
1351253,-3.523061990737915,7.679557800292969,-4.199561595916748,-0.39634400606155396,0.15243999660015106,-0.05335399881005287,254.70001220703125,-86.10000610351562,-3.9000000953674316
1351273,-3.5661284923553467,7.649650573730469,-4.239039421081543,-0.39634400606155396,0.17530599236488342,0.1295740008354187,242.70001220703125,-81.30000305175781,-0.30000001192092896
1351293,-3.597231864929199,7.677762985229492,-4.300049781799316,-0.3887220025062561,0.12195199728012085,0.342989981174469,247.50001525878906,-86.10000610351562,-11.100000381469727
1351313,-3.6534571647644043,7.797391891479492,-4.380799293518066,-0.19054999947547913,-0.114329993724823,0.41158798336982727,240.3000030517578,-76.5,-7.500000476837158
1351333,-3.5392119884490967,7.792606830596924,-4.319190502166748,-0.17530599236488342,-0.3887220025062561,0.3582339882850647,254.70001220703125,-81.30000305175781,-11.700000762939453
1351353,-3.559548854827881,7.786026954650879,-4.3413214683532715,-0.20579399168491364,-0.3887220025062561,0.342989981174469,245.10000610351562,-76.5,-6.900000095367432
1351374,-3.45487380027771,7.809354782104492,-4.247413158416748,-0.13719600439071655,-0.44969800114631653,0.41158798336982727,252.3000030517578,-76.5,-12.300000190734863
1351394,-3.439321994781494,7.838663578033447,-4.298255443572998,-0.25152599811553955,-0.33536797761917114,0.3734779953956604,245.10000610351562,-95.70000457763672,-13.500000953674316
1351414,-3.4560701847076416,7.774064064025879,-4.322779178619385,-0.228659987449646,-0.2743920087814331,0.28201398253440857,240.3000030517578,-83.70000457763672,-9.300000190734863
1351434,-3.41599440574646,7.713651657104492,-4.282105445861816,-0.114329993724823,-0.3201240003108978,0.342989981174469,249.90000915527344,-88.5,-17.100000381469727
1351454,-3.3824985027313232,7.7250165939331055,-4.255787372589111,-0.12195199728012085,-0.26677000522613525,0.4039659798145294,247.50001525878906,-88.5,-9.300000190734863
1351474,-3.3824985027313232,7.832682132720947,-4.282105445861816,-0.19817200303077698,-0.19817200303077698,0.4192099869251251,237.90000915527344,-86.10000610351562,-9.90000057220459
1351534,-3.630727767944336,7.508488655090332,-4.39694881439209,-0.4878079891204834,-0.23628199100494385,-0.02286599949002266,242.70001220703125,-88.5,-12.90000057220459
1351554,-3.5284454822540283,7.875150203704834,-4.480090618133545,0.114329993724823,-0.5411620140075684,0.2896359860897064,259.5,-76.5,-8.100000381469727
1351577,-3.5284454822540283,7.918814659118652,-4.377808570861816,0.06859800219535828,-0.5335400104522705,0.10670799762010574,247.50001525878906,-78.9000015258789,-9.300000190734863
1351597,-3.5194733142852783,7.918814659118652,-4.40592098236084,-0.09146399796009064,-0.3734779953956604,0.07621999830007553,252.3000030517578,-86.10000610351562,-10.5
1351617,-3.431546211242676,7.976834774017334,-4.310218334197998,0.02286599949002266,-0.2896359860897064,0.08384199440479279,249.90000915527344,-83.70000457763672,-6.900000095367432
1351639,-3.4273593425750732,7.827897071838379,-4.271338939666748,-0.3734779953956604,-0.05335399881005287,0.09146399796009064,249.90000915527344,-90.9000015258789,-6.300000190734863
1351659,-3.4261629581451416,7.622136116027832,-4.209132194519043,-0.41158798336982727,0.114329993724823,0.2134159952402115,235.50001525878906,-86.10000610351562,-7.500000476837158
1351679,-3.3932650089263916,7.7638959884643555,-4.180421352386475,-0.33536797761917114,0.12195199728012085,0.4420759975910187,242.70001220703125,-95.70000457763672,-6.300000190734863
1351699,-3.3454136848449707,7.669389247894287,-4.148719787597656,-0.4192099869251251,0.09146399796009064,0.426831990480423,252.3000030517578,-83.70000457763672,-12.300000190734863
1351719,-3.46982741355896,7.756119728088379,-4.288086891174316,-0.2591480016708374,0.02286599949002266,0.3582339882850647,237.90000915527344,-78.9000015258789,-8.100000381469727
1351742,-3.4297518730163574,7.7722697257995605,-4.276124000549316,-0.114329993724823,-0.2972579896450043,0.1600620001554489,254.70001220703125,-90.9000015258789,-10.5
1351762,-3.4201815128326416,7.8081583976745605,-4.277918338775635,-0.10670799762010574,-0.39634400606155396,0.12195199728012085,242.70001220703125,-86.10000610351562,-11.100000381469727
1351782,-3.3675448894500732,7.857205867767334,-4.28748893737793,-0.09908600151538849,-0.4344539940357208,0.038109999150037766,233.10000610351562,-81.30000305175781,-11.100000381469727
1351803,-3.3484044075012207,7.817728519439697,-4.201954364776611,-0.16768398880958557,-0.36585599184036255,-0.015243999660015106,249.90000915527344,-100.50000762939453,-10.5
1351823,-3.404031753540039,7.7519330978393555,-4.253993034362793,-0.3048799932003021,-0.19817200303077698,-0.02286599949002266,237.90000915527344,-88.5,-11.700000762939453
1351843,-3.4321444034576416,7.7638959884643555,-4.277918338775635,-0.17530599236488342,-0.19817200303077698,0.007621999830007553,240.3000030517578,-83.70000457763672,-11.700000762939453
1351867,-3.4112093448638916,7.882925987243652,-4.248011589050293,-0.1448179930448532,-0.1600620001554489,0.030487999320030212,230.70001220703125,-90.9000015258789,-7.500000476837158
1351888,-3.4231722354888916,7.827897071838379,-4.237244606018066,-0.2591480016708374,-0.02286599949002266,-0.06859800219535828,249.90000915527344,-88.5,-1.5
1351908,-3.5212676525115967,7.836869239807129,-4.317994117736816,-0.23628199100494385,0.12195199728012085,-0.114329993724823,247.50001525878906,-83.70000457763672,-6.300000190734863
1351928,-3.48777174949646,7.894888877868652,-4.267151832580566,-0.10670799762010574,0.09908600151538849,-0.10670799762010574,259.5,-90.9000015258789,-14.700000762939453
1351948,-3.47879958152771,7.921805381774902,-4.224085807800293,-0.28201398253440857,0.28201398253440857,-0.17530599236488342,233.10000610351562,-88.5,-16.5
1351968,-3.6265408992767334,7.559330940246582,-4.331153392791748,-0.5945159792900085,0.44969800114631653,-0.16768398880958557,249.90000915527344,-86.10000610351562,-5.100000381469727
1351990,-3.410611152648926,7.982816219329834,-4.251002311706543,0.06859800219535828,0.2134159952402115,0.18292799592018127,237.90000915527344,-81.30000305175781,-12.300000190734863
1352010,-3.431546211242676,7.946329593658447,-4.26954460144043,-0.10670799762010574,0.3048799932003021,0.060975998640060425,252.3000030517578,-93.30000305175781,-9.90000057220459
1352030,-3.398050308227539,7.857205867767334,-4.289283275604248,-0.2134159952402115,0.33536797761917114,0.04573199898004532,252.3000030517578,-81.30000305175781,-7.500000476837158
1352050,-3.3107213973999023,7.914029598236084,-4.258778095245361,-0.3201240003108978,0.28201398253440857,0.030487999320030212,245.10000610351562,-88.5,-13.500000953674316
1352070,-3.2527015209198,7.8231120109558105,-4.174439907073975,-0.39634400606155396,0.2972579896450043,0.05335399881005287,240.3000030517578,-90.9000015258789,-7.500000476837158
1352090,-3.204252004623413,7.817728519439697,-4.15888786315918,-0.41158798336982727,0.342989981174469,0.030487999320030212,235.50001525878906,-81.30000305175781,-15.300000190734863
1352114,-3.2066445350646973,7.767484664916992,-4.184010028839111,-0.36585599184036255,0.2896359860897064,-0.12195199728012085,245.10000610351562,-81.30000305175781,-17.100000381469727
1352134,-3.2538976669311523,7.814737796783447,-4.264759540557861,-0.228659987449646,0.2439039945602417,-0.09146399796009064,242.70001220703125,-83.70000457763672,-9.300000190734863
1352154,-3.1845130920410156,7.930179595947266,-4.259974479675293,-0.114329993724823,0.060975998640060425,-0.10670799762010574,240.3000030517578,-88.5,-10.5
1352178,-3.1647744178771973,7.986404895782471,-4.261768817901611,-0.17530599236488342,0,-0.228659987449646,247.50001525878906,-81.30000305175781,-15.90000057220459
1352199,-3.246121883392334,8.034255981445312,-4.261768817901611,-0.228659987449646,-0.02286599949002266,-0.39634400606155396,245.10000610351562,-78.9000015258789,-5.700000286102295
1352219,-3.3190953731536865,7.909244537353516,-4.292871952056885,-0.26677000522613525,-0.02286599949002266,-0.5564059615135193,247.50001525878906,-83.70000457763672,-6.300000190734863
1352239,-3.314310312271118,7.872159481048584,-4.192982196807861,-0.17530599236488342,-0.030487999320030212,-0.48018598556518555,237.90000915527344,-86.10000610351562,-11.100000381469727
1352259,-3.3573765754699707,7.865580081939697,-4.20075798034668,-0.26677000522613525,0.07621999830007553,-0.39634400606155396,247.50001525878906,-78.9000015258789,-10.5
1352279,-3.4560701847076416,7.8619914054870605,-4.29945182800293,-0.22103799879550934,0.1448179930448532,-0.3125019967556,252.3000030517578,-81.30000305175781,-2.1000001430511475
1352302,-3.4243686199188232,7.848233699798584,-4.229468822479248,-0.12195199728012085,0.07621999830007553,-0.228659987449646,247.50001525878906,-90.9000015258789,-5.700000286102295
1352322,-3.4476959705352783,7.755521774291992,-4.277918338775635,-0.19054999947547913,0.19054999947547913,-0.1295740008354187,252.3000030517578,-90.9000015258789,-10.5
1352362,-3.5314362049102783,7.7429609298706055,-4.30543327331543,-0.28201398253440857,0.2439039945602417,-0.030487999320030212,257.1000061035156,-88.5,-9.300000190734863
1352382,-3.3848910331726074,8.003152847290039,-4.319190502166748,-0.19817200303077698,0.13719600439071655,0.16768398880958557,235.50001525878906,-76.5,-5.700000286102295
1352402,-3.493155002593994,7.696305751800537,-4.329957008361816,-0.3887220025062561,0.23628199100494385,0,233.10000610351562,-86.10000610351562,-9.300000190734863
1352422,-3.4835846424102783,7.875150203704834,-4.412500858306885,-0.1448179930448532,0.12195199728012085,0.3201240003108978,245.10000610351562,-86.10000610351562,-11.700000762939453
1352442,-3.3454136848449707,8.009134292602539,-4.282105445861816,0.030487999320030212,0.08384199440479279,0.25152599811553955,249.90000915527344,-81.30000305175781,-11.700000762939453
1352482,-3.3968539237976074,8.008536338806152,-4.44480037689209,-0.12195199728012085,0.2896359860897064,0.08384199440479279,240.3000030517578,-76.5,-4.5
1352506,-3.249112606048584,7.987003326416016,-4.304236888885498,-0.20579399168491364,0.15243999660015106,0,252.3000030517578,-98.10000610351562,-10.5
1352526,-3.2347571849823,7.800382614135742,-4.24561882019043,-0.38109999895095825,0.23628199100494385,-0.038109999150037766,237.90000915527344,-78.9000015258789,-11.100000381469727
1352546,-3.2120277881622314,7.866178035736084,-4.20374870300293,-0.36585599184036255,0.2439039945602417,0.10670799762010574,233.10000610351562,-93.30000305175781,-11.700000762939453
1352566,-3.27961802482605,7.809354782104492,-4.204945087432861,-0.49542999267578125,0.25152599811553955,0.02286599949002266,249.90000915527344,-98.10000610351562,-3.3000001907348633
1352626,-3.273038387298584,7.881730079650879,-4.239039421081543,-0.26677000522613525,0.030487999320030212,-0.19054999947547913,245.10000610351562,-83.70000457763672,-11.700000762939453
1352646,-3.362161636352539,7.885916709899902,-4.24860954284668,-0.18292799592018127,0.06859800219535828,-0.3048799932003021,237.90000915527344,-86.10000610351562,-8.100000381469727
1352667,-3.356180191040039,7.844645023345947,-4.256385326385498,-0.114329993724823,0.007621999830007553,-0.3734779953956604,240.3000030517578,-90.9000015258789,-11.100000381469727
1352687,-3.3603672981262207,7.823709964752197,-4.246815204620361,-0.114329993724823,0.06859800219535828,-0.2896359860897064,245.10000610351562,-98.10000610351562,-11.700000762939453
1352751,-3.407620429992676,7.780045509338379,-4.26655387878418,-0.12195199728012085,0.08384199440479279,-0.28201398253440857,233.10000610351562,-90.9000015258789,-10.5
1352771,-3.4171907901763916,7.835672855377197,-4.283899784088135,-0.1448179930448532,0.12195199728012085,-0.1600620001554489,237.90000915527344,-90.9000015258789,-10.5
1352791,-3.4770050048828125,7.925992488861084,-4.342517852783203,-0.16768398880958557,0.1295740008354187,-0.09146399796009064,245.10000610351562,-88.5,-9.300000190734863
1352811,-3.5194733142852783,7.842850685119629,-4.403528690338135,-0.2439039945602417,0.030487999320030212,-0.19817200303077698,233.10000610351562,-83.70000457763672,-12.90000057220459
1352831,-3.3107213973999023,7.968460559844971,-4.184010028839111,-0.10670799762010574,-0.17530599236488342,0.015243999660015106,240.3000030517578,-78.9000015258789,-11.100000381469727
1352851,-3.466238498687744,7.689725875854492,-4.28150749206543,-0.6478700041770935,0.05335399881005287,-0.12195199728012085,249.90000915527344,-95.70000457763672,-11.100000381469727
1352871,-3.4829864501953125,7.664604187011719,-4.32636833190918,-0.15243999660015106,-0.06859800219535828,0.08384199440479279,245.10000610351562,-86.10000610351562,-8.100000381469727
1352891,-3.290982723236084,8.012125015258789,-4.191187858581543,0.16768398880958557,-0.09146399796009064,0.09146399796009064,240.3000030517578,-83.70000457763672,-6.300000190734863
1352911,-3.362759828567505,7.879337310791016,-4.28449821472168,-0.22103799879550934,0.15243999660015106,-0.18292799592018127,237.90000915527344,-83.70000457763672,-2.700000047683716
1352932,-3.389676332473755,7.883524417877197,-4.288685321807861,-0.038109999150037766,0.22103799879550934,-0.18292799592018127,237.90000915527344,-95.70000457763672,-4.5
1352952,-3.4082186222076416,7.868570804595947,-4.313209056854248,-0.22103799879550934,0.2439039945602417,-0.16768398880958557,240.3000030517578,-90.9000015258789,-4.5
1352972,-3.3729281425476074,7.799784183502197,-4.24860954284668,-0.19054999947547913,0.2743920087814331,-0.08384199440479279,247.50001525878906,-100.50000762939453,-9.90000057220459
1352996,-3.377713441848755,7.854215145111084,-4.216310024261475,-0.23628199100494385,0.36585599184036255,-0.030487999320030212,247.50001525878906,-90.9000015258789,-10.5
1353016,-3.460257053375244,7.726810932159424,-4.19477653503418,-0.18292799592018127,0.41158798336982727,-0.06859800219535828,247.50001525878906,-93.30000305175781,-15.300000190734863
1353036,-3.4853789806365967,7.8380656242370605,-4.289881229400635,-0.04573199898004532,0.3887220025062561,0.015243999660015106,240.3000030517578,-90.9000015258789,-9.90000057220459
1353056,-3.4201815128326416,7.985208511352539,-4.3802008628845215,0.12195199728012085,0.22103799879550934,0.04573199898004532,237.90000915527344,-86.10000610351562,-13.500000953674316
1353076,-3.3155064582824707,8.013919830322266,-4.32636833190918,0.09146399796009064,0.1295740008354187,-0.015243999660015106,235.50001525878906,-90.9000015258789,-13.500000953674316
1353098,-3.3274693489074707,7.953506946563721,-4.369434356689453,-0.038109999150037766,0.1600620001554489,-0.08384199440479279,240.3000030517578,-93.30000305175781,0.30000001192092896
1353118,-3.3496005535125732,7.901468753814697,-4.361060619354248,-0.007621999830007553,0.12195199728012085,-0.04573199898004532,240.3000030517578,-86.10000610351562,-9.300000190734863
1353140,-3.413601875305176,7.756718158721924,-4.399341583251953,-0.06859800219535828,0.10670799762010574,0.038109999150037766,235.50001525878906,-86.10000610351562,-15.300000190734863
1353160,-3.4267611503601074,7.755521774291992,-4.367042064666748,-0.007621999830007553,0.02286599949002266,0.20579399168491364,257.1000061035156,-90.9000015258789,-11.700000762939453
1353224,-3.7688989639282227,7.451066970825195,-4.417285919189453,-0.05335399881005287,0.2896359860897064,0.22103799879550934,242.70001220703125,-88.5,-12.300000190734863
1353287,-4.294666767120361,8.057583808898926,-4.812060356140137,0.12195199728012085,0.20579399168491364,0.5182960033416748,237.90000915527344,-93.30000305175781,-3.9000000953674316
1353337,-5.09019660949707,8.76817798614502,-5.215208530426025,-0.914639949798584,0.9984819889068604,1.2195199728012085,242.70001220703125,-88.5,-7.500000476837158
1353356,-5.281602382659912,8.32973861694336,-5.386277675628662,-1.577754020690918,1.425313949584961,0.8612859845161438,240.3000030517578,-88.5,-2.1000001430511475
1353396,-4.935277462005615,8.024087905883789,-5.061485767364502,-1.6615959405899048,1.0823240280151367,2.03507399559021,235.50001525878906,-95.70000457763672,-3.9000000953674316
1353416,-4.236048698425293,7.890103816986084,-4.3802008628845215,-2.0579400062561035,1.1051899194717407,3.041177988052368,221.10000610351562,-100.50000762939453,-11.700000762939453
1353436,-3.68695330619812,8.208913803100586,-4.097877502441406,-2.6600780487060547,2.1036720275878906,3.7805118560791016,221.10000610351562,-102.9000015258789,-8.700000762939453
1353456,-4.313807010650635,7.56411600112915,-4.694226264953613,-3.3308138847351074,3.0792880058288574,3.551851987838745,223.50001525878906,-102.9000015258789,-5.700000286102295
1353476,-4.711572170257568,8.192166328430176,-5.540598392486572,-2.324709892272949,2.6067240238189697,3.711913824081421,225.90000915527344,-110.10000610351562,-6.900000095367432
1353496,-4.46872615814209,8.908740997314453,-5.8468475341796875,-1.600619912147522,1.1128119230270386,3.346057891845703,197.10000610351562,-100.50000762939453,-8.700000762939453
1353516,-4.428650379180908,9.131250381469727,-5.697311878204346,-1.7911700010299683,0.12195199728012085,2.7210538387298584,228.3000030517578,-107.70000457763672,-6.300000190734863
1353536,-4.118214130401611,9.920201301574707,-5.788827896118164,-2.0045859813690186,-0.04573199898004532,2.957335948944092,211.50001525878906,-114.9000015258789,-9.300000190734863
1353556,-4.412500858306885,10.461520195007324,-5.5220561027526855,-3.399411916732788,-0.1600620001554489,3.094532012939453,201.90000915527344,-117.30000305175781,-3.3000001907348633
1353577,-5.0273919105529785,9.3896484375,-5.062084197998047,-5.1067399978637695,0.6250039935112,2.5609920024871826,213.90000915527344,-110.10000610351562,-11.700000762939453
1353597,-4.881444931030273,8.55404281616211,-4.674487113952637,-5.564059734344482,0.8231759667396545,3.612828016281128,204.3000030517578,-119.70000457763672,-9.300000190734863
1353617,-4.661328315734863,7.732194423675537,-4.125990390777588,-5.807963848114014,1.1356779336929321,4.634175777435303,211.50001525878906,-112.50000762939453,-10.5
1353639,-4.056605815887451,7.074835300445557,-3.9369771480560303,-5.632658004760742,1.2195199728012085,6.1204657554626465,216.3000030517578,-138.90000915527344,-15.90000057220459
1353700,-2.3387389183044434,8.795692443847656,-3.087614059448242,-4.146368026733398,1.2804960012435913,6.768335819244385,177.90000915527344,-143.70001220703125,-17.100000381469727
1353720,-2.2167179584503174,8.768775939941406,-3.028995990753174,-3.955817937850952,1.2652519941329956,6.311016082763672,187.5,-148.5,-19.5
1353740,-1.8769726753234863,8.31478500366211,-2.757439136505127,-3.7195358276367188,1.0442140102386475,5.945159912109375,173.10000610351562,-150.90000915527344,-14.700000762939453
1353763,-1.1562104225158691,7.7961955070495605,-2.40812349319458,-4.184477806091309,0.8993960022926331,6.753091812133789,168.3000030517578,-143.70001220703125,-17.100000381469727
1353783,-0.721958577632904,7.814737796783447,-2.1736514568328857,-3.871975898742676,0.6707359552383423,7.545779705047607,146.70001220703125,-158.10000610351562,-20.100000381469727
1353803,-0.18602246046066284,8.174819946289062,-2.027106523513794,-3.7881338596343994,0.39634400606155396,7.896391868591309,139.5,-160.5,-20.700000762939453
1353823,0.022729432210326195,7.933170318603516,-1.818354606628418,-3.955817937850952,0.3201240003108978,7.423827648162842,144.3000030517578,-160.5,-21.900001525878906
1353843,0.40554094314575195,8.025882720947266,-1.8416821956634521,-3.6814258098602295,0.04573199898004532,7.332363605499268,139.5,-153.3000030517578,-17.700000762939453
1353863,0.8039041757583618,8.078518867492676,-1.8081861734390259,-3.4680099487304688,-0.35061198472976685,7.012239933013916,141.90000915527344,-167.70001220703125,-15.90000057220459
1353884,1.3434290885925293,8.251980781555176,-1.621565580368042,-3.0106899738311768,-0.8384199738502502,7.164680004119873,122.70000457763672,-165.3000030517578,-21.30000114440918
1353905,1.709492564201355,8.56600570678711,-1.3978601694107056,-2.7744078636169434,-0.9451279640197754,7.218033790588379,117.9000015258789,-165.3000030517578,-19.5
1353926,1.7848585844039917,8.465517044067383,-1.1789398193359375,-2.6753220558166504,-0.7926880121231079,6.905531883239746,113.10000610351562,-174.90000915527344,-22.5
1353946,1.8632153272628784,8.481667518615723,-0.9683934450149536,-2.233245849609375,-0.48018598556518555,6.913153648376465,110.70000457763672,-182.10000610351562,-23.100000381469727
1353966,1.9206371307373047,9.021790504455566,-0.8080911636352539,-1.9588539600372314,0.04573199898004532,6.714982032775879,98.70000457763672,-170.10000610351562,-26.100000381469727
1353986,1.8560376167297363,8.84174919128418,-0.6250594258308411,-1.7911700010299683,0.7012239694595337,5.937537670135498,91.5,-186.90000915527344,-27.30000114440918
1354006,1.6592485904693604,8.670680046081543,-0.45877566933631897,-1.5396440029144287,1.4481799602508545,5.4649739265441895,84.30000305175781,-174.90000915527344,-31.500001907348633
1354030,1.524666428565979,8.47927474975586,-0.5449082255363464,-0.9603719711303711,2.5686140060424805,4.832347869873047,55.500003814697266,-177.3000030517578,-18.30000114440918
1354054,1.5844807624816895,8.391347885131836,-0.5664414167404175,-0.4725639820098877,2.835383892059326,4.809482097625732,72.30000305175781,-179.70001220703125,-20.700000762939453
1354075,1.7011185884475708,8.33691692352295,-0.5718246698379517,-0.038109999150037766,2.9802019596099854,4.778994083404541,60.30000305175781,-179.70001220703125,-24.30000114440918
1354096,1.9367868900299072,8.303421020507812,-0.705808699131012,0.4878079891204834,2.995445966720581,4.824726104736328,69.9000015258789,-182.10000610351562,-23.700000762939453
1354116,2.1892032623291016,8.562417030334473,-0.7255474328994751,0.8841519951820374,2.9344699382781982,4.733262062072754,57.900001525878906,-179.70001220703125,-25.500001907348633
1354136,2.5092098712921143,8.867469787597656,-0.8439797163009644,1.189031958580017,2.797273874282837,4.10825777053833,50.70000076293945,-174.90000915527344,-27.30000114440918
1354156,2.552276134490967,9.007434844970703,-0.9025977253913879,1.242385983467102,2.7591638565063477,3.818621873855591,48.30000305175781,-179.70001220703125,-24.900001525878906
1354176,2.4643490314483643,8.964966773986816,-1.1621917486190796,1.242385983467102,2.6677000522613525,2.957335948944092,43.5,-172.5,-21.30000114440918
1354196,2.369842529296875,8.848328590393066,-1.1897063255310059,1.2576299905776978,2.042695999145508,2.332331895828247,45.900001525878906,-179.70001220703125,-15.90000057220459
1354218,2.4248716831207275,8.691017150878906,-1.1017793416976929,0.7317119836807251,1.371959924697876,1.6158639192581177,24.30000114440918,-174.90000915527344,-23.100000381469727
1354239,2.515789270401001,8.88661003112793,-1.196884036064148,0.6936019659042358,1.0061039924621582,1.478667974472046,45.900001525878906,-179.70001220703125,-16.5
1354259,2.4727230072021484,8.3219633102417,-0.9660009145736694,0.2743920087814331,0.7545779943466187,1.3109840154647827,36.30000305175781,-170.10000610351562,-24.900001525878906
1354280,2.5762016773223877,8.58993148803711,-0.9857395887374878,0.25152599811553955,0.7545779943466187,1.4329359531402588,31.500001907348633,-172.5,-19.5
1354300,2.936283826828003,9.10971736907959,-1.043161392211914,0.09146399796009064,0.7012239694595337,1.3109840154647827,31.500001907348633,-189.3000030517578,-18.900001525878906
1354320,3.45188307762146,9.640868186950684,-1.1627899408340454,-0.038109999150037766,0.6478700041770935,1.1737879514694214,29.100000381469727,-189.3000030517578,-19.5
1354360,3.899294137954712,9.39263916015625,-1.1741546392440796,0.1448179930448532,1.0823240280151367,0.7698220014572144,31.500001907348633,-170.10000610351562,-18.30000114440918
1354380,4.1122331619262695,9.240711212158203,-1.5133017301559448,0.07621999830007553,1.5015339851379395,0.36585599184036255,36.30000305175781,-182.10000610351562,-23.100000381469727
1354400,4.015932083129883,8.68742847442627,-1.8231397867202759,0.4039659798145294,1.577754020690918,0.3048799932003021,26.700000762939453,-179.70001220703125,-22.5
1354424,3.955519437789917,8.46133041381836,-2.110248327255249,0.7545779943466187,1.5701320171356201,0.4420759975910187,29.100000381469727,-182.10000610351562,-19.5
1354444,4.099671840667725,9.00623893737793,-2.44102144241333,0.8841519951820374,1.6234859228134155,0.44969800114631653,24.30000114440918,-174.90000915527344,-15.300000190734863
1354468,4.18580436706543,9.473388671875,-3.049931049346924,0.6707359552383423,1.829279899597168,-0.49542999267578125,29.100000381469727,-172.5,-17.100000381469727
1354489,4.177430629730225,9.622923851013184,-3.4243686199188232,0.7621999979019165,1.829279899597168,-0.8079319596290588,17.100000381469727,-182.10000610351562,-20.700000762939453
1354509,4.322779178619385,9.988987922668457,-4.0021748542785645,0.8765299916267395,1.7378159761428833,-0.8079319596290588,24.30000114440918,-174.90000915527344,-18.900001525878906
1354529,3.7934226989746094,9.026576042175293,-4.012342929840088,0.8460419774055481,0.5411620140075684,-1.3109840154647827,21.900001525878906,-172.5,-25.500001907348633
1354549,3.555959939956665,8.811244010925293,-4.120008945465088,1.4481799602508545,-0.08384199440479279,-0.8917739987373352,26.700000762939453,-174.90000915527344,-23.700000762939453
1354569,3.2383460998535156,8.52114486694336,-4.008155822753906,1.5167779922485352,-0.8307979702949524,-0.7926880121231079,14.700000762939453,-170.10000610351562,-17.100000381469727
1354593,3.0888102054595947,8.692214012145996,-3.6552517414093018,1.3338500261306763,-1.4405579566955566,-0.739333987236023,21.900001525878906,-165.3000030517578,-16.5
1354613,3.0128462314605713,8.335122108459473,-3.246121883392334,0.5030519962310791,-1.4558019638061523,-1.2042759656906128,36.30000305175781,-172.5,-19.5
1354633,3.0002851486206055,8.1604642868042,-2.9530317783355713,-0.2743920087814331,-1.013725996017456,-1.2652519941329956,26.700000762939453,-177.3000030517578,-21.900001525878906
1354695,2.9799482822418213,7.387663841247559,-2.738896608352661,-1.3490939140319824,-0.342989981174469,0.17530599236488342,17.100000381469727,-186.90000915527344,-10.5
1354715,3.186307668685913,7.610771179199219,-2.6252493858337402,-1.1128119230270386,-0.457319974899292,0.6631140112876892,33.900001525878906,-162.90000915527344,-17.700000762939453
1354777,3.5637357234954834,8.052799224853516,-2.8220386505126953,-0.36585599184036255,-0.5868939757347107,0.28201398253440857,24.30000114440918,-177.3000030517578,-15.90000057220459
1354797,3.6313259601593018,8.314187049865723,-2.834599494934082,-0.228659987449646,-0.7545779943466187,0.18292799592018127,29.100000381469727,-170.10000610351562,-22.5
1354818,3.5954372882843018,8.3100004196167,-2.8686935901641846,-0.4039659798145294,-0.6936019659042358,-0.23628199100494385,31.500001907348633,-182.10000610351562,-21.30000114440918
1354839,3.543398857116699,8.30880355834961,-2.839982748031616,-0.4420759975910187,-0.6478700041770935,-0.5868939757347107,31.500001907348633,-167.70001220703125,-23.700000762939453
1354860,3.4243686199188232,8.070743560791016,-2.7382984161376953,-0.5335400104522705,-0.5030519962310791,-0.9603719711303711,31.500001907348633,-182.10000610351562,-22.5
1354880,3.43094801902771,8.016910552978516,-2.561248302459717,-0.6250039935112,-0.18292799592018127,-1.0289700031280518,31.500001907348633,-182.10000610351562,-18.30000114440918
1354900,3.48478102684021,8.1843900680542,-2.584575891494751,-0.7469559907913208,0.3201240003108978,-0.9527499675750732,31.500001907348633,-182.10000610351562,-24.900001525878906
1354963,3.416592597961426,8.132351875305176,-2.4882748126983643,-1.0061039924621582,1.242385983467102,0.3048799932003021,29.100000381469727,-170.10000610351562,-18.900001525878906
1355026,3.6133816242218018,8.427236557006836,-2.3985533714294434,-0.4878079891204834,0.2972579896450043,0.6478700041770935,26.700000762939453,-170.10000610351562,-27.30000114440918
1355136,2.956620693206787,9.773655891418457,-1.8357007503509521,-0.18292799592018127,-1.3414719104766846,-1.8140360116958618,21.900001525878906,-182.10000610351562,-29.100000381469727
1355156,4.029090881347656,12.386942863464355,-2.19697904586792,-0.5868939757347107,-0.9756159782409668,-1.242385983467102,33.900001525878906,-172.5,-17.100000381469727
1355196,2.914750814437866,10.821602821350098,-0.4013539254665375,-2.7134318351745605,0.19817200303077698,-4.397893905639648,33.900001525878906,-174.90000915527344,-26.700000762939453
1355216,1.6263507604599,9.71144962310791,-0.6160872578620911,-2.2103798389434814,1.4024479389190674,-4.725639820098877,53.10000228881836,-182.10000610351562,-14.700000762939453
1355259,0.9360937476158142,8.49721908569336,-1.1107515096664429,-1.7683039903640747,1.8597679138183594,-3.704291820526123,48.30000305175781,-172.5,-26.700000762939453
1355279,1.0365817546844482,8.454153060913086,-1.2620816230773926,-1.0365920066833496,0.9984819889068604,-2.0579400062561035,43.5,-179.70001220703125,-18.900001525878906
1355299,1.1286958456039429,8.457741737365723,-1.2010711431503296,-0.6021379828453064,0.09908600151538849,-0.6936019659042358,60.30000305175781,-170.10000610351562,-17.100000381469727
1355319,1.3571864366531372,8.608473777770996,-1.1807342767715454,-0.39634400606155396,-0.8079319596290588,0.35061198472976685,48.30000305175781,-172.5,-22.5
1355341,1.5856770277023315,8.66948413848877,-1.1723601818084717,-0.46494197845458984,-1.5929979085922241,0.8307979702949524,48.30000305175781,-174.90000915527344,-16.5
1355382,2.071369171142578,9.352563858032227,-1.1574066877365112,-0.8384199738502502,-2.743919849395752,1.2118979692459106,45.900001525878906,-155.70001220703125,-17.100000381469727
1355402,2.027106523513794,9.25626277923584,-1.196884036064148,-0.9832379817962646,-3.048799991607666,0.6478700041770935,41.10000228881836,-167.70001220703125,-24.30000114440918
1355445,2.1868107318878174,9.29813289642334,-1.094003438949585,-0.457319974899292,-3.0640439987182617,0.05335399881005287,55.500003814697266,-172.5,-27.30000114440918
1355465,2.1772403717041016,9.05289363861084,-0.9366918802261353,-0.12195199728012085,-2.7210538387298584,0.1600620001554489,38.70000076293945,-174.90000915527344,-24.30000114440918
1355487,2.2855043411254883,9.110315322875977,-0.8469704389572144,0.10670799762010574,-2.042695999145508,0.33536797761917114,55.500003814697266,-177.3000030517578,-24.900001525878906
1355507,2.4194884300231934,9.206018447875977,-0.8140726089477539,0.3125019967556,-1.3490939140319824,0.5259180068969727,50.70000076293945,-172.5,-27.30000114440918
1355529,2.355487108230591,8.99906063079834,-0.8667091727256775,0.2743920087814331,-0.6250039935112,0.5182960033416748,48.30000305175781,-170.10000610351562,-21.900001525878906
1355550,2.3261780738830566,8.646156311035156,-0.8978126049041748,0.571649968624115,-0.1295740008354187,0.800309956073761,43.5,-184.5,-23.700000762939453
1355572,2.3566832542419434,8.899170875549316,-0.9169531464576721,0.6326259970664978,0.5640279650688171,0.8155539631843567,48.30000305175781,-179.70001220703125,-26.100000381469727
1355592,2.256195306777954,8.884217262268066,-0.9522436261177063,0.7012239694595337,1.013725996017456,0.6707359552383423,38.70000076293945,-167.70001220703125,-23.700000762939453
1355614,2.125800132751465,8.81303882598877,-1.1334809064865112,0.7317119836807251,1.3033620119094849,0.2896359860897064,45.900001525878906,-174.90000915527344,-23.100000381469727
1355634,2.1778385639190674,8.887805938720703,-1.2441374063491821,0.7926880121231079,1.242385983467102,-0.015243999660015106,43.5,-182.10000610351562,-27.900001525878906
1355656,2.0785467624664307,8.51217269897461,-1.2351652383804321,0.7317119836807251,1.1509219408035278,-0.35061198472976685,38.70000076293945,-167.70001220703125,-23.100000381469727
1355717,3.0218183994293213,9.002650260925293,-1.2728482484817505,0.16768398880958557,1.2728739976882935,-0.5030519962310791,43.5,-167.70001220703125,-26.100000381469727
1355737,3.4052278995513916,9.399218559265137,-1.3858972787857056,0.25152599811553955,1.3186060190200806,-0.12195199728012085,38.70000076293945,-174.90000915527344,-18.30000114440918
1355761,3.63611102104187,9.18328857421875,-1.5222738981246948,-0.06859800219535828,1.753059983253479,-0.1600620001554489,38.70000076293945,-172.5,-19.5
1355781,3.338834047317505,8.16943645477295,-1.5270589590072632,-0.08384199440479279,2.027451992034912,-0.26677000522613525,38.70000076293945,-172.5,-23.700000762939453
1355801,3.2718420028686523,8.433218002319336,-1.8530468940734863,0.5259180068969727,2.278977870941162,0.06859800219535828,48.30000305175781,-184.5,-19.5
1355821,3.3107213973999023,9.581053733825684,-2.3806090354919434,0.9832379817962646,2.439039945602417,-0.44969800114631653,38.70000076293945,-170.10000610351562,-20.700000762939453
1355841,3.4357333183288574,9.795787811279297,-2.3447203636169434,0.7545779943466187,2.027451992034912,-1.5853760242462158,50.70000076293945,-167.70001220703125,-18.30000114440918
1355864,3.63611102104187,9.872349739074707,-2.3590757846832275,0.8993960022926331,2.5686140060424805,-2.3475759029388428,45.900001525878906,-170.10000610351562,-9.300000190734863
1355924,2.8178515434265137,9.43331241607666,-3.8592183589935303,2.1646480560302734,3.460387945175171,-1.2118979692459106,48.30000305175781,-177.3000030517578,-15.90000057220459
1356042,2.593547821044922,7.567704677581787,-3.014042377471924,0.02286599949002266,0.09908600151538849,0.1600620001554489,31.500001907348633,-165.3000030517578,-17.100000381469727
1356062,2.6180717945098877,7.053301811218262,-2.8956100940704346,-0.6554920077323914,0.49542999267578125,0.457319974899292,48.30000305175781,-170.10000610351562,-17.100000381469727
1356104,3.1695597171783447,7.400224685668945,-2.823234796524048,-0.7469559907913208,0.914639949798584,1.4558019638061523,50.70000076293945,-160.5,-21.30000114440918
1356124,3.5308380126953125,7.666996479034424,-2.694634199142456,-0.9451279640197754,1.2118979692459106,1.7149499654769897,53.10000228881836,-165.3000030517578,-17.700000762939453
1356146,3.8167502880096436,8.212503433227539,-2.7000174522399902,-0.9298839569091797,1.5015339851379395,2.187514066696167,45.900001525878906,-177.3000030517578,-14.100000381469727
1356166,3.9872210025787354,8.607276916503906,-2.748466968536377,-1.067080020904541,1.7759259939193726,2.28659987449646,50.70000076293945,-172.5,-18.900001525878906
1356186,3.907668113708496,9.04212760925293,-2.848954916000366,-0.9756159782409668,1.9512319564819336,2.1646480560302734,36.30000305175781,-165.3000030517578,-21.900001525878906
1356208,3.4799957275390625,8.567201614379883,-2.989518642425537,-0.8460419774055481,1.6920839548110962,1.5472660064697266,38.70000076293945,-167.70001220703125,-18.30000114440918
1356271,3.469229221343994,8.562417030334473,-2.816655158996582,-0.6707359552383423,0.5411620140075684,0.41158798336982727,24.30000114440918,-172.5,-6.900000095367432
1356292,3.425564765930176,8.267532348632812,-2.6635305881500244,-0.7926880121231079,0.44969800114631653,0.20579399168491364,26.700000762939453,-182.10000610351562,-17.700000762939453
1356312,3.3693394660949707,8.074332237243652,-2.518779993057251,-0.9375059604644775,0.5792719721794128,0.114329993724823,31.500001907348633,-186.90000915527344,-11.100000381469727
1356334,3.407022476196289,8.088088989257812,-2.4188902378082275,-1.013725996017456,0.6250039935112,0.19054999947547913,33.900001525878906,-172.5,-20.100000381469727
1356354,3.4147982597351074,7.856607913970947,-2.3710386753082275,-1.189031958580017,0.8689079880714417,0.20579399168491364,26.700000762939453,-184.5,-23.700000762939453
1356376,3.463247776031494,8.119193077087402,-2.47092866897583,-0.9832379817962646,0.8689079880714417,0.5564059615135193,29.100000381469727,-162.90000915527344,-16.5
1356396,3.3872835636138916,8.215494155883789,-2.6067070960998535,-1.2500079870224,0.6478700041770935,0.457319974899292,33.900001525878906,-184.5,-19.5
1356416,3.392068862915039,8.044425010681152,-2.5708184242248535,-0.8917739987373352,0.3277460038661957,0.5487840175628662,38.70000076293945,-167.70001220703125,-16.5
1356436,3.466238498687744,8.204727172851562,-2.6336236000061035,-0.8155539631843567,0.22103799879550934,0.5945159792900085,26.700000762939453,-170.10000610351562,-17.700000762939453
1356456,3.6917383670806885,8.622230529785156,-2.5821831226348877,-0.7926880121231079,-0.05335399881005287,0.7850660085678101,21.900001525878906,-182.10000610351562,-25.500001907348633
1356476,3.657644271850586,8.674269676208496,-2.6043145656585693,-0.8612859845161438,-0.17530599236488342,0.5564059615135193,21.900001525878906,-172.5,-18.30000114440918
1356496,3.762319326400757,8.77894401550293,-2.6132867336273193,-0.8841519951820374,-0.3734779953956604,0.5792719721794128,21.900001525878906,-172.5,-16.5
1356516,3.970473051071167,8.49422836303711,-2.1832218170166016,-1.013725996017456,-0.6097599864006042,0.8460419774055481,29.100000381469727,-177.3000030517578,-18.30000114440918
1356579,3.651662826538086,8.164052963256836,-1.8829541206359863,-0.9832379817962646,-0.5030519962310791,1.3872039318084717,7.500000476837158,-162.90000915527344,-17.700000762939453
1356599,4.021913528442383,9.090577125549316,-2.0994818210601807,-0.8460419774055481,-0.7088459730148315,1.425313949584961,19.5,-158.10000610351562,-21.30000114440918
1356619,4.548877239227295,10.089475631713867,-2.033087968826294,-1.2271419763565063,-1.1814099550247192,1.4024479389190674,29.100000381469727,-165.3000030517578,-28.500001907348633
1356639,4.183412075042725,9.056482315063477,-1.6951371431350708,-1.7911700010299683,-1.4024479389190674,0.7621999979019165,17.100000381469727,-182.10000610351562,-16.5
1356659,3.7300195693969727,8.388955116271973,-1.336849570274353,-1.8673899173736572,-1.6158639192581177,0.8612859845161438,-2.1000001430511475,-196.50001525878906,-19.5
1356681,3.541006326675415,9.226953506469727,-1.1891082525253296,-1.829279899597168,-1.6768399477005005,0.9222619533538818,7.500000476837158,-184.5,-20.100000381469727
1356701,3.1725502014160156,9.661803245544434,-1.0425631999969482,-2.080806016921997,-1.707327961921692,-0.038109999150037766,29.100000381469727,-179.70001220703125,-14.700000762939453
1356721,3.0295941829681396,9.156970977783203,-0.7668192982673645,-2.278977870941162,-2.03507399559021,-0.7774440050125122,14.700000762939453,-170.10000610351562,-18.30000114440918
1356741,2.7323172092437744,8.61086654663086,-0.26378104090690613,-2.187514066696167,-1.6844619512557983,-0.5945159792900085,12.300000190734863,-167.70001220703125,-17.100000381469727
1356761,2.450591802597046,8.510976791381836,-0.2912956178188324,-1.7378159761428833,-1.5625100135803223,0.114329993724823,24.30000114440918,-165.3000030517578,-17.100000381469727
1356782,2.6180717945098877,8.80586051940918,-0.3929799199104309,-1.5548880100250244,-1.417691946029663,0.41158798336982727,9.90000057220459,-182.10000610351562,-20.700000762939453
1356802,2.8118700981140137,9.09596061706543,-0.6274519562721252,-1.1280559301376343,-1.3567159175872803,0.510673999786377,17.100000381469727,-170.10000610351562,-20.100000381469727
1356864,3.436331272125244,9.186878204345703,-0.8589333295822144,-0.3734779953956604,-1.1814099550247192,0.8079319596290588,9.90000057220459,-177.3000030517578,-18.900001525878906
1356884,3.4889678955078125,9.121082305908203,-0.8272317051887512,-0.46494197845458984,-1.0823240280151367,0.685979962348938,14.700000762939453,-184.5,-24.30000114440918
1356904,3.66601824760437,9.48415470123291,-0.9618139266967773,-0.44969800114631653,-0.4420759975910187,-0.19817200303077698,5.100000381469727,-184.5,-15.300000190734863
1356926,3.6103909015655518,8.842347145080566,-0.8870460391044617,-0.49542999267578125,-0.1600620001554489,-0.5945159792900085,19.5,-174.90000915527344,-24.900001525878906
1356946,3.591250419616699,8.562417030334473,-0.7602397203445435,-0.26677000522613525,0.07621999830007553,-0.44969800114631653,24.30000114440918,-177.3000030517578,-22.5
1356966,3.6175687313079834,8.659316062927246,-0.7387065887451172,-0.16768398880958557,0.39634400606155396,-0.12195199728012085,12.300000190734863,-179.70001220703125,-26.100000381469727
1356986,3.577493190765381,8.64675521850586,-0.6430037021636963,-0.1448179930448532,0.6326259970664978,0.09908600151538849,9.90000057220459,-191.70001220703125,-26.100000381469727
1357006,3.5224640369415283,8.606081008911133,-0.5670395493507385,-0.12195199728012085,0.8689079880714417,0.23628199100494385,12.300000190734863,-174.90000915527344,-24.900001525878906
1357026,3.3525912761688232,8.473891258239746,-0.45578494668006897,0.04573199898004532,0.8917739987373352,0.41158798336982727,9.90000057220459,-177.3000030517578,-21.900001525878906
1357046,3.3466098308563232,8.443984031677246,-0.35709136724472046,0.2743920087814331,0.7926880121231079,0.571649968624115,21.900001525878906,-186.90000915527344,-24.900001525878906
1357066,3.311319589614868,8.394936561584473,-0.27574390172958374,0.48018598556518555,0.7012239694595337,0.5640279650688171,14.700000762939453,-184.5,-14.700000762939453
1357086,3.5302398204803467,8.78791618347168,-0.39537250995635986,0.739333987236023,0.5640279650688171,0.44969800114631653,2.700000047683716,-179.70001220703125,-18.30000114440918
1357106,3.603811502456665,8.79210376739502,-0.44980350136756897,0.7164679765701294,0.5030519962310791,0.06859800219535828,12.300000190734863,-174.90000915527344,-26.700000762939453
1357126,3.842470407485962,8.936256408691406,-0.4827013909816742,0.7774440050125122,0.3048799932003021,-0.1295740008354187,19.5,-177.3000030517578,-24.30000114440918
1357146,3.892714500427246,8.717933654785156,-0.509019672870636,0.7317119836807251,0.5030519962310791,-0.20579399168491364,5.100000381469727,-167.70001220703125,-24.30000114440918
1357166,4.679272651672363,9.993772506713867,-0.8200539946556091,0.6402480006217957,0.6707359552383423,0.3277460038661957,-2.1000001430511475,-167.70001220703125,-20.700000762939453
1357186,4.237244606018066,8.463723182678223,-0.806894838809967,0.2743920087814331,1.0594580173492432,-0.06859800219535828,5.100000381469727,-177.3000030517578,-32.10000228881836
1357208,4.166664123535156,8.504995346069336,-1.107162594795227,0.8079319596290588,1.0823240280151367,0.6707359552383423,14.700000762939453,-172.5,-22.5
1357228,4.215113639831543,8.694007873535156,-1.2686612606048584,0.853663980960846,1.0594580173492432,0.914639949798584,12.300000190734863,-174.90000915527344,-24.30000114440918
1357250,4.251002311706543,8.66051197052002,-1.2770352363586426,0.6707359552383423,1.2347639799118042,0.6936019659042358,5.100000381469727,-172.5,-12.300000190734863
1357270,4.0105485916137695,7.7668867111206055,-1.2758389711380005,0.6021379828453064,1.6234859228134155,0.20579399168491364,5.100000381469727,-172.5,-21.30000114440918
1357290,3.768300771713257,7.406206130981445,-1.406832218170166,1.2042759656906128,1.9740979671478271,0.18292799592018127,17.100000381469727,-177.3000030517578,-18.900001525878906
1357310,3.7007105350494385,7.34100866317749,-1.5802937746047974,1.1280559301376343,2.385685920715332,0.02286599949002266,12.300000190734863,-160.5,-17.700000762939453
1357333,3.9573140144348145,8.51217269897461,-2.7885425090789795,1.4558019638061523,3.147886037826538,0.22103799879550934,2.700000047683716,-167.70001220703125,-24.900001525878906
1357353,4.23365592956543,8.443984031677246,-3.347208023071289,1.2728739976882935,2.530503988265991,0.19817200303077698,21.900001525878906,-184.5,-19.5
1357377,4.198365688323975,8.164651870727539,-3.6115872859954834,1.4481799602508545,2.1570260524749756,0.6250039935112,0.30000001192092896,-179.70001220703125,-23.100000381469727
1357397,4.322181224822998,8.802271842956543,-4.090101718902588,1.6311079263687134,1.707327961921692,0.9375059604644775,7.500000476837158,-172.5,-21.30000114440918
1357417,4.397547245025635,9.113306045532227,-3.725832462310791,0.6478700041770935,1.067080020904541,-0.18292799592018127,0.30000001192092896,-172.5,-19.5
1357480,4.014735698699951,8.333328247070312,-3.6492702960968018,-0.2972579896450043,0.4878079891204834,-1.3109840154647827,-2.1000001430511475,-177.3000030517578,-17.100000381469727
1357500,3.8550314903259277,7.899674415588379,-3.4088168144226074,-0.6250039935112,0.22103799879550934,-1.0899460315704346,5.100000381469727,-179.70001220703125,-16.5
1357520,3.951930522918701,8.061172485351562,-3.2233924865722656,-0.8460419774055481,-0.038109999150037766,-0.5030519962310791,14.700000762939453,-174.90000915527344,-21.30000114440918
1357540,3.9250142574310303,7.530620098114014,-3.0295941829681396,-1.5015339851379395,-0.015243999660015106,-0.3887220025062561,-9.300000190734863,-172.5,-21.30000114440918
1357563,4.091896057128906,7.6269211769104,-2.8363940715789795,-1.5091559886932373,-0.030487999320030212,0.5335400104522705,9.90000057220459,-179.70001220703125,-17.700000762939453
1357607,4.480090618133545,8.051602363586426,-2.542107582092285,-1.6920839548110962,0.4725639820098877,0.6097599864006042,-4.5,-177.3000030517578,-23.100000381469727
1357627,4.606298923492432,8.408095359802246,-2.813664436340332,-1.8369019031524658,1.3643379211425781,0.04573199898004532,2.700000047683716,-167.70001220703125,-26.100000381469727
1357648,4.5088019371032715,8.346487045288086,-2.846562385559082,-1.875011920928955,1.4862899780273438,-0.17530599236488342,5.100000381469727,-174.90000915527344,-17.700000762939453
1357669,4.38797664642334,8.3279447555542,-2.819645881652832,-1.8902559280395508,1.5091559886932373,-0.2591480016708374,0.30000001192092896,-182.10000610351562,-18.900001525878906
1357689,3.9453511238098145,8.153884887695312,-2.935685634613037,-1.753059983253479,1.2500079870224,-0.35061198472976685,-9.300000190734863,-177.3000030517578,-21.900001525878906
1357709,3.69891619682312,8.051602363586426,-2.8663010597229004,-1.2347639799118042,0.4192099869251251,-0.4039659798145294,7.500000476837158,-182.10000610351562,-34.5
1357729,3.999782085418701,9.153980255126953,-2.792729616165161,-0.8765299916267395,-0.48018598556518555,-0.342989981174469,5.100000381469727,-179.70001220703125,-20.100000381469727
1357749,4.315003395080566,9.25028133392334,-2.4278624057769775,-1.3948259353637695,-1.0594580173492432,-0.7164679765701294,2.700000047683716,-174.90000915527344,-17.700000762939453
1357769,4.0135393142700195,8.293850898742676,-2.0821356773376465,-1.600619912147522,-1.2728739976882935,-0.7088459730148315,-4.5,-172.5,-17.700000762939453
1357789,3.935182571411133,8.222073554992676,-1.830317497253418,-1.5853760242462158,-1.5320219993591309,-0.2439039945602417,-2.1000001430511475,-174.90000915527344,-24.900001525878906
1357833,3.9507343769073486,8.522340774536133,-1.323690414428711,-1.8673899173736572,-1.875011920928955,0.23628199100494385,7.500000476837158,-172.5,-14.100000381469727
1357853,4.060194492340088,8.542677879333496,-1.0868257284164429,-2.0045859813690186,-1.9588539600372314,0.36585599184036255,9.90000057220459,-179.70001220703125,-29.100000381469727
1357873,4.146925449371338,8.732887268066406,-0.7877542972564697,-2.179892063140869,-1.92836594581604,0.5335400104522705,0.30000001192092896,-174.90000915527344,-23.700000762939453
1357893,4.18580436706543,8.882423400878906,-0.6130965352058411,-2.39330792427063,-1.5396440029144287,0.6173819899559021,-4.5,-174.90000915527344,-27.900001525878906
1357915,4.059596538543701,8.717933654785156,-0.503038227558136,-2.39330792427063,-1.1814099550247192,0.6478700041770935,-9.300000190734863,-177.3000030517578,-26.700000762939453
1357935,3.8173484802246094,8.382375717163086,-0.509019672870636,-2.1494040489196777,-0.9375059604644775,0.6478700041770935,9.90000057220459,-174.90000915527344,-26.100000381469727
1357955,3.481192111968994,7.931973934173584,-0.4210926592350006,-1.7759259939193726,-1.0365920066833496,0.8231759667396545,-2.1000001430511475,-170.10000610351562,-27.900001525878906
1357977,3.1462321281433105,7.772867679595947,-0.5281602144241333,-1.3109840154647827,-1.067080020904541,0.9527499675750732,-2.1000001430511475,-174.90000915527344,-20.700000762939453
1357997,3.0355756282806396,8.31777572631836,-0.6250594258308411,-0.9527499675750732,-1.371959924697876,1.0747020244598389,0.30000001192092896,-172.5,-22.5
1358019,3.1312785148620605,10.069138526916504,-0.8284280300140381,-0.7012239694595337,-1.6692179441452026,0.5945159792900085,-16.5,-174.90000915527344,-27.900001525878906
1358039,3.1468300819396973,10.31796646118164,-0.8589333295822144,-0.8993960022926331,-1.8902559280395508,-0.5411620140075684,-6.900000095367432,-174.90000915527344,-32.10000228881836
1358059,3.046940326690674,9.377685546875,-0.44800907373428345,-1.0823240280151367,-1.8216580152511597,-1.2118979692459106,-2.1000001430511475,-191.70001220703125,-27.30000114440918
1358079,3.151017189025879,9.586437225341797,-0.3343619108200073,-0.8612859845161438,-1.4558019638061523,-0.8993960022926331,-6.900000095367432,-182.10000610351562,-24.900001525878906
1358099,3.108549118041992,9.47039794921875,-0.352904349565506,-0.9070180058479309,-0.739333987236023,-0.8307979702949524,-9.300000190734863,-177.3000030517578,-32.10000228881836
1358119,2.939274549484253,9.134241104125977,-0.5658432245254517,-0.6173819899559021,-0.25152599811553955,-0.739333987236023,5.100000381469727,-179.70001220703125,-31.500001907348633
1358139,2.866899251937866,9.16055965423584,-0.5688339471817017,0.04573199898004532,-0.17530599236488342,-0.4420759975910187,12.300000190734863,-170.10000610351562,-25.500001907348633
1358159,2.7412891387939453,8.56002426147461,-0.5574692487716675,0.22103799879550934,0.030487999320030212,-0.5182960033416748,-2.1000001430511475,-172.5,-19.5
1358179,2.9763593673706055,8.740663528442383,-0.6208723783493042,0.510673999786377,0.19817200303077698,-0.16768398880958557,2.700000047683716,-186.90000915527344,-29.700000762939453
1358201,3.162381887435913,8.941638946533203,-0.7351177334785461,0.44969800114631653,0.4192099869251251,-0.114329993724823,5.100000381469727,-167.70001220703125,-26.100000381469727
1358221,3.3496005535125732,8.961976051330566,-0.8499611616134644,0.3125019967556,0.3734779953956604,-0.1448179930448532,-9.300000190734863,-182.10000610351562,-29.100000381469727
1358241,3.323880434036255,8.556435585021973,-0.7793802618980408,0.060975998640060425,0.41158798336982727,-0.17530599236488342,2.700000047683716,-179.70001220703125,-23.100000381469727
1358261,3.5571563243865967,8.960780143737793,-0.903195858001709,-0.015243999660015106,0.3582339882850647,-0.22103799879550934,2.700000047683716,-179.70001220703125,-32.70000076293945
1358281,3.5075104236602783,8.883021354675293,-0.9935154914855957,-0.28201398253440857,0.3582339882850647,-0.6173819899559021,5.100000381469727,-177.3000030517578,-27.30000114440918
1358301,3.555959939956665,8.843544006347656,-1.0198338031768799,-0.3048799932003021,0.1295740008354187,-1.013725996017456,-4.5,-179.70001220703125,-31.500001907348633
1358321,3.4913604259490967,8.527724266052246,-1.0664888620376587,-0.2743920087814331,-0.114329993724823,-1.5015339851379395,5.100000381469727,-189.3000030517578,-30.900001525878906
1358344,3.5691192150115967,8.420058250427246,-0.9103736281394958,-0.060975998640060425,-0.510673999786377,-1.6387299299240112,9.90000057220459,-182.10000610351562,-29.100000381469727
1358364,3.6432888507843018,8.817225456237793,-0.8685035705566406,-0.038109999150037766,-0.2743920087814331,-1.6768399477005005,-2.1000001430511475,-186.90000915527344,-30.30000114440918
1358384,3.5996243953704834,8.979920387268066,-1.0288058519363403,-0.015243999660015106,-0.20579399168491364,-1.8216580152511597,7.500000476837158,-177.3000030517578,-21.30000114440918
1358407,3.6079983711242676,8.232839584350586,-0.7865580320358276,-0.09146399796009064,-0.3734779953956604,-1.9131219387054443,7.500000476837158,-182.10000610351562,-21.30000114440918
1358427,3.45487380027771,7.884720802307129,-0.7787821292877197,-0.07621999830007553,0.02286599949002266,-1.6082419157028198,21.900001525878906,-177.3000030517578,-17.700000762939453
1358447,3.65704607963562,8.294448852539062,-1.24294114112854,0.3582339882850647,0.23628199100494385,-0.9832379817962646,7.500000476837158,-189.3000030517578,-32.10000228881836
1358467,3.8406760692596436,8.867469787597656,-1.499544382095337,0.6936019659042358,0.08384199440479279,-0.5182960033416748,5.100000381469727,-179.70001220703125,-30.900001525878906
1358487,3.9477436542510986,9.136035919189453,-1.6131916046142578,0.8689079880714417,-0.13719600439071655,-0.17530599236488342,31.500001907348633,-177.3000030517578,-22.5
1358507,4.165467739105225,9.828685760498047,-1.6107990741729736,1.021347999572754,-0.2743920087814331,0.04573199898004532,24.30000114440918,-170.10000610351562,-23.700000762939453
1358527,3.8998920917510986,9.435107231140137,-1.6622393131256104,0.8231759667396545,-0.06859800219535828,-0.44969800114631653,7.500000476837158,-170.10000610351562,-36.30000305175781
1358547,3.600222587585449,8.92848014831543,-1.518684983253479,0.7926880121231079,-0.1295740008354187,-0.6250039935112,9.90000057220459,-179.70001220703125,-24.900001525878906
1358569,3.3226842880249023,8.880030632019043,-1.4953573942184448,0.8079319596290588,0.1600620001554489,-0.7088459730148315,21.900001525878906,-179.70001220703125,-26.700000762939453
1358589,3.105558395385742,8.967957496643066,-1.5814900398254395,0.6554920077323914,0.457319974899292,-0.8689079880714417,14.700000762939453,-184.5,-25.500001907348633
1358611,2.847160577774048,8.84174919128418,-1.6771929264068604,0.3734779953956604,0.6173819899559021,-1.1204339265823364,26.700000762939453,-179.70001220703125,-20.100000381469727
1358632,2.879460334777832,8.729896545410156,-1.630537748336792,0.19817200303077698,0.5411620140075684,-1.0289700031280518,17.100000381469727,-179.70001220703125,-17.100000381469727
1358652,2.7113821506500244,8.63359546661377,-1.7651199102401733,0.02286599949002266,0.6402480006217957,-0.7698220014572144,14.700000762939453,-182.10000610351562,-29.100000381469727
1358672,2.868095636367798,8.97334098815918,-1.722651720046997,-0.228659987449646,0.44969800114631653,-0.44969800114631653,9.90000057220459,-172.5,-20.100000381469727
1358735,2.9261155128479004,9.11868953704834,-1.8961132764816284,-0.5030519962310791,0.04573199898004532,0.09908600151538849,2.700000047683716,-174.90000915527344,-23.100000381469727
1358755,2.999088764190674,9.30411434173584,-1.7764846086502075,-0.6173819899559021,-0.19817200303077698,-0.007621999830007553,29.100000381469727,-182.10000610351562,-25.500001907348633
1358775,3.1366617679595947,9.177906036376953,-1.3589807748794556,-0.9908599853515625,-0.26677000522613525,-0.19054999947547913,19.5,-174.90000915527344,-17.100000381469727
1358795,2.8926193714141846,8.68443775177002,-1.3123257160186768,-0.9984819889068604,0.1448179930448532,-0.46494197845458984,24.30000114440918,-172.5,-29.100000381469727
1358816,2.817253351211548,8.396132469177246,-1.3984582424163818,-0.510673999786377,0.25152599811553955,-0.7317119836807251,19.5,-182.10000610351562,-29.100000381469727
1358836,2.8782639503479004,8.188577651977539,-1.4642540216445923,0.12195199728012085,0.114329993724823,-0.8307979702949524,21.900001525878906,-186.90000915527344,-25.500001907348633
1358856,3.0929973125457764,8.393141746520996,-1.3888880014419556,0.33536797761917114,0.08384199440479279,-0.49542999267578125,12.300000190734863,-177.3000030517578,-29.700000762939453
1358876,3.263468027114868,8.918312072753906,-1.5180869102478027,0.28201398253440857,0.1600620001554489,-0.22103799879550934,24.30000114440918,-182.10000610351562,-19.5
1358896,3.3250768184661865,9.01820182800293,-1.5569661855697632,0.02286599949002266,0.26677000522613525,-0.2134159952402115,12.300000190734863,-165.3000030517578,-20.700000762939453
1358920,3.371731996536255,8.84174919128418,-1.5587605237960815,-0.19817200303077698,0.2439039945602417,-0.114329993724823,21.900001525878906,-186.90000915527344,-21.30000114440918
1358940,3.487173557281494,8.99008846282959,-1.5910602807998657,-0.35061198472976685,0.2743920087814331,0.09908600151538849,24.30000114440918,-182.10000610351562,-27.900001525878906
1358960,3.594241142272949,9.027771949768066,-1.5755085945129395,-0.6173819899559021,0.1600620001554489,0.2896359860897064,29.100000381469727,-170.10000610351562,-21.30000114440918
1358980,3.6761868000030518,8.742457389831543,-1.24593186378479,-0.800309956073761,0.3277460038661957,0.4344539940357208,17.100000381469727,-184.5,-20.100000381469727
1359000,3.6414945125579834,8.621034622192383,-1.3320643901824951,-0.7774440050125122,0.8384199738502502,0.6478700041770935,21.900001525878906,-184.5,-20.700000762939453
1359020,3.558352470397949,8.45833969116211,-1.342831015586853,-0.6554920077323914,1.0061039924621582,0.8384199738502502,12.300000190734863,-186.90000915527344,-24.900001525878906
1359040,3.7102808952331543,8.62582015991211,-1.2022674083709717,-0.5945159792900085,1.1509219408035278,1.2195199728012085,26.700000762939453,-182.10000610351562,-27.900001525878906
1359064,3.440518379211426,8.84593677520752,-1.2943813800811768,-0.5487840175628662,1.7225719690322876,0.8155539631843567,19.5,-167.70001220703125,-23.100000381469727
1359085,3.275430917739868,8.846534729003906,-1.3284755945205688,-0.07621999830007553,1.3948259353637695,0.1600620001554489,14.700000762939453,-162.90000915527344,-24.30000114440918
1359105,3.1934852600097656,8.834571838378906,-1.4313560724258423,0.060975998640060425,1.1585439443588257,-0.739333987236023,14.700000762939453,-170.10000610351562,-27.30000114440918
1359149,2.9398727416992188,8.891395568847656,-1.9200389385223389,0.7926880121231079,0.13719600439071655,-2.179892063140869,12.300000190734863,-174.90000915527344,-27.30000114440918
1359169,2.882451057434082,8.824402809143066,-2.021125078201294,0.7240899801254272,-0.8384199738502502,-2.6677000522613525,33.900001525878906,-174.90000915527344,-22.5
1359189,3.3071324825286865,9.03195858001709,-1.9128612279891968,0.35061198472976685,-1.7225719690322876,-2.538125991821289,31.500001907348633,-184.5,-20.700000762939453
1359209,3.8101706504821777,8.632997512817383,-1.6610430479049683,-0.739333987236023,-2.0045859813690186,-1.8521459102630615,17.100000381469727,-170.10000610351562,-22.5
1359229,4.230067253112793,8.634193420410156,-1.3063442707061768,-1.5929979085922241,-1.935987949371338,-0.3048799932003021,29.100000381469727,-179.70001220703125,-20.100000381469727
1359249,4.50760555267334,8.653932571411133,-0.9444677233695984,-2.446661949157715,-1.2804960012435913,1.3338500261306763,24.30000114440918,-184.5,-19.5
1359269,4.357471466064453,8.66051197052002,-0.7847635746002197,-3.239349842071533,-0.18292799592018127,2.39330792427063,24.30000114440918,-174.90000915527344,-23.100000381469727
1359289,3.9034810066223145,8.397329330444336,-1.0539278984069824,-3.3308138847351074,0.4725639820098877,2.652456045150757,12.300000190734863,-184.5,-24.900001525878906
1359309,3.8741719722747803,8.93446159362793,-0.8750831484794617,-2.75154185295105,0.36585599184036255,2.545747995376587,24.30000114440918,-179.70001220703125,-27.30000114440918
1359329,3.3908724784851074,8.819618225097656,-0.9881321787834167,-2.1112940311431885,0.914639949798584,1.2881180047988892,12.300000190734863,-179.70001220703125,-17.700000762939453
1359349,3.568521022796631,9.116296768188477,-1.0186375379562378,-1.2500079870224,0.5868939757347107,0.426831990480423,9.90000057220459,-184.5,-27.900001525878906
1359373,3.4273593425750732,8.70537281036377,-1.104171872138977,-0.19817200303077698,0.6783579587936401,-0.46494197845458984,21.900001525878906,-179.70001220703125,-34.5
1359393,3.3765170574188232,9.10493278503418,-1.019235610961914,0.39634400606155396,0.7621999979019165,-0.6936019659042358,9.90000057220459,-165.3000030517578,-28.500001907348633
1359413,3.2024574279785156,8.97334098815918,-1.2901943922042847,0.7850660085678101,1.0365920066833496,-1.0747020244598389,14.700000762939453,-170.10000610351562,-33.900001525878906
1359433,3.0331830978393555,9.311291694641113,-1.530647873878479,1.3033620119094849,1.021347999572754,-1.2881180047988892,17.100000381469727,-182.10000610351562,-23.700000762939453
1359453,2.9309005737304688,9.167737007141113,-1.723249912261963,1.3795819282531738,0.6936019659042358,-1.7149499654769897,24.30000114440918,-170.10000610351562,-27.30000114440918
1359473,3.0002851486206055,8.455946922302246,-1.4648520946502686,1.1356779336929321,0.3201240003108978,-1.4939119815826416,26.700000762939453,-182.10000610351562,-27.900001525878906
1359493,2.8722825050354004,8.364431381225586,-1.3781213760375977,1.0747020244598389,0.41158798336982727,-0.457319974899292,33.900001525878906,-174.90000915527344,-24.900001525878906
1359514,2.7652149200439453,8.730494499206543,-1.4510948657989502,0.6936019659042358,0.5182960033416748,0.3201240003108978,14.700000762939453,-179.70001220703125,-23.100000381469727
1359535,2.4278624057769775,8.306411743164062,-1.8853466510772705,0.5564059615135193,0.6936019659042358,0.8307979702949524,26.700000762939453,-165.3000030517578,-19.5
1359555,2.065387725830078,8.3817777633667,-2.1826236248016357,0.7240899801254272,0.22103799879550934,1.3795819282531738,14.700000762939453,-170.10000610351562,-31.500001907348633
1359575,2.0486397743225098,8.624025344848633,-2.2753357887268066,0.8460419774055481,-0.5030519962310791,1.5472660064697266,17.100000381469727,-167.70001220703125,-27.900001525878906
1359595,2.4601619243621826,8.927882194519043,-2.1114447116851807,0.853663980960846,-1.0518360137939453,1.5548880100250244,19.5,-174.90000915527344,-29.100000381469727
1359618,2.6515676975250244,9.593615531921387,-2.342926025390625,1.1814099550247192,-0.914639949798584,1.2728739976882935,7.500000476837158,-182.10000610351562,-21.30000114440918
1359641,2.7400929927825928,9.574474334716797,-2.3028504848480225,1.1509219408035278,-2.073184013366699,-0.18292799592018127,14.700000762939453,-167.70001220703125,-24.900001525878906
1359661,3.1665689945220947,9.590624809265137,-1.526460886001587,0.6173819899559021,-2.3018438816070557,-0.457319974899292,2.700000047683716,-167.70001220703125,-25.500001907348633
1359681,3.4177889823913574,8.938050270080566,-1.2866054773330688,-0.3201240003108978,-1.2347639799118042,-1.067080020904541,12.300000190734863,-177.3000030517578,-22.5
1359701,3.6462795734405518,9.186878204345703,-1.1442475318908691,-0.5259180068969727,-0.25152599811553955,-0.6478700041770935,9.90000057220459,-177.3000030517578,-24.900001525878906
1359721,3.3017492294311523,8.855506896972656,-1.2794277667999268,-0.800309956073761,0.6250039935112,-0.7545779943466187,9.90000057220459,-160.5,-25.500001907348633
1359741,3.558352470397949,8.881226539611816,-1.0276095867156982,-0.685979962348938,0.7850660085678101,-0.5335400104522705,17.100000381469727,-174.90000915527344,-25.500001907348633
1359764,3.8831441402435303,8.580361366271973,-0.9671971797943115,-0.49542999267578125,1.4100699424743652,-0.28201398253440857,17.100000381469727,-186.90000915527344,-26.100000381469727
1359784,3.576894998550415,8.348281860351562,-1.4792075157165527,0.114329993724823,1.7911700010299683,0.12195199728012085,17.100000381469727,-170.10000610351562,-29.700000762939453
1359804,3.5936429500579834,8.052200317382812,-1.3685511350631714,0.8460419774055481,0.9375059604644775,0.6402480006217957,7.500000476837158,-179.70001220703125,-26.700000762939453
1359824,4.119410514831543,8.500807762145996,-0.9971043467521667,0.8155539631843567,0.7240899801254272,1.1280559301376343,12.300000190734863,-177.3000030517578,-24.900001525878906
1359844,4.331153392791748,8.702980041503906,-1.1215180158615112,0.7698220014572144,1.0975680351257324,1.3109840154647827,17.100000381469727,-186.90000915527344,-23.700000762939453
1359868,4.197169303894043,8.580361366271973,-1.5079184770584106,0.7469559907913208,0.5487840175628662,1.2118979692459106,19.5,-170.10000610351562,-28.500001907348633
1359888,4.359864234924316,8.897377014160156,-1.2979702949523926,0.342989981174469,0.07621999830007553,1.0899460315704346,19.5,-186.90000915527344,-21.900001525878906
1359910,4.491455554962158,8.832179069519043,-1.0048801898956299,-0.4192099869251251,0.007621999830007553,0.6478700041770935,14.700000762939453,-174.90000915527344,-23.100000381469727
1359972,3.8466575145721436,7.227361679077148,-1.0587130784988403,-0.8993960022926331,-0.07621999830007553,0.3125019967556,2.700000047683716,-184.5,-24.900001525878906
1360012,3.3824985027313232,5.849240303039551,-0.6017318367958069,-0.6402480006217957,-0.5640279650688171,0.7621999979019165,7.500000476837158,-191.70001220703125,-22.5
1360052,2.7981128692626953,5.212815761566162,-0.3852040767669678,-0.6097599864006042,0.3582339882850647,1.3872039318084717,5.100000381469727,-165.3000030517578,-24.30000114440918
1360072,2.8716843128204346,5.751742839813232,-0.4545886516571045,-0.571649968624115,0.6783579587936401,1.4024479389190674,0.30000001192092896,-177.3000030517578,-21.30000114440918
1360112,3.43393874168396,8.55404281616211,-1.3864953517913818,-0.07621999830007553,1.8673899173736572,1.0747020244598389,14.700000762939453,-182.10000610351562,-15.90000057220459
1360132,3.46982741355896,10.434603691101074,-2.074958086013794,0.7774440050125122,2.4695279598236084,1.0747020244598389,9.90000057220459,-177.3000030517578,-24.30000114440918
1360155,3.3280675411224365,14.43199348449707,-3.121109962463379,2.278977870941162,3.8414878845214844,2.3094658851623535,-4.5,-167.70001220703125,-26.100000381469727
1360176,6.920514106750488,19.599349975585938,-6.3205766677856445,3.803377866744995,8.727190017700195,1.7454379796981812,-11.700000762939453,-172.5,-24.900001525878906
1360196,8.340505599975586,19.559873580932617,-7.800382614135742,4.939055919647217,7.561023712158203,-0.5487840175628662,-6.900000095367432,-167.70001220703125,-24.30000114440918
1360220,10.734273910522461,19.598752975463867,-7.541984558105469,0.4725639820098877,-4.939055919647217,-1.0899460315704346,-6.900000095367432,-182.10000610351562,-24.900001525878906
1360240,8.233437538146973,19.253623962402344,-5.104552268981934,-0.17530599236488342,-8.269869804382324,-3.208861827850342,-9.300000190734863,-167.70001220703125,-27.900001525878906
1360260,6.874457359313965,15.141989707946777,-3.847853660583496,-0.8917739987373352,-5.708878040313721,-2.8658719062805176,0.30000001192092896,-186.90000915527344,-27.30000114440918
1360282,4.160682678222656,9.236523628234863,-2.325579881668091,-2.1036720275878906,-7.225656032562256,-6.760714054107666,7.500000476837158,-174.90000915527344,-29.700000762939453
1360302,0.7889505624771118,3.48478102684021,-0.22849062085151672,-2.6600780487060547,-6.105221748352051,-8.346089363098145,19.5,-177.3000030517578,-18.900001525878906
1360322,-0.6962383985519409,1.2022674083709717,-0.32479164004325867,-2.3628199100494385,-2.28659987449646,-4.794238090515137,26.700000762939453,-179.70001220703125,-18.30000114440918
1360342,-0.6196761131286621,0.7674174308776855,0.016748003661632538,-2.439039945602417,-2.7667858600616455,-4.07014799118042,24.30000114440918,-184.5,-26.100000381469727
1360366,0.05622543767094612,-0.5245713591575623,1.0413669347763062,-1.7911700010299683,-2.7286758422851562,-3.1250200271606445,36.30000305175781,-179.70001220703125,-21.900001525878906
1360386,0.8673073053359985,0.2266961932182312,1.4971518516540527,-1.882633924484253,-1.4634239673614502,-0.8384199738502502,19.5,-179.70001220703125,-28.500001907348633
1360408,0.9037940502166748,0.3780263662338257,1.8267285823822021,-2.3170878887176514,-0.10670799762010574,0.3125019967556,36.30000305175781,-179.70001220703125,-25.500001907348633
1360428,0.5843856930732727,-0.12261930853128433,1.8171583414077759,-2.3475759029388428,1.2804960012435913,0.6250039935112,31.500001907348633,-184.5,-24.900001525878906
1360448,0.1369747370481491,-0.709397554397583,1.6514726877212524,-1.9588539600372314,2.2180018424987793,0.800309956073761,21.900001525878906,-184.5,-20.100000381469727
1360468,-0.14893759787082672,-1.0652925968170166,1.2878018617630005,-1.1737879514694214,2.903981924057007,1.0289700031280518,17.100000381469727,-179.70001220703125,-30.30000114440918
1360488,-0.2207147628068924,-1.120919942855835,0.9893285036087036,-0.2439039945602417,2.6219680309295654,1.371959924697876,33.900001525878906,-174.90000915527344,-27.30000114440918
1360511,-0.041271865367889404,-0.7650248408317566,0.809287428855896,0.510673999786377,2.233245849609375,1.7378159761428833,29.100000381469727,-174.90000915527344,-26.700000762939453
1360531,0.1662837415933609,-0.42767223715782166,0.6603498458862305,1.1051899194717407,1.9893419742584229,1.9969639778137207,19.5,-174.90000915527344,-24.900001525878906
1360551,2.158099889755249,4.3802008628845215,-0.6101058125495911,3.147886037826538,3.696669816970825,5.746987819671631,29.100000381469727,-179.70001220703125,-21.900001525878906
1360571,3.296365976333618,7.474394798278809,-1.3691492080688477,3.1707520484924316,4.93143367767334,8.323224067687988,26.700000762939453,-170.10000610351562,-28.500001907348633
1360591,5.435923099517822,15.182662963867188,-2.336346387863159,2.339953899383545,7.545779705047607,11.737879753112793,17.100000381469727,-174.90000915527344,-23.100000381469727
1360611,10.329331398010254,19.599349975585938,-5.208030700683594,0.6478700041770935,12.111357688903809,11.295804023742676,-11.700000762939453,-167.70001220703125,-23.700000762939453
1360634,10.439987182617188,19.599349975585938,-5.127281665802002,0.967993974685669,-2.942091941833496,-3.765267848968506,-11.700000762939453,-174.90000915527344,-23.700000762939453
1360655,16.409454345703125,19.598752975463867,-4.9107537269592285,-0.28201398253440857,6.158576011657715,11.623549461364746,-16.5,-162.90000915527344,-26.100000381469727
1360675,19.15672492980957,19.599349975585938,-7.945731163024902,-1.6158639192581177,8.673835754394531,5.487839698791504,-33.30000305175781,-165.3000030517578,-26.700000762939453
1360695,11.440680503845215,19.599349975585938,-6.3086137771606445,-1.1356779336929321,-8.064075469970703,-4.504601955413818,-35.70000076293945,-177.3000030517578,-20.100000381469727
1360717,9.304712295532227,18.18952751159668,-0.6453962922096252,-3.003067970275879,-8.269869804382324,-3.155508041381836,-18.900001525878906,-174.90000915527344,-23.700000762939453
1360738,5.320481777191162,10.4154634475708,-1.552779197692871,-1.2271419763565063,-2.6677000522613525,-8.186027526855469,-11.700000762939453,-160.5,-29.100000381469727
1360758,1.403841495513916,3.6349148750305176,-0.47731807827949524,-0.48018598556518555,-5.175337791442871,-11.242449760437012,-11.700000762939453,-158.10000610351562,-20.700000762939453
1360778,-0.8954200148582458,-0.4204944968223572,0.5365342497825623,0.7926880121231079,-3.2622158527374268,-8.262248039245605,5.100000381469727,-182.10000610351562,-25.500001907348633
1360798,-1.22499680519104,-0.9295141696929932,-0.1782466024160385,2.2484898567199707,-1.2881180047988892,-4.618931770324707,14.700000762939453,-172.5,-24.900001525878906
1360818,0.4653552174568176,0.605918824672699,0.08254373073577881,3.0640439987182617,-2.6143460273742676,-3.0259339809417725,17.100000381469727,-182.10000610351562,-18.900001525878906
1360838,1.1885100603103638,1.0353854894638062,0.4665515124797821,2.5000159740448,-2.0198299884796143,-3.1250200271606445,24.30000114440918,-184.5,-26.700000762939453
1360858,0.9337011575698853,0.9043921828269958,0.12441373616456985,1.4481799602508545,-0.914639949798584,-2.6067240238189697,12.300000190734863,-179.70001220703125,-14.100000381469727
1360881,0.8571388721466064,0.8421853184700012,0.2781364917755127,0.342989981174469,-0.8307979702949524,-1.9436099529266357,21.900001525878906,-174.90000915527344,-18.900001525878906
1360901,0.406139075756073,-0.21712589263916016,0.34931549429893494,-0.48018598556518555,-0.3887220025062561,-2.080806016921997,31.500001907348633,-179.70001220703125,-17.700000762939453
1360921,0.032299719750881195,-0.7716044187545776,0.33316564559936523,-0.114329993724823,-0.1448179930448532,-2.027451992034912,24.30000114440918,-179.70001220703125,-27.30000114440918
1360941,-0.17585402727127075,-0.7883524298667908,0.412120521068573,0.09146399796009064,-0.13719600439071655,-1.6158639192581177,26.700000762939453,-170.10000610351562,-18.30000114440918
1360964,-0.2721550464630127,-0.6830793023109436,0.5478989481925964,0.015243999660015106,0.05335399881005287,-1.021347999572754,21.900001525878906,-174.90000915527344,-23.700000762939453
1360984,-0.07775858789682388,-0.0059814294800162315,0.5592637062072754,-0.20579399168491364,0.3734779953956604,-0.7164679765701294,38.70000076293945,-186.90000915527344,-21.900001525878906
1361024,-0.13757288455963135,1.0365817546844482,-0.30983805656433105,0.4192099869251251,2.1646480560302734,0.36585599184036255,26.700000762939453,-179.70001220703125,-20.700000762939453
1361085,6.101058483123779,18.772716522216797,-5.890511989593506,2.28659987449646,9.672317504882812,14.382713317871094,12.300000190734863,-179.70001220703125,-17.100000381469727
1361155,19.599349975585938,19.599349975585938,-8.886012077331543,-3.9863059520721436,7.294253826141357,8.620481491088867,-9.300000190734863,-167.70001220703125,-20.700000762939453
1361195,10.925081253051758,19.599349975585938,-3.6044094562530518,-5.403997898101807,-13.224169731140137,-1.2804960012435913,-6.900000095367432,-165.3000030517578,-20.700000762939453
1361215,6.71355676651001,15.013388633728027,-1.81656014919281,-3.6890478134155273,-6.432967662811279,-5.914671897888184,-2.1000001430511475,-182.10000610351562,-23.100000381469727
1361255,-0.4402332305908203,0.21533146500587463,1.1137422323226929,-3.2774598598480225,-7.019861698150635,-11.71501350402832,21.900001525878906,-165.3000030517578,-17.700000762939453
1361297,0.7363139986991882,-0.4707385301589966,0.9857395887374878,-0.12195199728012085,-0.20579399168491364,-0.8612859845161438,31.500001907348633,-170.10000610351562,-21.900001525878906
1361317,1.211837649345398,-0.01734614558517933,1.1556122303009033,0.8307979702949524,0.2134159952402115,-0.44969800114631653,29.100000381469727,-172.5,-15.90000057220459
1361337,1.535433053970337,0.3971669375896454,0.9319067597389221,1.3414719104766846,1.3643379211425781,0.4344539940357208,43.5,-182.10000610351562,-20.100000381469727
1361379,0.7040143013000488,0.05622543767094612,0.509617805480957,1.242385983467102,1.6844619512557983,0.1448179930448532,29.100000381469727,-177.3000030517578,-17.100000381469727
1361399,0.2470330446958542,-0.2960807681083679,0.40374651551246643,0.9908599853515625,1.417691946029663,-0.3201240003108978,29.100000381469727,-179.70001220703125,-14.100000381469727
1361419,-0.12381559610366821,-0.5167955160140991,0.29667890071868896,0.8307979702949524,1.1280559301376343,-0.8612859845161438,17.100000381469727,-174.90000915527344,-22.5
1361439,-0.08433815836906433,-0.17047074437141418,0.179442897439003,0.49542999267578125,0.8460419774055481,-0.853663980960846,24.30000114440918,-174.90000915527344,-17.100000381469727
1361459,-0.15133017301559448,-0.32000648975372314,0.2326776087284088,-0.015243999660015106,0.571649968624115,-1.14329993724823,19.5,-182.10000610351562,-24.900001525878906
1361479,-0.45399051904678345,-0.36725977063179016,-0.050842151045799255,-0.07621999830007553,0.8993960022926331,-0.426831990480423,26.700000762939453,-177.3000030517578,-24.900001525878906
1361499,-0.5449082255363464,0.2577996253967285,-0.4354480803012848,-0.10670799762010574,1.1737879514694214,0.7240899801254272,21.900001525878906,-167.70001220703125,-21.30000114440918
1361519,0.13458216190338135,1.8967113494873047,-0.8930274844169617,0.5640279650688171,1.471045970916748,2.3628199100494385,41.10000228881836,-170.10000610351562,-21.30000114440918
1361539,2.1868107318878174,7.05808687210083,-1.7088944911956787,1.196653962135315,2.3018438816070557,7.583889961242676,24.30000114440918,-170.10000610351562,-20.700000762939453
1361559,5.820529460906982,19.317625045776367,-4.6051025390625,0.7621999979019165,11.013790130615234,17.515356063842773,12.300000190734863,-182.10000610351562,-19.5
1361580,15.324422836303711,19.526376724243164,-6.65374231338501,-3.9863059520721436,10.686043739318848,12.812582015991211,-6.900000095367432,-165.3000030517578,-27.30000114440918
1361600,9.738964080810547,19.599349975585938,-3.953126907348633,-1.2576299905776978,-6.9283976554870605,-3.7957558631896973,-9.300000190734863,-172.5,-22.5
1361620,18.98924446105957,19.598752975463867,-3.4566681385040283,-0.7774440050125122,10.404029846191406,19.436100006103516,-6.900000095367432,-179.70001220703125,-21.30000114440918
1361681,7.552751064300537,15.982379913330078,-0.817661464214325,1.2728739976882935,-5.670767784118652,-4.253076076507568,-26.100000381469727,-174.90000915527344,-21.900001525878906
1361701,2.381805419921875,7.398430347442627,-2.340533494949341,1.3262280225753784,-1.1509219408035278,-12.073247909545898,-14.100000381469727,-170.10000610351562,-21.30000114440918
1361721,-1.116134762763977,-0.39357808232307434,-0.6788922548294067,-1.3109840154647827,-4.169233798980713,-11.997027397155762,5.100000381469727,-170.10000610351562,-17.700000762939453
1361741,-0.5586655139923096,-1.5928547382354736,0.43963509798049927,-2.599102020263672,-0.7012239694595337,-0.457319974899292,-2.1000001430511475,-165.3000030517578,-17.700000762939453
1361765,0.9947117567062378,1.0802462100982666,-0.32419347763061523,-2.644834041595459,-0.41158798336982727,2.3170878887176514,-4.5,-177.3000030517578,-18.900001525878906
1361785,1.0730684995651245,0.08852516114711761,-0.4533923864364624,-3.9405739307403564,-1.5167779922485352,1.0594580173492432,-16.5,-172.5,-17.100000381469727
1361805,1.646687626838684,0.1943964660167694,0.2733513414859772,-3.1783738136291504,-2.789651870727539,1.935987949371338,9.90000057220459,-189.3000030517578,-26.700000762939453
1361845,1.431954264640808,-1.1544159650802612,0.503038227558136,-1.6234859228134155,-2.8125178813934326,-0.5792719721794128,-2.1000001430511475,-167.70001220703125,-18.900001525878906
1361865,1.2513151168823242,-1.4678428173065186,1.1675751209259033,0.114329993724823,-2.4542839527130127,-0.739333987236023,9.90000057220459,-184.5,-23.700000762939453
1361885,1.332662582397461,-0.6914532780647278,1.3637659549713135,0.685979962348938,-0.571649968624115,-0.3201240003108978,2.700000047683716,-179.70001220703125,-13.500000953674316
1361909,0.9169531464576721,0.050244010984897614,1.1843230724334717,0.8079319596290588,2.7210538387298584,-1.189031958580017,5.100000381469727,-177.3000030517578,-18.900001525878906
1361929,0.34931549429893494,-0.0017944289138540626,0.6220687031745911,1.1128119230270386,4.5503339767456055,-1.7454379796981812,9.90000057220459,-179.70001220703125,-19.5
1361971,-0.6053206920623779,1.446907877922058,-1.5665364265441895,3.1173980236053467,6.448211669921875,-0.6783579587936401,0.30000001192092896,-167.70001220703125,-20.100000381469727
1361991,1.6018269062042236,7.182500839233398,-3.2802159786224365,4.123501777648926,6.6844940185546875,4.596065998077393,-4.5,-162.90000915527344,-23.700000762939453
1362011,2.828019857406616,12.666873931884766,-4.742077350616455,4.146368026733398,8.940606117248535,8.384200096130371,-2.1000001430511475,-172.5,-25.500001907348633
1362031,10.590121269226074,19.599349975585938,-8.52712631225586,0.48018598556518555,11.333913803100586,16.128150939941406,-16.5,-158.10000610351562,-18.30000114440918
1362051,12.025066375732422,19.55209732055664,-7.2357354164123535,-3.765267848968506,-6.493943691253662,-1.9588539600372314,-35.70000076293945,-165.3000030517578,-14.100000381469727
1362071,14.888376235961914,19.599349975585938,-2.9159469604492188,-7.134191989898682,-5.990891933441162,2.088428020477295,-33.30000305175781,-158.10000610351562,-23.700000762939453
1362091,19.599349975585938,19.599349975585938,-4.069764614105225,-7.4466938972473145,7.1875457763671875,8.551883697509766,-28.500001907348633,-170.10000610351562,-22.5
1362111,14.992453575134277,19.599349975585938,-7.812943458557129,-0.739333987236023,4.4436259269714355,-2.7058098316192627,-38.10000228881836,-162.90000915527344,-21.900001525878906
1362131,11.587225914001465,19.599349975585938,-6.546674728393555,-1.2652519941329956,-6.074733734130859,-5.625035762786865,-23.700000762939453,-170.10000610351562,-24.30000114440918
1362151,6.89778470993042,15.532576560974121,-2.333953857421875,-1.7606819868087769,-10.007685661315918,-9.939087867736816,-21.30000114440918,-165.3000030517578,-26.100000381469727
1362171,3.792226552963257,7.989993572235107,-1.3781213760375977,-0.5564059615135193,-7.477181911468506,-15.122047424316406,-9.300000190734863,-179.70001220703125,-23.100000381469727
1362192,0.5449082255363464,1.1502289772033691,0.3253897726535797,-1.1204339265823364,-7.629621982574463,-17.408647537231445,7.500000476837158,-174.90000915527344,-27.30000114440918
1362212,-0.8427834510803223,-2.202362537384033,1.0335910320281982,-0.6783579587936401,-3.2698378562927246,-10.564091682434082,12.300000190734863,-189.3000030517578,-25.500001907348633
1362232,0.2428460419178009,-1.0742647647857666,0.5544785261154175,0.9070180058479309,0.07621999830007553,-4.451247692108154,29.100000381469727,-170.10000610351562,-23.700000762939453
1362252,0.9133642911911011,-0.00717771565541625,0.022131290286779404,0.8841519951820374,0.16768398880958557,-2.2027578353881836,31.500001907348633,-194.10000610351562,-27.900001525878906
1362272,1.2465299367904663,0.7076031565666199,0.21592961251735687,0.007621999830007553,0.07621999830007553,-0.5487840175628662,45.900001525878906,-182.10000610351562,-26.700000762939453
1362295,0.7375102639198303,-0.1985834687948227,0.17585402727127075,-0.8384199738502502,-0.16768398880958557,0.739333987236023,14.700000762939453,-174.90000915527344,-24.900001525878906
1362316,0.16269488632678986,-0.3122306168079376,0.16568560898303986,-0.6783579587936401,-0.5411620140075684,1.0594580173492432,19.5,-184.5,-15.90000057220459
1362337,0.011962858960032463,-0.1280025988817215,0.38460594415664673,-0.6936019659042358,-1.3490939140319824,0.4725639820098877,33.900001525878906,-174.90000915527344,-24.30000114440918
1362357,-0.040075577795505524,-0.517991840839386,0.6992291212081909,-0.967993974685669,-1.806414008140564,-0.6707359552383423,12.300000190734863,-184.5,-24.900001525878906
1362377,0.060412440448999405,-0.9235327243804932,0.7739970088005066,-0.9527499675750732,-1.4634239673614502,-0.8612859845161438,21.900001525878906,-179.70001220703125,-29.100000381469727
1362397,0.18362988531589508,-0.9683934450149536,0.7739970088005066,-0.7850660085678101,-0.8612859845161438,-0.030487999320030212,26.700000762939453,-170.10000610351562,-27.30000114440918
1362417,0.39836323261260986,-0.349913626909256,0.6902570128440857,-0.457319974899292,-0.2743920087814331,1.1280559301376343,21.900001525878906,-191.70001220703125,-17.100000381469727
1362461,3.48179030418396,7.7513346672058105,-0.6220687031745911,-0.02286599949002266,2.042695999145508,5.952781677246094,14.700000762939453,-186.90000915527344,-29.100000381469727
1362481,3.0535199642181396,9.99915599822998,-1.1897063255310059,1.5320219993591309,4.199721813201904,4.420759677886963,7.500000476837158,-177.3000030517578,-23.700000762939453
1362501,8.116202354431152,19.442636489868164,-4.478296279907227,2.187514066696167,12.812582015991211,15.541257858276367,-2.1000001430511475,-182.10000610351562,-25.500001907348633
1362521,11.889287948608398,19.515012741088867,-7.147210597991943,-0.15243999660015106,5.022897720336914,2.03507399559021,-14.100000381469727,-174.90000915527344,-26.700000762939453
1362541,9.90345287322998,19.172874450683594,-3.6109890937805176,-0.3125019967556,-4.8552141189575195,-1.2652519941329956,-9.300000190734863,-179.70001220703125,-19.5
1362561,18.31812858581543,19.599349975585938,-4.068568706512451,-3.4832539558410645,8.788166046142578,14.413201332092285,-21.30000114440918,-186.90000915527344,-29.700000762939453
1362581,15.563081741333008,19.599349975585938,-7.431328296661377,-0.9375059604644775,5.14484977722168,1.753059983253479,-18.900001525878906,-172.5,-20.100000381469727
1362602,12.284062385559082,19.599349975585938,-5.8827362060546875,-2.080806016921997,-3.5213639736175537,0.9756159782409668,-28.500001907348633,-165.3000030517578,-20.700000762939453
1362623,6.470112323760986,14.990060806274414,-2.1598942279815674,-1.1128119230270386,-3.3308138847351074,-4.862835884094238,-21.30000114440918,-170.10000610351562,-17.700000762939453
1362647,3.520071268081665,8.196950912475586,-1.525862693786621,-0.9222619533538818,-5.076251983642578,-10.442139625549316,-21.30000114440918,-167.70001220703125,-23.700000762939453
1362667,0.33496007323265076,1.5623494386672974,1.007272720336914,-1.295740008354187,-5.449729919433594,-13.513805389404297,7.500000476837158,-162.90000915527344,-23.700000762939453
1362687,-1.440926432609558,-1.9565256834030151,0.9707860350608826,-0.22103799879550934,-1.2728739976882935,-9.603719711303711,5.100000381469727,-179.70001220703125,-25.500001907348633
1362707,-1.096994161605835,-1.5773030519485474,0.47193479537963867,0.7240899801254272,0.8917739987373352,-3.6356940269470215,21.900001525878906,-172.5,-26.100000381469727
1362727,0.1914057433605194,0.6220687031745911,0.040673721581697464,2.14178204536438,0.6631140112876892,-1.6692179441452026,24.30000114440918,-182.10000610351562,-27.30000114440918
1362747,0.30266034603118896,0.47911250591278076,-0.03768300637602806,2.03507399559021,0.5259180068969727,-1.7759259939193726,19.5,-170.10000610351562,-27.30000114440918
1362767,0.16389118134975433,0.0352904349565506,-0.2853142023086548,2.027451992034912,0.12195199728012085,-0.9527499675750732,24.30000114440918,-172.5,-22.5
1362789,-0.09988987445831299,-0.4324573576450348,-0.2572014629840851,1.9207439422607422,-0.5335400104522705,-0.3201240003108978,24.30000114440918,-167.70001220703125,-28.500001907348633
1362809,-0.03469229117035866,-0.18303175270557404,-0.14654502272605896,1.5091559886932373,-1.1814099550247192,0.5868939757347107,26.700000762939453,-189.3000030517578,-18.30000114440918
1362829,-0.2177240401506424,-0.5114122629165649,0.12142302095890045,0.7088459730148315,-1.4634239673614502,0.17530599236488342,19.5,-186.90000915527344,-21.900001525878906
1362851,-0.2601921856403351,-0.5383286476135254,0.26976248621940613,-0.007621999830007553,-1.471045970916748,0.25152599811553955,2.700000047683716,-179.70001220703125,-23.100000381469727
1362871,0.07237529754638672,-0.020935004577040672,0.40075579285621643,-0.7317119836807251,-1.3262280225753784,0.5335400104522705,24.30000114440918,-179.70001220703125,-21.900001525878906
1362891,0.6968365907669067,1.1831268072128296,0.24763119220733643,-0.9070180058479309,-0.6936019659042358,1.0899460315704346,26.700000762939453,-184.5,-22.5
1362911,1.82254159450531,4.434631824493408,-0.4204944968223572,-0.060975998640060425,0.685979962348938,3.361301898956299,21.900001525878906,-179.70001220703125,-18.30000114440918
1362971,11.667974472045898,19.567649841308594,-5.154198169708252,-0.6631140112876892,1.1814099550247192,3.7728898525238037,-14.100000381469727,-174.90000915527344,-24.30000114440918
1362996,13.235109329223633,19.599349975585938,-4.606298923492432,-0.44969800114631653,1.577754020690918,5.693634033203125,-16.5,-174.90000915527344,-21.900001525878906
1363016,19.528770446777344,19.599349975585938,-5.038756370544434,-4.382649898529053,7.263765811920166,12.766849517822266,-26.100000381469727,-177.3000030517578,-19.5
1363059,8.752626419067383,18.84808349609375,-2.8842453956604004,-2.39330792427063,-6.631139755249023,-4.245453834533691,-26.100000381469727,-179.70001220703125,-23.700000762939453
1363079,4.94185733795166,11.915606498718262,-1.6574541330337524,-1.3109840154647827,-5.533571720123291,-9.169265747070312,-30.900001525878906,-172.5,-26.700000762939453
1363119,-1.443917155265808,-0.43604621291160583,0.362474650144577,0.09146399796009064,-4.756127834320068,-11.295804023742676,7.500000476837158,-172.5,-23.700000762939453
1363139,-0.9235327243804932,-0.6525740027427673,-0.3505117893218994,0.853663980960846,-1.4100699424743652,-4.580821990966797,2.700000047683716,-174.90000915527344,-26.100000381469727
1363159,0.6394148468971252,0.9660009145736694,-0.4181019365787506,2.1646480560302734,-2.4771499633789062,-2.5000159740448,17.100000381469727,-184.5,-20.700000762939453
1363179,0.9408788681030273,0.29368820786476135,0.07177715748548508,1.5853760242462158,-1.7301939725875854,-2.332331895828247,24.30000114440918,-179.70001220703125,-13.500000953674316
1363239,0.6238631010055542,-0.4976549446582794,0.4043446481227875,-0.9070180058479309,2.179892063140869,2.3704419136047363,19.5,-174.90000915527344,-27.30000114440918
1363259,0.39238178730010986,-0.4797106683254242,0.24464046955108643,-1.0061039924621582,2.5533699989318848,2.4085519313812256,9.90000057220459,-174.90000915527344,-27.900001525878906
1363279,0.04844957962632179,-0.5945541262626648,0.07775858789682388,-0.967993974685669,2.690565824508667,2.1722700595855713,7.500000476837158,-184.5,-26.700000762939453
1363299,-0.0675901547074318,-0.6166853904724121,-0.06818830221891403,-0.6402480006217957,2.4695279598236084,1.9131219387054443,0.30000001192092896,-179.70001220703125,-28.500001907348633
1363319,0.13218960165977478,-0.45279422402381897,-0.031103434041142464,-0.10670799762010574,1.829279899597168,1.875011920928955,9.90000057220459,-179.70001220703125,-26.100000381469727
1363339,1.2154265642166138,1.0742647647857666,-0.020336860790848732,0.7545779943466187,1.7835479974746704,2.75154185295105,0.30000001192092896,-186.90000915527344,-21.30000114440918
1363361,4.045240879058838,6.300837993621826,-0.4049427807331085,0.4878079891204834,3.9253299236297607,6.852177619934082,7.500000476837158,-174.90000915527344,-21.30000114440918
1363381,5.345603942871094,12.087871551513672,-2.2191104888916016,2.339953899383545,9.725671768188477,12.957399368286133,-6.900000095367432,-186.90000915527344,-20.700000762939453
1363401,11.979607582092285,19.599349975585938,-5.717648506164551,0.5030519962310791,15.304975509643555,19.24555015563965,-28.500001907348633,-170.10000610351562,-24.30000114440918
1363424,13.391822814941406,19.544321060180664,-8.472695350646973,-0.6250039935112,3.0716660022735596,4.6951518058776855,-40.5,-162.90000915527344,-30.900001525878906
1363444,13.989367485046387,19.599349975585938,-4.4669318199157715,-0.49542999267578125,-8.56712818145752,-0.3734779953956604,-45.30000305175781,-177.3000030517578,-21.900001525878906
1363464,19.599349975585938,19.599349975585938,-4.048231601715088,-5.442107677459717,2.2561118602752686,11.17385196685791,-69.30000305175781,-165.3000030517578,-24.900001525878906
1363484,15.898640632629395,19.599349975585938,-5.677573204040527,-2.5609920024871826,-3.147886037826538,-3.300325870513916,-54.900001525878906,-150.90000915527344,-26.700000762939453
1363504,9.445874214172363,16.000324249267578,-1.9098705053329468,-3.246971845626831,-7.934501647949219,-4.032037734985352,-42.900001525878906,-177.3000030517578,-29.700000762939453
1363524,5.530429840087891,10.35265827178955,-0.7973245978355408,-2.987823963165283,-5.830830097198486,-8.269869804382324,-40.5,-174.90000915527344,-18.30000114440918
1363545,3.618764877319336,7.101153373718262,-0.412120521068573,-2.7744078636169434,-5.876561641693115,-11.105254173278809,-33.30000305175781,-170.10000610351562,-23.700000762939453
1363586,-0.8254373073577881,-0.6005355715751648,1.1382660865783691,-1.92836594581604,-0.9832379817962646,-6.753091812133789,-18.900001525878906,-182.10000610351562,-26.100000381469727
1363606,0.25421077013015747,0.46116822957992554,0.7979227304458618,-0.8765299916267395,0.9832379817962646,-2.698187828063965,-6.900000095367432,-170.10000610351562,-25.500001907348633
1363649,0.20576117932796478,-0.9390844702720642,0.7237529754638672,0.7164679765701294,0.7012239694595337,-2.8582499027252197,-14.100000381469727,-189.3000030517578,-24.900001525878906
1363669,0.6519758105278015,-0.5502915382385254,0.43365365266799927,1.2118979692459106,0.5792719721794128,-0.8917739987373352,0.30000001192092896,-167.70001220703125,-24.900001525878906
1363711,0.2207147628068924,-0.4797106683254242,0.6483869552612305,0.9451279640197754,-0.3582339882850647,-0.3048799932003021,7.500000476837158,-172.5,-24.900001525878906
1363731,0.16688188910484314,-0.36307278275489807,0.9378882050514221,0.3048799932003021,-0.46494197845458984,-0.5564059615135193,-9.300000190734863,-186.90000915527344,-21.900001525878906
1363751,0.22131289541721344,-0.26258477568626404,0.7369121313095093,-0.3125019967556,-0.16768398880958557,-0.9756159782409668,0.30000001192092896,-184.5,-30.30000114440918
1363771,0.5927596688270569,0.26258477568626404,0.4551868140697479,-0.09146399796009064,0.342989981174469,-0.9603719711303711,-16.5,-177.3000030517578,-24.900001525878906
1363835,9.28018856048584,19.599349975585938,-4.4759039878845215,0.6250039935112,7.8506598472595215,8.483285903930664,-21.30000114440918,-172.5,-26.700000762939453
1363855,9.736571311950684,18.010683059692383,-5.251695156097412,-0.6173819899559021,0.18292799592018127,-4.481735706329346,-18.900001525878906,-167.70001220703125,-18.900001525878906
1363875,5.225377082824707,11.090168952941895,-1.9864327907562256,0.7545779943466187,-4.5427117347717285,-8.041210174560547,-11.700000762939453,-182.10000610351562,-30.30000114440918
1363896,9.43630313873291,19.293699264526367,-3.8107688426971436,1.7987920045852661,4.085391998291016,5.015275955200195,-14.100000381469727,-191.70001220703125,-23.100000381469727
1363916,12.251762390136719,19.51561164855957,-5.806173801422119,-2.4542839527130127,6.2805280685424805,2.339953899383545,-9.300000190734863,-172.5,-24.900001525878906
1363936,4.89400577545166,12.922280311584473,-3.962099075317383,-0.060975998640060425,-5.221069812774658,-10.49549388885498,-16.5,-172.5,-28.500001907348633
1363956,2.871086359024048,9.40938663482666,-2.429656744003296,0.739333987236023,-2.332331895828247,-6.0213799476623535,-4.5,-167.70001220703125,-22.5
1363979,2.2759339809417725,7.315886497497559,-1.720259189605713,-0.510673999786377,-3.8795979022979736,-6.242417812347412,9.90000057220459,-162.90000915527344,-24.900001525878906
1363999,1.7788771390914917,5.199656963348389,-0.8415871858596802,-0.9451279640197754,-3.5289859771728516,-5.731743812561035,2.700000047683716,-167.70001220703125,-18.900001525878906
1364019,2.459563970565796,4.84914493560791,-0.33496007323265076,-1.753059983253479,-1.935987949371338,-2.599102020263672,7.500000476837158,-184.5,-25.500001907348633
1364039,2.5893609523773193,4.9795403480529785,-0.3223990499973297,-1.8369019031524658,-0.7240899801254272,-1.3186060190200806,14.700000762939453,-186.90000915527344,-27.900001525878906
1364059,2.9141526222229004,5.3964457511901855,-0.2207147628068924,-1.829279899597168,-0.4344539940357208,-0.2591480016708374,12.300000190734863,-184.5,-23.700000762939453
1364079,3.383096694946289,5.981429576873779,-0.22250919044017792,-1.7225719690322876,-0.060975998640060425,0.39634400606155396,24.30000114440918,-170.10000610351562,-31.500001907348633
1364099,3.6588406562805176,6.648359298706055,-0.23148132860660553,-1.3948259353637695,0.16768398880958557,0.9375059604644775,17.100000381469727,-170.10000610351562,-21.900001525878906
1364119,3.7928245067596436,7.6263227462768555,-0.33196935057640076,-0.8612859845161438,0.457319974899292,1.2500079870224,5.100000381469727,-172.5,-23.100000381469727
1364143,3.9961931705474854,8.701186180114746,-0.4647570848464966,-0.6173819899559021,0.4878079891204834,0.9375059604644775,7.500000476837158,-182.10000610351562,-23.700000762939453
1364163,4.075148105621338,8.70537281036377,-0.815268874168396,-0.114329993724823,0.6097599864006042,0.19817200303077698,7.500000476837158,-167.70001220703125,-29.100000381469727
1364183,4.021913528442383,9.526622772216797,-1.0724703073501587,0.6554920077323914,0.5411620140075684,0.7469559907913208,12.300000190734863,-186.90000915527344,-23.700000762939453
1364205,4.086512565612793,11.433503150939941,-1.9308055639266968,1.2881180047988892,0.46494197845458984,0.5487840175628662,-2.1000001430511475,-174.90000915527344,-20.700000762939453
1364225,3.9369771480560303,11.177497863769531,-1.736409068107605,1.0289700031280518,-0.7240899801254272,-1.1280559301376343,12.300000190734863,-165.3000030517578,-24.30000114440918
1364246,3.552969217300415,9.552343368530273,-1.3081387281417847,0.7850660085678101,-0.914639949798584,-2.2561118602752686,9.90000057220459,-184.5,-21.900001525878906
1364266,3.3579745292663574,8.50619125366211,-1.0611056089401245,0.6250039935112,-0.9375059604644775,-2.75154185295105,12.300000190734863,-182.10000610351562,-24.30000114440918
1364288,3.067875385284424,7.022198677062988,-0.7375102639198303,0.4878079891204834,-0.6707359552383423,-2.789651870727539,14.700000762939453,-186.90000915527344,-23.100000381469727
1364309,2.879460334777832,6.2942585945129395,-0.721958577632904,0.7317119836807251,-0.02286599949002266,-1.9588539600372314,9.90000057220459,-162.90000915527344,-18.30000114440918
1364329,2.9380781650543213,6.654938697814941,-1.0599093437194824,1.1204339265823364,0.7088459730148315,-0.7850660085678101,29.100000381469727,-189.3000030517578,-24.900001525878906
1364349,3.592446804046631,8.694605827331543,-1.755549669265747,1.577754020690918,1.1051899194717407,0.05335399881005287,0.30000001192092896,-177.3000030517578,-27.900001525878906
1364369,4.223487377166748,9.73238468170166,-2.2849061489105225,1.2804960012435913,1.0747020244598389,-0.10670799762010574,9.90000057220459,-162.90000915527344,-26.100000381469727
1364391,4.196570873260498,9.393835067749023,-2.4135069847106934,0.9832379817962646,0.6783579587936401,-0.5564059615135193,12.300000190734863,-167.70001220703125,-25.500001907348633
1364412,4.429248809814453,9.631896018981934,-2.870488166809082,1.0289700031280518,0.6783579587936401,-0.08384199440479279,19.5,-177.3000030517578,-25.500001907348633
1364432,4.649365425109863,9.356152534484863,-3.0828287601470947,0.6250039935112,0.04573199898004532,0,21.900001525878906,-179.70001220703125,-17.100000381469727
1364452,4.661328315734863,8.86268424987793,-2.679680585861206,0.20579399168491364,-0.5335400104522705,0.7545779943466187,12.300000190734863,-179.70001220703125,-16.5
1364472,4.663122653961182,9.067249298095703,-2.6964285373687744,-0.12195199728012085,-0.38109999895095825,1.2652519941329956,14.700000762939453,-172.5,-18.30000114440918
1364494,4.108046054840088,8.46432113647461,-2.6186699867248535,-0.6554920077323914,-0.3048799932003021,0.6097599864006042,14.700000762939453,-177.3000030517578,-20.700000762939453
1364554,3.5810818672180176,6.929486274719238,-2.44102144241333,-0.36585599184036255,-1.4024479389190674,-0.9908599853515625,19.5,-189.3000030517578,-20.700000762939453
1364574,3.6708033084869385,6.69860315322876,-2.1263983249664307,-0.12195199728012085,-1.806414008140564,-0.5487840175628662,17.100000381469727,-174.90000915527344,-18.900001525878906
1364594,3.9190328121185303,7.05808687210083,-2.133575916290283,-0.4878079891204834,-1.5015339851379395,0.12195199728012085,21.900001525878906,-179.70001220703125,-25.500001907348633
1364615,4.047633647918701,7.477983474731445,-2.1766421794891357,-1.0365920066833496,-1.2728739976882935,0.7088459730148315,31.500001907348633,-174.90000915527344,-25.500001907348633
1364635,4.0255022048950195,7.518058776855469,-2.1981754302978516,-1.5548880100250244,-1.2042759656906128,1.0899460315704346,14.700000762939453,-182.10000610351562,-26.100000381469727
1364655,4.527344226837158,8.950611114501953,-2.5708184242248535,-1.3795819282531738,-1.0594580173492432,1.7149499654769897,26.700000762939453,-182.10000610351562,-18.900001525878906
1364677,5.290574550628662,10.283273696899414,-2.8453660011291504,-1.3567159175872803,-1.3414719104766846,1.699705958366394,17.100000381469727,-162.90000915527344,-26.100000381469727
1364697,5.313902378082275,9.555334091186523,-2.118622303009033,-1.6844619512557983,-2.0045859813690186,0.8993960022926331,7.500000476837158,-182.10000610351562,-19.5
1364717,5.521457672119141,9.89148998260498,-2.0576117038726807,-1.577754020690918,-1.5701320171356201,1.6768399477005005,9.90000057220459,-184.5,-23.100000381469727
1364737,4.614673137664795,8.08569622039795,-1.2435392141342163,-2.4009299278259277,-1.2576299905776978,1.3567159175872803,5.100000381469727,-177.3000030517578,-18.30000114440918
1364758,4.225281715393066,8.700587272644043,-1.4654502868652344,-1.6311079263687134,-0.342989981174469,1.882633924484253,14.700000762939453,-179.70001220703125,-29.100000381469727
1364778,4.099671840667725,9.682738304138184,-1.6819779872894287,-1.4481799602508545,-0.4344539940357208,0.9070180058479309,9.90000057220459,-167.70001220703125,-25.500001907348633
1364799,3.591848611831665,8.661109924316406,-1.411617398262024,-1.295740008354187,-0.6402480006217957,-0.3048799932003021,9.90000057220459,-170.10000610351562,-26.100000381469727
1364819,3.1605875492095947,8.284878730773926,-0.9019995927810669,-0.8384199738502502,-1.1280559301376343,-0.3125019967556,7.500000476837158,-170.10000610351562,-18.30000114440918
1364839,2.546294689178467,8.673670768737793,-0.8356057405471802,-0.7621999979019165,-0.4878079891204834,0.38109999895095825,-2.1000001430511475,-177.3000030517578,-26.100000381469727
1364859,1.6179767847061157,9.60976505279541,-1.0682833194732666,-0.8765299916267395,0.06859800219535828,0.7621999979019165,7.500000476837158,-182.10000610351562,-27.900001525878906
1364879,0.9576268792152405,9.942930221557617,-1.324886679649353,-1.0747020244598389,-0.2439039945602417,0.2896359860897064,9.90000057220459,-179.70001220703125,-20.700000762939453
1364902,0.6262556910514832,9.533203125,-1.61737859249115,-0.6936019659042358,-0.46494197845458984,-0.2591480016708374,19.5,-184.5,-16.5
1364925,0.6322371363639832,10.221067428588867,-1.8135695457458496,-0.015243999660015106,-0.800309956073761,-0.46494197845458984,14.700000762939453,-165.3000030517578,-30.30000114440918
1364945,0.7823709845542908,11.219965934753418,-2.149127721786499,0.3201240003108978,-1.2652519941329956,-1.021347999572754,9.90000057220459,-182.10000610351562,-24.30000114440918
1364965,0.9504491686820984,10.571578979492188,-1.8602246046066284,0.19054999947547913,-1.8521459102630615,-2.439039945602417,7.500000476837158,-194.10000610351562,-30.900001525878906
1364985,1.128097653388977,10.04700756072998,-1.729231357574463,0.6936019659042358,-1.5853760242462158,-2.736297845840454,19.5,-177.3000030517578,-24.900001525878906
1365005,1.3063442707061768,9.590025901794434,-1.6951371431350708,0.914639949798584,-1.2652519941329956,-2.8734939098358154,5.100000381469727,-170.10000610351562,-23.700000762939453
1365025,1.1424530744552612,9.2760009765625,-1.7926344871520996,1.2881180047988892,-0.8765299916267395,-2.7058098316192627,21.900001525878906,-186.90000915527344,-20.100000381469727
1365045,0.8966163396835327,9.20123291015625,-2.1592960357666016,1.882633924484253,-0.914639949798584,-3.041177988052368,19.5,-167.70001220703125,-21.900001525878906
1365065,1.040170669555664,9.490734100341797,-2.3207948207855225,2.2484898567199707,-1.6920839548110962,-3.650938034057617,19.5,-182.10000610351562,-24.30000114440918
1365085,1.3553919792175293,9.046314239501953,-2.0259101390838623,2.2180018424987793,-2.545747995376587,-4.375028133392334,26.700000762939453,-184.5,-24.30000114440918
1365108,1.4612632989883423,8.670082092285156,-1.606611967086792,2.1189160346984863,-2.850627899169922,-3.96343994140625,24.30000114440918,-172.5,-18.30000114440918
1365168,1.8937206268310547,9.340002059936523,-1.1920989751815796,0.08384199440479279,-1.524399995803833,-2.0579400062561035,48.30000305175781,-182.10000610351562,-20.100000381469727
1365241,1.7848585844039917,8.64854907989502,-1.202865481376648,-0.06859800219535828,0.02286599949002266,-2.8658719062805176,38.70000076293945,-184.5,-26.700000762939453
1365275,1.7687088251113892,8.545668601989746,-1.4923666715621948,0.7012239694595337,0.571649968624115,-3.056421995162964,45.900001525878906,-174.90000915527344,-23.700000762939453
1365295,1.8428784608840942,8.81483268737793,-1.8081861734390259,1.471045970916748,0.7164679765701294,-2.743919849395752,33.900001525878906,-160.5,-26.700000762939453
1365337,1.7388015985488892,8.62761402130127,-2.3477110862731934,2.187514066696167,0.5487840175628662,-2.6600780487060547,55.500003814697266,-174.90000915527344,-23.100000381469727
1365357,1.746577501296997,9.02418327331543,-3.084623336791992,1.9588539600372314,0.8993960022926331,-2.5228819847106934,57.900001525878906,-174.90000915527344,-14.100000381469727
1365377,1.7711013555526733,9.04093074798584,-3.261075496673584,2.03507399559021,0.9451279640197754,-2.545747995376587,65.10000610351562,-172.5,-22.5
1365399,2.1269965171813965,10.959175109863281,-4.573999404907227,2.2027578353881836,1.5625100135803223,-2.3018438816070557,62.70000076293945,-172.5,-19.5
1365419,1.5784993171691895,9.700084686279297,-4.596728801727295,1.2118979692459106,0.030487999320030212,-3.346057891845703,69.9000015258789,-170.10000610351562,-15.90000057220459
1365439,1.655659794807434,8.899170875549316,-4.059596538543701,0.685979962348938,-0.5182960033416748,-2.591480016708374,48.30000305175781,-162.90000915527344,-23.700000762939453
1365459,1.6969316005706787,8.68443775177002,-3.8819479942321777,0.09908600151538849,-0.16768398880958557,-1.4329359531402588,69.9000015258789,-174.90000915527344,-23.700000762939453
1365479,1.7842605113983154,8.50320053100586,-3.6911401748657227,-0.3048799932003021,-0.22103799879550934,-0.7012239694595337,79.5,-165.3000030517578,-15.90000057220459
1365499,2.0259101390838623,8.491835594177246,-3.3071324825286865,-0.5335400104522705,-0.3201240003108978,-0.2134159952402115,77.10000610351562,-162.90000915527344,-18.30000114440918
1365519,2.3536925315856934,8.79509449005127,-2.987126111984253,-0.5564059615135193,-0.342989981174469,-0.16768398880958557,60.30000305175781,-167.70001220703125,-21.30000114440918
1365539,2.5289485454559326,8.28308391571045,-2.6605398654937744,-0.7926880121231079,-0.28201398253440857,-0.6021379828453064,79.5,-172.5,-23.100000381469727
1365561,2.835197687149048,8.353066444396973,-2.321392774581909,-0.6326259970664978,-0.2591480016708374,-0.5640279650688171,74.70000457763672,-167.70001220703125,-21.900001525878906
1365581,2.862114191055298,8.003750801086426,-2.2107365131378174,-0.6707359552383423,0.04573199898004532,-0.9222619533538818,74.70000457763672,-174.90000915527344,-23.700000762939453
1365602,3.3543858528137207,8.51516342163086,-2.176044225692749,-0.038109999150037766,-0.038109999150037766,-0.8612859845161438,77.10000610351562,-170.10000610351562,-17.100000381469727
1365623,3.433340549468994,8.478078842163086,-2.196381092071533,0.060975998640060425,0.28201398253440857,-1.3795819282531738,81.9000015258789,-165.3000030517578,-11.100000381469727
1365643,3.8825459480285645,9.1982421875,-2.348907470703125,-0.10670799762010574,0.2743920087814331,-1.1661659479141235,79.5,-182.10000610351562,-18.30000114440918
1365663,3.567922830581665,8.51217269897461,-2.583977699279785,-0.5868939757347107,0.6097599864006042,-1.6387299299240112,79.5,-170.10000610351562,-16.5
1365683,3.3669466972351074,7.927188873291016,-2.957218885421753,-0.5792719721794128,0.17530599236488342,-1.0061039924621582,79.5,-174.90000915527344,-17.100000381469727
1365706,3.3424229621887207,8.185586929321289,-2.868095636367798,-0.4878079891204834,-0.5411620140075684,-0.19817200303077698,77.10000610351562,-162.90000915527344,-16.5
1365726,3.2443275451660156,8.268728256225586,-2.8028979301452637,-0.5640279650688171,-0.9070180058479309,0.25152599811553955,65.10000610351562,-165.3000030517578,-13.500000953674316
1365746,3.3011510372161865,8.475686073303223,-2.4733211994171143,-0.4878079891204834,-1.2728739976882935,0.39634400606155396,77.10000610351562,-165.3000030517578,-12.300000190734863
1365766,3.186905860900879,8.566603660583496,-2.3411316871643066,-0.8155539631843567,-0.8307979702949524,0.015243999660015106,81.9000015258789,-170.10000610351562,-12.90000057220459
1365788,3.135465383529663,8.388357162475586,-2.354290723800659,-0.26677000522613525,-0.6936019659042358,-0.3277460038661957,81.9000015258789,-174.90000915527344,-21.30000114440918
1365808,3.657644271850586,9.72640323638916,-2.7227468490600586,0.49542999267578125,-0.6631140112876892,0.1448179930448532,84.30000305175781,-174.90000915527344,-12.90000057220459
1365828,3.3759188652038574,9.343591690063477,-2.336346387863159,0.19817200303077698,-0.7088459730148315,-0.7469559907913208,77.10000610351562,-162.90000915527344,-23.100000381469727
1365848,3.2024574279785156,8.62582015991211,-2.349505662918091,0.3582339882850647,-0.25152599811553955,-0.49542999267578125,79.5,-170.10000610351562,-18.900001525878906
1365872,3.4147982597351074,9.4075927734375,-2.283709764480591,0.6554920077323914,-0.09146399796009064,-0.2134159952402115,91.5,-174.90000915527344,-13.500000953674316
1365892,3.404031753540039,9.727001190185547,-2.459563970565796,0.4725639820098877,0.5259180068969727,-0.3582339882850647,81.9000015258789,-165.3000030517578,-24.30000114440918
1365912,2.832206964492798,9.46621036529541,-2.4583675861358643,0.3277460038661957,0.5259180068969727,-1.0823240280151367,77.10000610351562,-172.5,-17.100000381469727
1365935,2.4069273471832275,8.673072814941406,-2.4278624057769775,0.3277460038661957,0.6326259970664978,-1.3414719104766846,93.9000015258789,-167.70001220703125,-26.700000762939453
1365955,2.0366768836975098,9.119287490844727,-2.7281301021575928,0.5487840175628662,0.7012239694595337,-1.067080020904541,69.9000015258789,-170.10000610351562,-18.900001525878906
1365975,1.4062341451644897,9.038537979125977,-2.9703779220581055,0.46494197845458984,0.4878079891204834,-1.1128119230270386,81.9000015258789,-162.90000915527344,-16.5
1365995,1.0778536796569824,9.50030517578125,-3.159391164779663,0.5335400104522705,0.10670799762010574,-0.8155539631843567,86.70000457763672,-170.10000610351562,-15.300000190734863
1366015,0.38340964913368225,9.26104736328125,-3.225186824798584,0.06859800219535828,0.07621999830007553,-1.0823240280151367,89.10000610351562,-177.3000030517578,-15.90000057220459
1366035,-0.16807816922664642,9.495519638061523,-3.19587779045105,0.23628199100494385,-0.49542999267578125,-0.6326259970664978,93.9000015258789,-172.5,-17.700000762939453
1366055,-0.41870006918907166,9.423742294311523,-3.030790328979492,-0.12195199728012085,-0.3125019967556,-0.8460419774055481,93.9000015258789,-160.5,-24.30000114440918
1366075,-0.8643165826797485,8.82799243927002,-3.0206220149993896,-0.2439039945602417,-0.038109999150037766,-1.2118979692459106,89.10000610351562,-170.10000610351562,-21.30000114440918
1366095,-1.6472856998443604,7.974442005157471,-2.942265272140503,-0.17530599236488342,0.030487999320030212,-1.3338500261306763,86.70000457763672,-170.10000610351562,-21.30000114440918
1366115,-2.164679527282715,7.951114654541016,-2.969181776046753,0.04573199898004532,0.3887220025062561,-0.39634400606155396,86.70000457763672,-165.3000030517578,-14.100000381469727
1366135,-1.8075881004333496,9.21439266204834,-3.0720622539520264,0.08384199440479279,0.23628199100494385,0.3201240003108978,96.30000305175781,-167.70001220703125,-14.100000381469727
1366155,-1.7029130458831787,9.63369083404541,-2.9937055110931396,-0.08384199440479279,0.08384199440479279,-0.28201398253440857,101.10000610351562,-160.5,-16.5
1366219,-1.8925243616104126,9.214990615844727,-3.070866107940674,0.3201240003108978,-0.38109999895095825,-0.426831990480423,91.5,-158.10000610351562,-14.100000381469727
1366259,-0.9791600704193115,10.149290084838867,-3.2066445350646973,0.6326259970664978,-0.44969800114631653,-0.1295740008354187,89.10000610351562,-162.90000915527344,-14.100000381469727
1366296,-0.8194558620452881,9.110315322875977,-3.1408486366271973,0.5259180068969727,-0.426831990480423,-1.753059983253479,89.10000610351562,-162.90000915527344,-21.30000114440918
1366316,-0.5395249724388123,8.774757385253906,-2.978153944015503,0.7545779943466187,-0.342989981174469,-1.478667974472046,91.5,-172.5,-15.300000190734863
1366358,0.03947743773460388,9.037342071533203,-2.953629970550537,0.12195199728012085,0.5030519962310791,-1.0061039924621582,89.10000610351562,-160.5,-18.900001525878906
1366399,0.33196935057640076,8.75501823425293,-2.9440596103668213,0.038109999150037766,0.7164679765701294,-1.0442140102386475,103.50000762939453,-160.5,-17.700000762939453
1366498,2.1592960357666016,9.448864936828613,-3.7958152294158936,0.914639949798584,0.3048799932003021,-0.9222619533538818,96.30000305175781,-172.5,-15.90000057220459
1366536,2.6850638389587402,8.948219299316406,-3.242532968521118,0.4192099869251251,-0.17530599236488342,0.2439039945602417,108.30000305175781,-162.90000915527344,-4.5
1366556,2.7622241973876953,9.26702880859375,-3.320889711380005,-0.28201398253440857,0.3734779953956604,0.18292799592018127,98.70000457763672,-162.90000915527344,-12.300000190734863
1366599,2.19996976852417,8.105435371398926,-3.0188276767730713,-0.6021379828453064,0.038109999150037766,-1.478667974472046,105.9000015258789,-162.90000915527344,-16.5
1366641,1.5725178718566895,6.157881736755371,-2.540313243865967,0.19817200303077698,-0.19054999947547913,-1.013725996017456,113.10000610351562,-158.10000610351562,-14.700000762939453
1366661,1.6119953393936157,7.2686333656311035,-2.7586352825164795,0.3201240003108978,0.228659987449646,0.8460419774055481,113.10000610351562,-170.10000610351562,-14.100000381469727
1366681,2.8393847942352295,12.117179870605469,-4.166065692901611,1.6311079263687134,1.425313949584961,4.984787940979004,101.10000610351562,-160.5,-15.300000190734863
1366722,-0.599937379360199,4.0643815994262695,-2.9793500900268555,2.995445966720581,-1.875011920928955,-4.672286033630371,117.9000015258789,-167.70001220703125,-12.90000057220459
1366762,1.2495206594467163,12.259538650512695,-3.407620429992676,-1.417691946029663,-1.0365920066833496,1.8369019031524658,113.10000610351562,-158.10000610351562,-15.90000057220459
1366858,-0.4300647974014282,8.667689323425293,-2.7825610637664795,-1.196653962135315,0.7545779943466187,-1.9740979671478271,108.30000305175781,-160.5,-12.90000057220459
1366914,-0.04785143584012985,8.382973670959473,-2.7083914279937744,0.23628199100494385,0.05335399881005287,-0.9756159782409668,117.9000015258789,-153.3000030517578,-13.500000953674316
1366954,-0.19320018589496613,9.217981338500977,-3.356180191040039,0.35061198472976685,0.8993960022926331,-1.3872039318084717,120.30000305175781,-172.5,-20.100000381469727
1366974,-0.4300647974014282,8.997864723205566,-3.454275608062744,0.4344539940357208,0.7164679765701294,-1.3948259353637695,115.50000762939453,-146.10000610351562,-12.300000190734863
1367016,-0.61548912525177,8.893787384033203,-3.549978494644165,0.02286599949002266,0.35061198472976685,-0.8079319596290588,117.9000015258789,-150.90000915527344,-11.700000762939453
1367057,-0.7387065887451172,8.84174919128418,-3.722841739654541,0.228659987449646,-0.5945159792900085,-0.3125019967556,129.90000915527344,-158.10000610351562,-20.700000762939453
1367132,-0.46296265721321106,8.87165641784668,-3.4650421142578125,-0.2591480016708374,-0.7164679765701294,-0.1448179930448532,122.70000457763672,-146.10000610351562,-12.90000057220459
1367195,-0.5407212376594543,9.064258575439453,-3.5691192150115967,-0.3125019967556,-0.18292799592018127,-0.228659987449646,125.10000610351562,-153.3000030517578,-12.300000190734863
1367274,0.20396675169467926,8.656923294067383,-3.2144203186035156,0.06859800219535828,-0.3582339882850647,0.426831990480423,120.30000305175781,-153.3000030517578,-15.90000057220459
1367320,0.3917836546897888,8.58694076538086,-3.3932650089263916,0.39634400606155396,0.8841519951820374,-0.06859800219535828,127.50000762939453,-150.90000915527344,-25.500001907348633
1367340,0.176452174782753,8.696998596191406,-3.5906522274017334,0.9298839569091797,1.3338500261306763,-0.44969800114631653,117.9000015258789,-153.3000030517578,-13.500000953674316
1367380,0.14774131774902344,9.033753395080566,-3.820937395095825,1.0442140102386475,1.0975680351257324,-1.013725996017456,120.30000305175781,-148.5,-16.5
