time,sensor_accX[g],sensor_accY[g],sensor_accZ[g],sensor_gyroX[°/s],sensor_gyroY[°/s],sensor_gyroZ[°/s],sensor_magX[µT],sensor_magY[µT],sensor_magZ[µT]
1000009,1.0736666917800903,9.48236083984375,-3.051725387573242,0.015243999660015106,0.38109999895095825,-0.2972579896450043,81.9000015258789,-158.10000610351562,-16.5
1000029,1.1729583740234375,9.121082305908203,-2.6874563694000244,-0.6097599864006042,-0.038109999150037766,-0.4039659798145294,77.10000610351562,-172.5,-18.30000114440918
1000069,1.0730684995651245,8.878235816955566,-2.5797905921936035,-0.6478700041770935,0.04573199898004532,-0.2896359860897064,84.30000305175781,-160.5,-14.100000381469727
1000127,1.111947774887085,8.43860149383545,-2.6605398654937744,-0.09908600151538849,0.7545779943466187,-0.2896359860897064,93.9000015258789,-158.10000610351562,-15.300000190734863
1000193,1.3655604124069214,9.364526748657227,-2.999088764190674,-0.15243999660015106,0.8612859845161438,-0.6021379828453064,91.5,-160.5,-22.5
1000229,1.1681731939315796,8.618043899536133,-3.0571086406707764,-0.5487840175628662,1.0975680351257324,-0.8460419774055481,91.5,-158.10000610351562,-15.300000190734863
1000249,1.2477262020111084,8.765785217285156,-3.088212251663208,-0.1600620001554489,0.8993960022926331,-0.1600620001554489,86.70000457763672,-153.3000030517578,-13.500000953674316
1000292,1.3547937870025635,8.682044982910156,-2.9015915393829346,0.09908600151538849,0.9451279640197754,-0.739333987236023,81.9000015258789,-155.70001220703125,-11.700000762939453
1000312,1.1627899408340454,8.835169792175293,-3.0989787578582764,0.10670799762010574,1.2195199728012085,-0.3887220025062561,91.5,-162.90000915527344,-15.300000190734863
1000332,0.9486547708511353,8.716139793395996,-3.27961802482605,0.09908600151538849,1.3567159175872803,-0.13719600439071655,86.70000457763672,-153.3000030517578,-20.700000762939453
1000352,0.9516454935073853,9.281384468078613,-3.3490025997161865,0.4039659798145294,1.0365920066833496,0.25152599811553955,79.5,-155.70001220703125,-12.300000190734863
1000375,0.821848452091217,9.11270809173584,-3.25569224357605,0.04573199898004532,0.7850660085678101,0.2439039945602417,96.30000305175781,-148.5,-16.5
1000395,0.7739970088005066,8.980518341064453,-2.9219284057617188,-0.04573199898004532,0.342989981174469,0.8079319596290588,67.5,-167.70001220703125,-14.100000381469727
1000415,0.6699201464653015,9.67257022857666,-2.9428634643554688,-0.6402480006217957,-0.04573199898004532,1.8673899173736572,81.9000015258789,-150.90000915527344,-6.900000095367432
1000435,0.3086417615413666,9.542773246765137,-2.9823408126831055,-2.1494040489196777,-0.7850660085678101,1.8597679138183594,69.9000015258789,-155.70001220703125,-15.300000190734863
1000498,0.6292464137077332,8.43860149383545,-1.2662686109542847,-3.7424018383026123,-7.469559669494629,1.5548880100250244,98.70000457763672,-162.90000915527344,-15.90000057220459
1000534,0.38759663701057434,6.604096412658691,-0.2548089027404785,-3.056421995162964,-10.548848152160645,1.9740979671478271,84.30000305175781,-167.70001220703125,-21.30000114440918
1000555,0.5945541262626648,6.084310531616211,0.013159145601093769,-2.8048958778381348,-11.974162101745605,2.789651870727539,84.30000305175781,-160.5,-21.30000114440918
1000595,1.5133017301559448,4.41190242767334,0.7662211656570435,-3.109776020050049,-14.306493759155273,1.600619912147522,72.30000305175781,-162.90000915527344,-23.100000381469727
1000616,1.719660997390747,3.559548854827881,1.0557223558425903,-2.6067240238189697,-14.154053688049316,1.417691946029663,74.70000457763672,-160.5,-23.700000762939453
1000636,1.7148759365081787,2.790336847305298,1.20705246925354,-2.1189160346984863,-13.544293403625488,0.6021379828453064,86.70000457763672,-165.3000030517578,-19.5
1000659,2.676689863204956,2.863908529281616,0.8362038731575012,-1.0442140102386475,-10.129637718200684,0.228659987449646,81.9000015258789,-155.70001220703125,-25.500001907348633
1000701,2.25978422164917,2.9249191284179688,-0.9959080219268799,1.9054999351501465,-6.593029975891113,-1.417691946029663,74.70000457763672,-174.90000915527344,-26.100000381469727
1000721,1.5796955823898315,2.4553768634796143,-1.5390218496322632,2.2027578353881836,-4.809482097625732,-2.7058098316192627,77.10000610351562,-165.3000030517578,-25.500001907348633
1000741,2.0606024265289307,3.159989356994629,-2.801701784133911,2.5762360095977783,-2.080806016921997,-2.5076379776000977,72.30000305175781,-160.5,-22.5
1000761,2.121613025665283,5.215806484222412,-3.8580222129821777,3.2241058349609375,-0.09908600151538849,-2.3170878887176514,79.5,-170.10000610351562,-30.30000114440918
1000781,1.4989463090896606,5.319883823394775,-5.0124382972717285,3.399411916732788,2.1189160346984863,-5.022897720336914,81.9000015258789,-165.3000030517578,-20.700000762939453
1000805,1.5749104022979736,5.770285129547119,-6.4043169021606445,4.222588062286377,4.436003684997559,-4.5503339767456055,77.10000610351562,-158.10000610351562,-22.5
1000825,1.8608227968215942,7.347588062286377,-7.731595993041992,3.414655923843384,4.0396599769592285,-3.6890478134155273,91.5,-153.3000030517578,-23.100000381469727
1000845,1.8727856874465942,6.680060863494873,-7.407402515411377,2.644834041595459,1.2881180047988892,-5.899427890777588,113.10000610351562,-170.10000610351562,-19.5
1000865,1.3661586046218872,8.400918006896973,-7.19566011428833,3.6890478134155273,4.352161884307861,-2.644834041595459,122.70000457763672,-160.5,-16.5
1000885,2.286700487136841,11.626703262329102,-8.447572708129883,2.14178204536438,8.506152153015137,-2.484771966934204,98.70000457763672,-162.90000915527344,-21.900001525878906
1000946,0.9552343487739563,9.399816513061523,-8.198745727539062,2.7744078636169434,8.315601348876953,-5.663146018981934,113.10000610351562,-146.10000610351562,-20.700000762939453
1000966,0.0957028716802597,13.445655822753906,-8.75501823425293,0.571649968624115,12.629653930664062,-3.1783738136291504,110.70000457763672,-146.10000610351562,-19.5
1001010,-1.7615309953689575,11.795379638671875,-9.197046279907227,0,10.091527938842773,-5.876561641693115,122.70000457763672,-150.90000915527344,-13.500000953674316
1001030,-1.9870309829711914,13.89306640625,-9.367517471313477,0.13719600439071655,12.972643852233887,-3.003067970275879,129.90000915527344,-138.90000915527344,-8.700000762939453
1001050,-0.5191881060600281,16.02783966064453,-9.71144962310791,0.114329993724823,11.844587326049805,-3.0869100093841553,129.90000915527344,-138.90000915527344,-8.700000762939453
1001073,-2.0976874828338623,15.621101379394531,-8.438002586364746,-0.5564059615135193,11.25007152557373,-5.198204040527344,127.50000762939453,-141.3000030517578,-4.5
1001093,-3.6468777656555176,15.055856704711914,-9.62950325012207,0.25152599811553955,16.242481231689453,-3.6814258098602295,122.70000457763672,-138.90000915527344,-17.700000762939453
1001134,-2.5803887844085693,17.48850440979004,-10.167234420776367,0.7698220014572144,11.013790130615234,-0.060975998640060425,117.9000015258789,-131.70001220703125,-9.90000057220459
1001154,-3.3334507942199707,19.29489517211914,-9.134839057922363,-1.7454379796981812,9.801891326904297,-1.2500079870224,115.50000762939453,-134.10000610351562,-6.900000095367432
1001174,-2.8603196144104004,16.2018985748291,-8.439797401428223,-1.0289700031280518,9.733293533325195,-3.910085916519165,117.9000015258789,-129.3000030517578,-2.1000001430511475
1001194,-3.398050308227539,15.953669548034668,-7.949918270111084,-2.530503988265991,7.804927825927734,-1.653973937034607,113.10000610351562,-134.10000610351562,-2.700000047683716
1001214,-3.7102808952331543,18.10519027709961,-7.669389247894287,-2.583858013153076,7.118947982788086,-0.41158798336982727,120.30000305175781,-134.10000610351562,-9.300000190734863
1001234,-3.570315361022949,18.011878967285156,-6.226070404052734,-4.153989791870117,2.6295900344848633,-2.7667858600616455,122.70000457763672,-126.9000015258789,-2.1000001430511475
1001254,-3.817946672439575,13.952282905578613,-4.041053771972656,-5.121984004974365,2.9192259311676025,-3.3155698776245117,120.30000305175781,-131.70001220703125,-9.300000190734863
1001275,-3.4177889823913574,12.712332725524902,-4.719946384429932,-3.414655923843384,3.871975898742676,3.0183119773864746,122.70000457763672,-129.3000030517578,-7.500000476837158
1001295,-2.3267762660980225,13.89007568359375,-2.4697322845458984,-3.300325870513916,-0.6478700041770935,3.3917899131774902,105.9000015258789,-138.90000915527344,-1.5
1001315,-3.1432414054870605,12.394719123840332,-1.409822940826416,-3.49849796295166,1.196653962135315,1.013725996017456,108.30000305175781,-146.10000610351562,-10.5
1001335,-2.355487108230591,11.568084716796875,-2.7251393795013428,-3.8338658809661865,3.3155698776245117,2.4771499633789062,120.30000305175781,-143.70001220703125,-14.700000762939453
1001355,-2.5678277015686035,10.837154388427734,-2.6246514320373535,-3.6433160305023193,1.196653962135315,3.1402640342712402,105.9000015258789,-150.90000915527344,-11.100000381469727
1001375,-2.0994818210601807,9.4853515625,-2.149127721786499,-3.292703866958618,-1.3643379211425781,2.439039945602417,105.9000015258789,-146.10000610351562,-10.5
1001397,-1.1675751209259033,7.924796104431152,-0.9480566382408142,-3.7195358276367188,-4.0396599769592285,1.7301939725875854,108.30000305175781,-158.10000610351562,-15.300000190734863
1001417,-0.5730209946632385,6.889410972595215,0.04605700820684433,-4.817103862762451,-4.131124019622803,1.7301939725875854,101.10000610351562,-155.70001220703125,-11.700000762939453
1001437,0.47313109040260315,6.617255687713623,-0.28591233491897583,-4.306429862976074,-2.835383892059326,2.644834041595459,103.50000762939453,-155.70001220703125,-9.90000057220459
1001457,0.4665515124797821,6.346296787261963,-0.44681280851364136,-3.201239824295044,-3.5289859771728516,2.03507399559021,105.9000015258789,-162.90000915527344,-8.700000762939453
1001478,0.5395249724388123,5.630319595336914,-0.07476787269115448,-2.957335948944092,-5.175337791442871,1.3490939140319824,96.30000305175781,-153.3000030517578,-11.700000762939453
1001498,0.7387065887451172,4.825817584991455,0.5502915382385254,-3.4298999309539795,-5.480217933654785,1.2347639799118042,89.10000610351562,-155.70001220703125,-15.300000190734863
1001518,0.9564306139945984,4.442408084869385,0.19020946323871613,-2.888737916946411,-4.2911858558654785,1.5701320171356201,93.9000015258789,-155.70001220703125,-15.300000190734863
1001538,0.7046124339103699,3.8430685997009277,-0.38460594415664673,-1.935987949371338,-4.230209827423096,1.3948259353637695,113.10000610351562,-150.90000915527344,-19.5
1001558,0.611900269985199,3.481192111968994,-0.6681256890296936,-0.9527499675750732,-5.160093784332275,2.080806016921997,101.10000610351562,-155.70001220703125,-20.100000381469727
1001578,0.7775858640670776,3.3639559745788574,-0.5861800909042358,-0.6631140112876892,-6.2805280685424805,2.9116039276123047,93.9000015258789,-158.10000610351562,-18.900001525878906
1001602,1.3404383659362793,3.675588607788086,-0.3929799199104309,-0.6173819899559021,-6.478699684143066,3.445143938064575,93.9000015258789,-155.70001220703125,-16.5
1001622,1.5892658233642578,3.6917383670806885,-0.6890606880187988,-0.17530599236488342,-5.670767784118652,2.8277618885040283,101.10000610351562,-162.90000915527344,-18.900001525878906
1001665,2.2639710903167725,4.432239532470703,-1.9589182138442993,0.2896359860897064,-3.818621873855591,2.942091941833496,84.30000305175781,-158.10000610351562,-18.30000114440918
1001687,2.4302549362182617,4.730712890625,-2.355487108230591,0.6402480006217957,-3.650938034057617,3.0335559844970703,84.30000305175781,-162.90000915527344,-14.100000381469727
1001707,3.1845130920410156,6.285884380340576,-2.3052430152893066,0.9756159782409668,-4.115880012512207,4.862835884094238,74.70000457763672,-160.5,-9.300000190734863
1001728,3.6827661991119385,7.722623825073242,-2.220306634902954,0.5487840175628662,-2.8734939098358154,4.2911858558654785,79.5,-167.70001220703125,-20.700000762939453
1001748,3.1916909217834473,7.681352138519287,-2.43803071975708,0.28201398253440857,-1.829279899597168,2.240867853164673,79.5,-155.70001220703125,-14.700000762939453
1001768,2.9853315353393555,7.3613457679748535,-2.7113821506500244,0.739333987236023,-1.425313949584961,1.0442140102386475,79.5,-165.3000030517578,-22.5
1001788,3.1252970695495605,8.014517784118652,-3.0385663509368896,1.3414719104766846,-0.9451279640197754,1.3643379211425781,69.9000015258789,-167.70001220703125,-23.100000381469727
1001848,2.9614057540893555,9.328039169311523,-3.121109962463379,0.6173819899559021,-0.5487840175628662,0.2972579896450043,65.10000610351562,-167.70001220703125,-14.100000381469727
1001870,2.6904470920562744,8.882423400878906,-3.282010555267334,0.4039659798145294,0.39634400606155396,-0.4344539940357208,72.30000305175781,-167.70001220703125,-12.300000190734863
1001890,2.20894193649292,8.58275318145752,-3.45188307762146,0.48018598556518555,0.8155539631843567,-0.967993974685669,69.9000015258789,-165.3000030517578,-17.700000762939453
1001910,2.1000800132751465,8.18139934539795,-3.458462715148926,0.7850660085678101,0.6783579587936401,-0.8307979702949524,77.10000610351562,-165.3000030517578,-13.500000953674316
1001931,2.2137272357940674,9.28617000579834,-3.2114295959472656,0.8765299916267395,0.5792719721794128,-0.19817200303077698,81.9000015258789,-155.70001220703125,-10.5
1001952,1.6753984689712524,9.204822540283203,-3.3819003105163574,0.060975998640060425,1.3948259353637695,-1.9740979671478271,65.10000610351562,-158.10000610351562,-17.100000381469727
1001972,1.5749104022979736,8.722719192504883,-3.356180191040039,0.3201240003108978,1.1661659479141235,-1.753059983253479,55.500003814697266,-167.70001220703125,-18.30000114440918
1001993,1.3583827018737793,8.941638946533203,-3.2168128490448,0.2591480016708374,1.189031958580017,-1.478667974472046,79.5,-165.3000030517578,-14.100000381469727
1002013,1.2961758375167847,9.46920108795166,-3.3406283855438232,0.20579399168491364,1.0518360137939453,-1.3338500261306763,84.30000305175781,-165.3000030517578,-14.100000381469727
1002033,1.0946016311645508,8.85670280456543,-3.275430917739868,-0.3887220025062561,0.36585599184036255,-2.195136070251465,67.5,-155.70001220703125,-17.100000381469727
1002053,0.7883524298667908,7.887711524963379,-2.878862142562866,0.08384199440479279,0.10670799762010574,-2.225623846054077,77.10000610351562,-167.70001220703125,-6.900000095367432
1002073,1.2519131898880005,8.583352088928223,-2.644390106201172,-0.16768398880958557,0.39634400606155396,-0.6021379828453064,77.10000610351562,-158.10000610351562,-17.100000381469727
1002093,0.9558324813842773,9.281982421875,-3.296365976333618,-0.13719600439071655,0.8689079880714417,-1.0594580173492432,81.9000015258789,-160.5,-14.700000762939453
1002153,1.1257051229476929,9.35675048828125,-2.9548263549804688,-0.38109999895095825,0.5411620140075684,-0.060975998640060425,79.5,-170.10000610351562,-12.300000190734863
1002173,1.0234225988388062,9.176111221313477,-3.105558395385742,-0.3582339882850647,0.46494197845458984,-0.6326259970664978,86.70000457763672,-170.10000610351562,-19.5
1002193,1.0317965745925903,8.85490894317627,-3.0894083976745605,-0.342989981174469,0.3277460038661957,-0.7164679765701294,86.70000457763672,-162.90000915527344,-15.90000057220459
1002214,1.1448456048965454,9.079212188720703,-3.1767373085021973,-0.2134159952402115,0.16768398880958557,0.06859800219535828,89.10000610351562,-158.10000610351562,-13.500000953674316
1002234,0.9654027819633484,8.447572708129883,-2.9943037033081055,-0.6097599864006042,0.02286599949002266,0.3277460038661957,79.5,-158.10000610351562,-14.700000762939453
1002254,1.119125485420227,8.376394271850586,-2.868095636367798,-0.39634400606155396,-0.1295740008354187,0.6173819899559021,89.10000610351562,-160.5,-13.500000953674316
1002274,1.622761845588684,9.053491592407227,-2.938676357269287,-0.23628199100494385,-0.060975998640060425,0.5259180068969727,79.5,-160.5,-14.100000381469727
1002294,1.5725178718566895,8.61385726928711,-2.9709761142730713,-0.6097599864006042,0.07621999830007553,-0.228659987449646,74.70000457763672,-160.5,-14.700000762939453
1002314,1.532442331314087,8.363235473632812,-3.0038740634918213,-0.4039659798145294,0,-0.16768398880958557,89.10000610351562,-174.90000915527344,-13.500000953674316
1002334,1.5617512464523315,8.718531608581543,-2.9548263549804688,-0.12195199728012085,-0.15243999660015106,0.030487999320030212,93.9000015258789,-155.70001220703125,-17.100000381469727
1002354,1.7962234020233154,9.545165061950684,-2.9889204502105713,0.02286599949002266,-0.05335399881005287,-0.07621999830007553,91.5,-158.10000610351562,-12.90000057220459
1002377,1.4510948657989502,9.098352432250977,-2.9859297275543213,-0.6478700041770935,0.13719600439071655,-0.8689079880714417,79.5,-170.10000610351562,-8.700000762939453
1002397,1.24593186378479,8.593520164489746,-2.927311658859253,-0.5487840175628662,0.3201240003108978,-0.38109999895095825,65.10000610351562,-177.3000030517578,-19.5
1002459,1.4008508920669556,9.29813289642334,-2.995500087738037,0.07621999830007553,0.46494197845458984,-0.3201240003108978,98.70000457763672,-162.90000915527344,-16.5
1002479,1.3320643901824951,8.694605827331543,-2.8657028675079346,-0.2591480016708374,0.5335400104522705,-0.5411620140075684,81.9000015258789,-155.70001220703125,-10.5
1002499,1.306942343711853,8.876441955566406,-2.8423755168914795,0.015243999660015106,0.6707359552383423,-0.09146399796009064,84.30000305175781,-162.90000915527344,-15.90000057220459
1002519,1.2166228294372559,9.227551460266113,-2.9889204502105713,-0.1448179930448532,0.9451279640197754,0.06859800219535828,89.10000610351562,-165.3000030517578,-8.100000381469727
1002542,0.8601295948028564,9.660009384155273,-3.2748327255249023,-0.39634400606155396,1.0747020244598389,0.3277460038661957,79.5,-150.90000915527344,-8.100000381469727
1002562,0.4653552174568176,9.540380477905273,-3.2622718811035156,-1.1585439443588257,0.5945159792900085,0.7088459730148315,72.30000305175781,-165.3000030517578,-12.90000057220459
1002582,0.6633405685424805,9.817320823669434,-2.887834310531616,-1.699705958366394,-0.17530599236488342,1.6234859228134155,93.9000015258789,-160.5,-13.500000953674316
1002602,0.9414770603179932,11.199628829956055,-2.577996253967285,-2.1570260524749756,-1.3262280225753784,2.28659987449646,89.10000610351562,-153.3000030517578,-18.30000114440918
1002625,0.6794903874397278,10.686422348022461,-1.928412914276123,-3.163130044937134,-1.9131219387054443,0.3125019967556,79.5,-165.3000030517578,-14.100000381469727
1002646,0.30565106868743896,8.780738830566406,-1.723249912261963,-3.155508041381836,-3.041177988052368,-0.41158798336982727,81.9000015258789,-158.10000610351562,-16.5
1002666,-0.0897214487195015,7.999564170837402,-1.3918787240982056,-2.332331895828247,-4.268320083618164,1.3109840154647827,93.9000015258789,-155.70001220703125,-16.5
1002686,-0.20516303181648254,8.028873443603516,-1.2064543962478638,-2.2561118602752686,-5.533571720123291,2.599102020263672,84.30000305175781,-165.3000030517578,-16.5
1002707,0.13637660443782806,7.586247444152832,-0.6956402659416199,-2.3475759029388428,-8.521395683288574,2.439039945602417,72.30000305175781,-158.10000610351562,-17.700000762939453
1002727,0.3457266390323639,7.257268905639648,-0.5574692487716675,-2.179892063140869,-8.788166046142578,2.7667858600616455,72.30000305175781,-160.5,-16.5
1002747,0.8930274844169617,6.854120254516602,-0.352904349565506,-2.0960500240325928,-10.03055191040039,3.3384358882904053,69.9000015258789,-165.3000030517578,-21.30000114440918
1002767,1.1915007829666138,6.142330169677734,-0.020336860790848732,-2.2180018424987793,-10.891838073730469,3.102154016494751,57.900001525878906,-167.70001220703125,-17.100000381469727
1002807,1.9828439950942993,5.690134048461914,0.4210926592350006,-2.3170878887176514,-10.426896095275879,2.088428020477295,77.10000610351562,-172.5,-26.100000381469727
1002869,1.6538653373718262,2.938676357269287,-0.23447205126285553,0.6173819899559021,-7.576267719268799,-2.2103798389434814,67.5,-177.3000030517578,-23.700000762939453
1002889,1.7328201532363892,2.592949867248535,-1.0820406675338745,1.9436099529266357,-5.381131649017334,-3.0259339809417725,72.30000305175781,-162.90000915527344,-24.30000114440918
1002909,2.2878968715667725,3.597231864929199,-1.7752883434295654,4.062525749206543,-4.832347869873047,-2.39330792427063,60.30000305175781,-170.10000610351562,-18.900001525878906
1002929,1.7220536470413208,3.0989787578582764,-2.438628911972046,4.10825777053833,-3.254593849182129,-3.5442299842834473,74.70000457763672,-162.90000915527344,-21.30000114440918
1002949,1.6807817220687866,2.369842529296875,-3.7240381240844727,4.28356409072876,-1.2195199728012085,-3.1859958171844482,89.10000610351562,-167.70001220703125,-20.100000381469727
1002969,2.596538543701172,4.090699672698975,-4.133167743682861,3.445143938064575,-1.8369019031524658,-0.739333987236023,89.10000610351562,-167.70001220703125,-22.5
1002990,3.2712438106536865,5.638693809509277,-4.3532843589782715,2.7210538387298584,-0.17530599236488342,-0.9375059604644775,81.9000015258789,-165.3000030517578,-23.700000762939453
1003010,2.223297357559204,4.754638671875,-5.062682151794434,1.935987949371338,1.7606819868087769,-3.3308138847351074,96.30000305175781,-148.5,-26.100000381469727
1003030,2.2663636207580566,3.8113670349121094,-5.862997531890869,2.942091941833496,3.1859958171844482,-3.620450019836426,81.9000015258789,-160.5,-23.700000762939453
1003050,3.1109416484832764,6.124385833740234,-6.288875102996826,3.4680099487304688,2.6143460273742676,-1.1051899194717407,89.10000610351562,-160.5,-15.300000190734863
1003070,3.457266330718994,9.02418327331543,-6.669892311096191,2.75154185295105,4.222588062286377,-0.5335400104522705,96.30000305175781,-153.3000030517578,-14.700000762939453
1003090,3.142045021057129,9.591222763061523,-7.488749980926514,1.9740979671478271,4.649419784545898,-4.375028133392334,89.10000610351562,-170.10000610351562,-20.100000381469727
1003110,1.7441848516464233,7.195061683654785,-7.16874361038208,1.7835479974746704,4.359784126281738,-7.660109996795654,91.5,-148.5,-21.30000114440918
1003130,1.748371958732605,9.13663387298584,-7.7489423751831055,2.3018438816070557,5.830830097198486,-4.756127834320068,98.70000457763672,-148.5,-14.100000381469727
1003150,1.6628375053405762,10.345480918884277,-7.7752604484558105,1.1128119230270386,6.905531883239746,-5.846074104309082,93.9000015258789,-150.90000915527344,-16.5
1003170,0.8679054379463196,9.703673362731934,-7.888907432556152,1.6692179441452026,8.757678031921387,-7.980233669281006,98.70000457763672,-150.90000915527344,-9.300000190734863
1003190,-0.17346146702766418,10.420846939086914,-8.55105209350586,1.7759259939193726,11.25007152557373,-6.661627769470215,110.70000457763672,-153.3000030517578,-15.90000057220459
1003210,0.03887929394841194,12.726688385009766,-9.697691917419434,1.6920839548110962,12.667763710021973,-3.5975840091705322,117.9000015258789,-141.3000030517578,-11.100000381469727
1003232,-0.23865903913974762,13.308082580566406,-9.125268936157227,-1.021347999572754,9.298839569091797,-5.975647926330566,110.70000457763672,-148.5,-9.300000190734863
1003252,-1.7669143676757812,12.515543937683105,-8.792701721191406,-0.038109999150037766,11.28818130493164,-6.516809940338135,122.70000457763672,-138.90000915527344,-13.500000953674316
1003272,-1.5838825702667236,13.799158096313477,-9.611559867858887,0.49542999267578125,12.522945404052734,-3.3231918811798096,125.10000610351562,-138.90000915527344,-7.500000476837158
1003292,-0.033496007323265076,16.55779457092285,-8.870460510253906,-1.0899460315704346,9.977197647094727,-1.8369019031524658,113.10000610351562,-124.50000762939453,-7.500000476837158
1003378,-2.5415093898773193,17.851577758789062,-8.341103553771973,-0.18292799592018127,13.086974143981934,-3.7271578311920166,120.30000305175781,-134.10000610351562,-3.9000000953674316
1003415,-2.009162187576294,15.286141395568848,-4.81624698638916,-4.07014799118042,3.3765459060668945,-3.650938034057617,117.9000015258789,-129.3000030517578,-9.300000190734863
1003435,-2.750859498977661,15.735346794128418,-6.3092122077941895,-1.9664759635925293,14.580885887145996,-3.4832539558410645,122.70000457763672,-138.90000915527344,-7.500000476837158
1003475,-1.922431468963623,15.743123054504395,-4.370630741119385,-6.471077919006348,1.935987949371338,-4.382649898529053,141.90000915527344,-131.70001220703125,-3.3000001907348633
1003498,-3.5332305431365967,12.563993453979492,-2.9829390048980713,-5.777475833892822,7.652487754821777,-5.640279769897461,127.50000762939453,-129.3000030517578,-5.700000286102295
1003518,-4.827611923217773,13.080788612365723,-5.285789489746094,-5.929915904998779,9.420791625976562,-2.1189160346984863,122.70000457763672,-131.70001220703125,-5.100000381469727
1003538,-4.40891170501709,14.45591926574707,-4.280311107635498,-4.870458126068115,2.187514066696167,-0.28201398253440857,132.3000030517578,-131.70001220703125,2.1000001430511475
1003558,-3.6295316219329834,9.985398292541504,-1.3799158334732056,-4.077769756317139,-2.2180018424987793,-0.007621999830007553,120.30000305175781,-126.9000015258789,-11.700000762939453
1003578,-3.511099338531494,10.14450454711914,-1.1574066877365112,-3.7347798347473145,-1.2728739976882935,2.9116039276123047,134.70001220703125,-141.3000030517578,-6.900000095367432
1003598,-2.620464324951172,11.830071449279785,-2.0785467624664307,-4.352161884307861,0.2743920087814331,5.838451862335205,127.50000762939453,-150.90000915527344,-5.700000286102295
1003639,-1.9320018291473389,9.948911666870117,-1.330868124961853,-3.9329519271850586,-3.60520601272583,3.0259339809417725,125.10000610351562,-155.70001220703125,-6.300000190734863
1003661,-2.095892906188965,7.842850685119629,-1.110153317451477,-3.6356940269470215,-5.091495990753174,1.1585439443588257,122.70000457763672,-155.70001220703125,-15.300000190734863
1003681,-2.307635545730591,6.306819438934326,-0.906186580657959,-2.652456045150757,-6.692115783691406,2.7286758422851562,108.30000305175781,-146.10000610351562,-12.90000057220459
1003702,-1.525862693786621,6.155489444732666,-0.5305528044700623,-2.4695279598236084,-7.378095626831055,5.625035762786865,101.10000610351562,-150.90000915527344,-18.900001525878906
1003722,-0.8559426069259644,5.642880916595459,-0.29189378023147583,-2.080806016921997,-8.521395683288574,5.1067399978637695,105.9000015258789,-158.10000610351562,-16.5
1003745,-0.07416972517967224,4.649365425109863,0.20097604393959045,-2.3018438816070557,-8.81865406036377,3.917707920074463,101.10000610351562,-150.90000915527344,-15.300000190734863
1003765,0.36127835512161255,3.3346471786499023,0.19320018589496613,-1.478667974472046,-7.721086025238037,3.2317278385162354,98.70000457763672,-155.70001220703125,-21.900001525878906
1003785,0.5957503914833069,2.5355279445648193,-0.05323472619056702,-0.114329993724823,-6.6768717765808105,3.5366079807281494,108.30000305175781,-162.90000915527344,-18.900001525878906
1003805,1.0838350057601929,3.246121883392334,0.03768300637602806,0.06859800219535828,-5.7164998054504395,4.268320083618164,105.9000015258789,-150.90000915527344,-15.300000190734863
1003825,1.1657806634902954,2.7729907035827637,-0.2799309194087982,0.08384199440479279,-4.230209827423096,2.5228819847106934,98.70000457763672,-172.5,-16.5
1003845,1.1747528314590454,2.080341339111328,-0.3828114867210388,1.1128119230270386,-3.955817937850952,1.8140360116958618,96.30000305175781,-165.3000030517578,-20.700000762939453
1003866,1.6855669021606445,2.9907147884368896,-0.6394148468971252,1.699705958366394,-3.048799991607666,2.8201398849487305,89.10000610351562,-155.70001220703125,-21.30000114440918
1003886,2.810673713684082,5.055504322052002,-1.3284755945205688,1.7149499654769897,-3.1326420307159424,4.1387457847595215,96.30000305175781,-177.3000030517578,-19.5
1003907,3.0475385189056396,5.630319595336914,-1.3153164386749268,1.4405579566955566,-3.201239824295044,4.184477806091309,91.5,-167.70001220703125,-24.30000114440918
1003927,3.1133341789245605,6.3116044998168945,-1.7962234020233154,1.371959924697876,-2.8277618885040283,3.6280720233917236,101.10000610351562,-170.10000610351562,-13.500000953674316
1003947,2.998490810394287,6.200948238372803,-1.545601487159729,0.5411620140075684,-3.407033920288086,2.4695279598236084,86.70000457763672,-165.3000030517578,-15.90000057220459
1003967,3.3753206729888916,6.724921226501465,-1.7711013555526733,0.39634400606155396,-2.7058098316192627,3.1707520484924316,84.30000305175781,-162.90000915527344,-18.30000114440918
1003987,3.5003325939178467,8.1664457321167,-1.9176464080810547,0.13719600439071655,-2.14178204536438,3.5213639736175537,69.9000015258789,-167.70001220703125,-24.30000114440918
1004007,3.282010555267334,7.864383697509766,-2.053424835205078,-0.09908600151538849,-1.4862899780273438,1.600619912147522,77.10000610351562,-167.70001220703125,-15.90000057220459
1004027,3.4536774158477783,8.299233436584473,-2.4314510822296143,0.6173819899559021,-0.7012239694595337,1.7149499654769897,69.9000015258789,-170.10000610351562,-18.30000114440918
1004049,2.969181776046753,8.695204734802246,-3.311319589614868,1.3948259353637695,-0.13719600439071655,1.067080020904541,69.9000015258789,-170.10000610351562,-13.500000953674316
1004069,3.097184419631958,8.995471954345703,-3.5003325939178467,2.591480016708374,-2.0503180027008057,1.3490939140319824,62.70000076293945,-160.5,-9.90000057220459
1004130,2.548687219619751,9.102540016174316,-3.868788719177246,1.1051899194717407,-0.33536797761917114,-0.35061198472976685,74.70000457763672,-155.70001220703125,-20.100000381469727
1004151,2.041461944580078,9.14560604095459,-4.123597621917725,0.5182960033416748,0.030487999320030212,-0.5945159792900085,72.30000305175781,-162.90000915527344,-15.300000190734863
1004171,1.649678349494934,8.811244010925293,-4.151112079620361,0.6554920077323914,-0.18292799592018127,-0.8917739987373352,67.5,-160.5,-21.30000114440918
1004191,1.552779197692871,8.299233436584473,-3.6014187335968018,0.6021379828453064,-1.013725996017456,-0.6631140112876892,65.10000610351562,-155.70001220703125,-11.700000762939453
1004211,1.8715893030166626,8.65273666381836,-3.2108314037323,-0.2439039945602417,-0.19817200303077698,0.23628199100494385,77.10000610351562,-167.70001220703125,-20.100000381469727
1004232,1.7328201532363892,9.225757598876953,-3.3974521160125732,-0.3125019967556,0.8231759667396545,0.05335399881005287,72.30000305175781,-170.10000610351562,-15.300000190734863
1004252,1.85543954372406,9.067249298095703,-3.6492702960968018,-0.02286599949002266,0.967993974685669,-0.6250039935112,74.70000457763672,-155.70001220703125,-5.700000286102295
1004272,1.6676225662231445,8.222073554992676,-3.392068862915039,0.08384199440479279,0.7621999979019165,-1.0594580173492432,77.10000610351562,-160.5,-8.700000762939453
1004292,1.59943425655365,8.341103553771973,-3.308328866958618,0.07621999830007553,0.7317119836807251,0.07621999830007553,67.5,-162.90000915527344,-14.700000762939453
1004312,1.630537748336792,8.810646057128906,-3.3992464542388916,-0.04573199898004532,0.6021379828453064,0.05335399881005287,72.30000305175781,-160.5,-9.300000190734863
1004332,1.6753984689712524,8.53609848022461,-3.183316946029663,-0.23628199100494385,0.228659987449646,-0.4725639820098877,74.70000457763672,-162.90000915527344,-8.700000762939453
1004352,1.8656079769134521,8.96317195892334,-2.990116596221924,-0.4192099869251251,0.1295740008354187,-0.39634400606155396,69.9000015258789,-167.70001220703125,-15.90000057220459
1004372,1.9660959243774414,9.114502906799316,-3.055912494659424,-0.685979962348938,0.5411620140075684,-0.7850660085678101,65.10000610351562,-165.3000030517578,-15.300000190734863
1004392,1.7471755743026733,8.503798484802246,-3.1791298389434814,-0.6936019659042358,0.8155539631843567,-1.2652519941329956,74.70000457763672,-165.3000030517578,-15.300000190734863
1004436,1.6383136510849,9.01521110534668,-3.2419350147247314,-0.08384199440479279,0.49542999267578125,0.1600620001554489,69.9000015258789,-155.70001220703125,-13.500000953674316
1004457,1.8590283393859863,8.987696647644043,-3.090604782104492,-0.12195199728012085,0.4878079891204834,-0.1295740008354187,72.30000305175781,-153.3000030517578,-16.5
1004477,1.9098705053329468,8.953003883361816,-3.0056684017181396,-0.09908600151538849,0.4878079891204834,-0.2743920087814331,74.70000457763672,-170.10000610351562,-14.100000381469727
1004497,1.7471755743026733,8.531312942504883,-2.9697799682617188,-0.426831990480423,0.800309956073761,-0.7545779943466187,67.5,-158.10000610351562,-13.500000953674316
1004517,1.909272313117981,8.722719192504883,-2.987126111984253,-0.07621999830007553,0.800309956073761,-0.5182960033416748,72.30000305175781,-155.70001220703125,-15.90000057220459
1004541,1.9846383333206177,8.846534729003906,-2.7909350395202637,-0.342989981174469,0.8689079880714417,-0.510673999786377,77.10000610351562,-155.70001220703125,-15.300000190734863
1004561,1.827326774597168,8.837562561035156,-2.823234796524048,-0.5564059615135193,0.8765299916267395,-0.853663980960846,74.70000457763672,-155.70001220703125,-15.90000057220459
1004581,1.740596055984497,8.624025344848633,-2.7317190170288086,-0.6554920077323914,0.9527499675750732,-1.0442140102386475,79.5,-162.90000915527344,-12.300000190734863
1004602,1.7866530418395996,8.99726676940918,-2.858525276184082,-0.510673999786377,1.0823240280151367,-0.7850660085678101,72.30000305175781,-165.3000030517578,-15.300000190734863
1004626,1.4642540216445923,9.101343154907227,-3.067875385284424,-0.6707359552383423,1.14329993724823,-0.8155539631843567,77.10000610351562,-155.70001220703125,-8.700000762939453
1004646,1.4451134204864502,9.041528701782227,-3.0062665939331055,-0.7850660085678101,0.7317119836807251,-0.7774440050125122,77.10000610351562,-158.10000610351562,-15.90000057220459
1004668,1.439730167388916,8.615053176879883,-2.8214404582977295,-0.35061198472976685,0.44969800114631653,-0.7926880121231079,77.10000610351562,-167.70001220703125,-17.100000381469727
1004688,1.3631678819656372,9.271814346313477,-3.0654826164245605,-0.5487840175628662,0.5945159792900085,-0.114329993724823,81.9000015258789,-160.5,-12.300000190734863
1004728,1.8039991855621338,9.112110137939453,-3.142045021057129,-0.05335399881005287,0.114329993724823,-0.2896359860897064,79.5,-170.10000610351562,-17.700000762939453
1004752,1.7878493070602417,9.363329887390137,-3.151017189025879,-0.16768398880958557,0.3125019967556,0.015243999660015106,79.5,-165.3000030517578,-17.100000381469727
1004772,1.6221637725830078,9.27121639251709,-2.941667079925537,-0.7088459730148315,0.510673999786377,-0.04573199898004532,79.5,-158.10000610351562,-11.100000381469727
1004794,1.5647419691085815,8.631202697753906,-2.7975146770477295,-1.4939119815826416,0.7850660085678101,-0.08384199440479279,74.70000457763672,-165.3000030517578,-20.100000381469727
1004815,1.3679529428482056,8.3399076461792,-2.7759814262390137,-1.2195199728012085,0.9908599853515625,0.4192099869251251,81.9000015258789,-170.10000610351562,-11.100000381469727
1004835,1.655659794807434,9.93156623840332,-2.5827813148498535,-0.6631140112876892,0.6173819899559021,1.4634239673614502,72.30000305175781,-172.5,-15.90000057220459
1004855,1.3805140256881714,10.134934425354004,-2.387786626815796,-1.524399995803833,0.8155539631843567,0.06859800219535828,86.70000457763672,-158.10000610351562,-18.30000114440918
1004875,0.8487648963928223,9.09775447845459,-2.345318555831909,-1.7911700010299683,0.7164679765701294,-0.739333987236023,86.70000457763672,-153.3000030517578,-18.900001525878906
1004915,0.14774131774902344,9.345983505249023,-1.6179767847061157,-1.9207439422607422,-1.371959924697876,1.6844619512557983,74.70000457763672,-172.5,-13.500000953674316
1004935,0.02930900640785694,9.051697731018066,-1.7651199102401733,-1.9512319564819336,-2.225623846054077,1.6615959405899048,77.10000610351562,-155.70001220703125,-19.5
1004955,0.1058713048696518,9.004444122314453,-1.6730059385299683,-1.6615959405899048,-3.1326420307159424,1.9588539600372314,65.10000610351562,-167.70001220703125,-12.300000190734863
1004977,0.22908875346183777,7.964871883392334,-1.116134762763977,-1.9512319564819336,-6.379613876342773,2.1722700595855713,74.70000457763672,-170.10000610351562,-14.100000381469727
1005018,0.6645368337631226,7.074835300445557,-0.011364716105163097,-2.0045859813690186,-8.9329833984375,4.32167387008667,72.30000305175781,-174.90000915527344,-18.30000114440918
1005038,0.6262556910514832,6.855316638946533,-0.22250919044017792,-2.2637338638305664,-9.855245590209961,3.407033920288086,65.10000610351562,-182.10000610351562,-23.100000381469727
1005058,0.8469704389572144,5.996981620788574,0.1369747370481491,-2.1112940311431885,-11.867453575134277,2.431417942047119,60.30000305175781,-170.10000610351562,-23.700000762939453
1005099,0.9378882050514221,4.292273998260498,0.8338112831115723,-2.1722700595855713,-13.414719581604004,1.600619912147522,65.10000610351562,-170.10000610351562,-18.30000114440918
1005119,0.9253271818161011,3.3454136848449707,1.2800259590148926,-2.1722700595855713,-13.894906044006348,1.3186060190200806,62.70000076293945,-170.10000610351562,-17.100000381469727
1005139,1.702314853668213,3.036771774291992,1.6640337705612183,-2.134160041809082,-13.018375396728516,1.4634239673614502,69.9000015258789,-167.70001220703125,-24.30000114440918
1005179,1.9798532724380493,2.521172523498535,0.37324121594429016,-0.15243999660015106,-9.28359603881836,-0.17530599236488342,60.30000305175781,-170.10000610351562,-20.100000381469727
1005211,2.3052430152893066,2.9255173206329346,-0.37862449884414673,1.0594580173492432,-7.9268798828125,-1.9131219387054443,65.10000610351562,-179.70001220703125,-22.5
1005231,1.824336051940918,1.9140574932098389,-1.4032434225082397,1.1509219408035278,-5.7164998054504395,-4.32167387008667,62.70000076293945,-172.5,-24.900001525878906
1005271,2.583977699279785,4.164271354675293,-3.8251242637634277,4.878079891204834,-3.75002384185791,-1.4862899780273438,72.30000305175781,-162.90000915527344,-15.90000057220459
1005294,1.9666941165924072,6.398933410644531,-6.289473533630371,4.382649898529053,1.4024479389190674,-3.9786839485168457,74.70000457763672,-177.3000030517578,-15.90000057220459
1005337,3.1761391162872314,7.149004936218262,-7.245306015014648,4.413137912750244,-1.0518360137939453,-4.344540119171143,81.9000015258789,-158.10000610351562,-21.900001525878906
1005357,3.332852602005005,9.625914573669434,-7.21958589553833,3.5442299842834473,2.743919849395752,-5.259180068969727,96.30000305175781,-160.5,-18.30000114440918
1005377,1.4648520946502686,8.96915340423584,-9.378283500671387,6.303393840789795,8.132674217224121,-8.910118103027344,101.10000610351562,-153.3000030517578,-17.700000762939453
1005397,1.741194248199463,8.890198707580566,-10.986091613769531,7.202789783477783,7.705842018127441,-7.972611904144287,98.70000457763672,-155.70001220703125,-12.90000057220459
1005417,2.9075729846954346,11.607562065124512,-11.202021598815918,3.2241058349609375,6.417723655700684,-5.045763969421387,98.70000457763672,-160.5,-21.30000114440918
1005460,0.6836774349212646,10.59191608428955,-10.887398719787598,3.0792880058288574,7.553401947021484,-9.275973320007324,115.50000762939453,-141.3000030517578,-11.700000762939453
1005481,0.12202116847038269,11.493915557861328,-10.36282730102539,1.1128119230270386,8.14029598236084,-7.370473861694336,117.9000015258789,-129.3000030517578,-11.700000762939453
1005501,-1.1418548822402954,12.736856460571289,-11.343183517456055,3.109776020050049,13.201303482055664,-5.899427890777588,127.50000762939453,-136.5,-9.300000190734863
1005523,-1.1819305419921875,10.634384155273438,-12.755398750305176,3.2622158527374268,5.708878040313721,-8.094563484191895,129.90000915527344,-129.3000030517578,-12.90000057220459
1005603,-2.4517879486083984,14.14129638671875,-6.873260974884033,-6.181441783905029,-8.635725975036621,-9.961954116821289,134.70001220703125,-138.90000915527344,-9.90000057220459
1005627,-6.614264965057373,14.56059455871582,-5.353977680206299,-0.510673999786377,10.907081604003906,-2.4619059562683105,158.70001220703125,-126.9000015258789,-11.100000381469727
1005647,-3.6582424640655518,19.599349975585938,-11.130842208862305,-1.524399995803833,21.410198211669922,3.003067970275879,134.70001220703125,-126.9000015258789,-9.90000057220459
1005691,-5.949130058288574,14.552818298339844,-5.902474880218506,-3.445143938064575,9.123534202575684,0.26677000522613525,134.70001220703125,-122.10000610351562,-11.700000762939453
1005711,-4.54050350189209,16.465679168701172,-7.515666484832764,-3.60520601272583,13.353743553161621,3.2698378562927246,139.5,-131.70001220703125,-8.100000381469727
1005731,-3.814955949783325,15.753291130065918,-6.501215934753418,-5.640279769897461,4.032037734985352,-2.4771499633789062,127.50000762939453,-131.70001220703125,-2.700000047683716
1005751,-4.48068904876709,12.601078033447266,-4.415491580963135,-4.32167387008667,4.870458126068115,-1.5929979085922241,139.5,-131.70001220703125,-9.90000057220459
1005817,-3.4590609073638916,13.366701126098633,-3.8921163082122803,-5.548815727233887,3.955817937850952,2.5000159740448,134.70001220703125,-136.5,-6.900000095367432
1005867,-2.5175838470458984,9.4195556640625,-1.422982096672058,-3.5289859771728516,-0.853663980960846,3.7195358276367188,110.70000457763672,-146.10000610351562,-12.90000057220459
1005887,-1.0054783821105957,10.568588256835938,-1.0951998233795166,-3.711913824081421,-1.4939119815826416,5.891805648803711,108.30000305175781,-150.90000915527344,-15.90000057220459
1005927,-0.07656230032444,7.728605270385742,-0.8750831484794617,-2.5076379776000977,-2.1112940311431885,2.591480016708374,96.30000305175781,-153.3000030517578,-11.700000762939453
1005947,0.19080761075019836,7.491740703582764,-0.22789247334003448,-3.445143938064575,-1.935987949371338,2.4237959384918213,93.9000015258789,-150.90000915527344,-12.90000057220459
1005967,-0.0897214487195015,6.634003639221191,-0.4163075089454651,-4.6951518058776855,0.007621999830007553,1.6920839548110962,91.5,-155.70001220703125,-16.5
1005987,-0.034094151109457016,6.032271862030029,-0.24344418942928314,-4.268320083618164,-0.7088459730148315,1.92836594581604,93.9000015258789,-160.5,-8.100000381469727
1006007,0.47313109040260315,5.193675518035889,-0.09031958878040314,-3.3917899131774902,-2.027451992034912,1.7835479974746704,91.5,-165.3000030517578,-17.700000762939453
1006027,0.7446879744529724,5.004662036895752,0.2954826354980469,-3.201239824295044,-3.0716660022735596,1.417691946029663,101.10000610351562,-162.90000915527344,-17.700000762939453
1006047,1.2166228294372559,3.7156641483306885,0.8607277274131775,-2.599102020263672,-4.2988080978393555,0.228659987449646,79.5,-158.10000610351562,-17.700000762939453
1006109,1.8201490640640259,3.6582424640655518,-0.809885561466217,2.134160041809082,-1.5929979085922241,3.810999870300293,86.70000457763672,-165.3000030517578,-16.5
1006130,2.0067696571350098,3.762319326400757,-1.1143403053283691,1.9207439422607422,-1.753059983253479,3.7424018383026123,98.70000457763672,-155.70001220703125,-23.100000381469727
1006150,2.3955626487731934,4.23365592956543,-1.037179946899414,0.5792719721794128,-1.7911700010299683,3.8948419094085693,79.5,-160.5,-14.100000381469727
1006170,2.131183385848999,3.5158843994140625,-1.8596265316009521,0.06859800219535828,-0.9451279640197754,2.8582499027252197,89.10000610351562,-162.90000915527344,-14.100000381469727
1006190,2.3943662643432617,4.070960998535156,-2.1927921772003174,0.800309956073761,-1.6234859228134155,3.551851987838745,69.9000015258789,-167.70001220703125,-11.700000762939453
1006210,3.2568883895874023,5.842062473297119,-1.9702829122543335,0.8155539631843567,-2.3551979064941406,3.9939279556274414,67.5,-162.90000915527344,-13.500000953674316
1006230,3.743776798248291,6.788324356079102,-1.9894235134124756,-0.3201240003108978,-1.3338500261306763,2.599102020263672,62.70000076293945,-172.5,-21.900001525878906
1006250,3.5661284923553467,6.528132438659668,-1.9643014669418335,-0.5182960033416748,-0.44969800114631653,0.6631140112876892,60.30000305175781,-167.70001220703125,-17.100000381469727
1006273,3.469229221343994,6.894196033477783,-2.25081205368042,0.1600620001554489,0.7240899801254272,0.6554920077323914,60.30000305175781,-174.90000915527344,-17.100000381469727
1006333,3.2120277881622314,9.09177303314209,-3.0008833408355713,1.9054999351501465,-0.7012239694595337,0.5640279650688171,55.500003814697266,-158.10000610351562,-15.300000190734863
1006353,3.156400442123413,9.73836612701416,-3.1797280311584473,0.8841519951820374,-0.4420759975910187,0.17530599236488342,79.5,-155.70001220703125,-12.90000057220459
1006373,2.599529266357422,8.689821243286133,-3.3842928409576416,0.5868939757347107,-0.2896359860897064,-1.1585439443588257,67.5,-172.5,-13.500000953674316
1006413,2.1987736225128174,9.119287490844727,-3.49973464012146,0.5182960033416748,-0.1448179930448532,-1.0747020244598389,72.30000305175781,-165.3000030517578,-7.500000476837158
1006455,1.7758865356445312,8.758607864379883,-3.180326223373413,-0.23628199100494385,0.457319974899292,-1.9893419742584229,60.30000305175781,-167.70001220703125,-11.100000381469727
1006475,1.4570763111114502,8.481069564819336,-3.049931049346924,-0.5564059615135193,0.7164679765701294,-2.0655620098114014,79.5,-165.3000030517578,-15.300000190734863
1006519,1.2471281290054321,8.63479232788086,-2.909367322921753,-0.9451279640197754,0.8307979702949524,-0.23628199100494385,67.5,-167.70001220703125,-15.300000190734863
1006539,1.308736801147461,9.017603874206543,-3.058305025100708,-0.33536797761917114,0.6097599864006042,-0.228659987449646,84.30000305175781,-158.10000610351562,-19.5
1006559,1.715474009513855,9.492528915405273,-2.757439136505127,-0.23628199100494385,0.030487999320030212,-0.26677000522613525,69.9000015258789,-162.90000915527344,-22.5
1006579,1.512703537940979,9.327441215515137,-2.766411304473877,-0.35061198472976685,0.060975998640060425,-0.9298839569091797,62.70000076293945,-172.5,-17.700000762939453
1006653,1.636519193649292,9.16953182220459,-2.993107318878174,-0.28201398253440857,0.6021379828453064,-0.6250039935112,74.70000457763672,-162.90000915527344,-17.700000762939453
1006696,1.6239581108093262,8.57198715209961,-2.6629323959350586,-0.5335400104522705,0.5487840175628662,-1.0442140102386475,72.30000305175781,-170.10000610351562,-16.5
1006716,1.3583827018737793,8.254372596740723,-3.1229045391082764,-0.41158798336982727,0.9070180058479309,-1.013725996017456,79.5,-174.90000915527344,-21.900001525878906
1006736,1.640706181526184,9.04691219329834,-3.0301923751831055,-0.060975998640060425,0.12195199728012085,-0.3582339882850647,81.9000015258789,-162.90000915527344,-17.700000762939453
1006756,1.9660959243774414,9.263440132141113,-3.0475385189056396,-0.3887220025062561,0.2972579896450043,-0.5335400104522705,67.5,-172.5,-17.100000381469727
1006776,1.8991038799285889,8.65153980255127,-2.891423225402832,-0.7926880121231079,0.685979962348938,-0.3887220025062561,91.5,-160.5,-21.900001525878906
1006797,1.6448931694030762,8.686830520629883,-3.017033100128174,-0.7698220014572144,1.14329993724823,-0.114329993724823,69.9000015258789,-153.3000030517578,-8.700000762939453
1006817,1.5707234144210815,8.902759552001953,-3.240140438079834,-0.426831990480423,1.1204339265823364,-0.5182960033416748,77.10000610351562,-167.70001220703125,-15.300000190734863
1006841,1.6060138940811157,9.161157608032227,-3.1970741748809814,-0.4420759975910187,0.8765299916267395,-0.5030519962310791,79.5,-167.70001220703125,-21.30000114440918
1006861,1.4941611289978027,8.777748107910156,-3.1994667053222656,-0.800309956073761,0.9603719711303711,-0.6707359552383423,81.9000015258789,-170.10000610351562,-12.90000057220459
1006881,1.418795108795166,8.75202751159668,-3.153409719467163,-0.5411620140075684,0.853663980960846,-0.2972579896450043,84.30000305175781,-158.10000610351562,-15.300000190734863
1006901,1.5665364265441895,8.963770866394043,-3.034379243850708,-0.39634400606155396,0.8993960022926331,-0.04573199898004532,81.9000015258789,-165.3000030517578,-15.90000057220459
1006922,1.6000324487686157,9.2281494140625,-2.8950119018554688,-0.4725639820098877,1.0061039924621582,-0.19054999947547913,84.30000305175781,-165.3000030517578,-15.300000190734863
1006942,1.5868732929229736,8.944031715393066,-2.783757448196411,-0.7926880121231079,1.067080020904541,-0.5945159792900085,86.70000457763672,-167.70001220703125,-16.5
1006964,1.4971518516540527,8.45235824584961,-2.5863702297210693,-0.8917739987373352,1.067080020904541,-0.7926880121231079,79.5,-158.10000610351562,-17.100000381469727
1006984,1.2901943922042847,8.71135425567627,-2.6067070960998535,-0.5335400104522705,1.0594580173492432,-0.5487840175628662,69.9000015258789,-153.3000030517578,-14.700000762939453
1007044,0.6250594258308411,9.819713592529297,-1.8997020721435547,-1.3567159175872803,-0.015243999660015106,0.5868939757347107,77.10000610351562,-170.10000610351562,-18.30000114440918
1007070,0.5526841282844543,10.276694297790527,-1.2447354793548584,-3.003067970275879,-0.06859800219535828,0.1600620001554489,79.5,-162.90000915527344,-21.30000114440918
1007090,0.25241634249687195,9.281982421875,-1.3063442707061768,-4.222588062286377,1.3338500261306763,-0.5030519962310791,77.10000610351562,-153.3000030517578,-23.100000381469727
1007130,-0.9133642911911011,9.417760848999023,-1.303951621055603,-4.405515670776367,-1.882633924484253,1.577754020690918,77.10000610351562,-165.3000030517578,-23.100000381469727
1007150,-0.7632304430007935,8.77116870880127,-1.0246188640594482,-3.871975898742676,-5.304912090301514,2.7134318351745605,74.70000457763672,-167.70001220703125,-21.900001525878906
1007170,-0.34094148874282837,8.630006790161133,-0.32000648975372314,-3.300325870513916,-9.001582145690918,4.123501777648926,81.9000015258789,-162.90000915527344,-26.700000762939453
1007190,0.1351803094148636,7.532414436340332,0.23327575623989105,-3.201239824295044,-11.17385196685791,4.100636005401611,84.30000305175781,-172.5,-21.900001525878906
1007210,1.0545260906219482,6.598114967346191,0.7793802618980408,-2.698187828063965,-13.46045207977295,4.481735706329346,57.900001525878906,-174.90000915527344,-25.500001907348633
1007230,1.3631678819656372,6.087899208068848,1.2226042747497559,-2.080806016921997,-14.085455894470215,4.32167387008667,65.10000610351562,-170.10000610351562,-24.30000114440918
1007250,1.3404383659362793,5.089598655700684,1.2800259590148926,-1.3414719104766846,-13.643380165100098,3.414655923843384,57.900001525878906,-165.3000030517578,-24.900001525878906
1007270,1.5605549812316895,4.520764350891113,1.3858972787857056,-0.739333987236023,-13.262279510498047,2.743919849395752,60.30000305175781,-162.90000915527344,-26.100000381469727
1007290,1.3332606554031372,3.3466098308563232,1.1711639165878296,-0.35061198472976685,-12.309529304504395,0.9527499675750732,48.30000305175781,-170.10000610351562,-26.100000381469727
1007310,1.21901535987854,2.146735191345215,0.8936256170272827,0.7774440050125122,-11.593061447143555,-0.39634400606155396,55.500003814697266,-167.70001220703125,-26.700000762939453
1007330,1.7705031633377075,1.809382438659668,0.3696523606777191,1.8445239067077637,-9.687561988830566,-0.39634400606155396,55.500003814697266,-172.5,-24.30000114440918
1007350,2.2101383209228516,2.3004579544067383,-0.4575793743133545,2.8582499027252197,-7.85828161239624,-0.853663980960846,48.30000305175781,-174.90000915527344,-22.5
1007374,2.051032304763794,1.4827964305877686,-1.8171583414077759,3.6356940269470215,-3.7957558631896973,-3.5899620056152344,55.500003814697266,-177.3000030517578,-25.500001907348633
1007394,2.3207948207855225,2.184418201446533,-3.5930447578430176,5.746987819671631,-1.707327961921692,-2.4771499633789062,53.10000228881836,-177.3000030517578,-26.100000381469727
1007414,2.345916748046875,4.114625453948975,-4.45975399017334,5.800342082977295,-0.9908599853515625,-2.339953899383545,69.9000015258789,-172.5,-26.700000762939453
1007434,2.9757611751556396,5.490354537963867,-5.321079730987549,5.495461940765381,0.7012239694595337,-2.8811159133911133,60.30000305175781,-170.10000610351562,-20.100000381469727
1007454,2.307037353515625,5.2684431076049805,-6.233846187591553,4.458869934082031,2.3628199100494385,-5.030519962310791,72.30000305175781,-170.10000610351562,-23.100000381469727
1007477,2.861515998840332,6.2045369148254395,-7.61196756362915,5.541193962097168,3.5366079807281494,-3.810999870300293,79.5,-158.10000610351562,-22.5
1007500,3.9309957027435303,7.849430084228516,-7.958890438079834,4.17685604095459,2.0045859813690186,-3.4908759593963623,74.70000457763672,-158.10000610351562,-14.700000762939453
1007521,3.597231864929199,8.289663314819336,-8.044425010681152,3.0640439987182617,2.7058098316192627,-5.274424076080322,69.9000015258789,-167.70001220703125,-17.700000762939453
1007542,3.1049602031707764,8.228652954101562,-9.341198921203613,3.0335559844970703,3.7881338596343994,-6.486321926116943,96.30000305175781,-150.90000915527344,-20.100000381469727
1007562,3.844862937927246,8.905152320861816,-7.964273452758789,1.1280559301376343,1.7149499654769897,-6.486321926116943,81.9000015258789,-162.90000915527344,-14.700000762939453
1007582,2.5235652923583984,9.223962783813477,-7.7250165939331055,1.1585439443588257,6.105221748352051,-7.279009819030762,98.70000457763672,-153.3000030517578,-9.300000190734863
1007603,1.5210776329040527,9.910032272338867,-8.429030418395996,1.021347999572754,8.582371711730957,-7.667731761932373,105.9000015258789,-143.70001220703125,-16.5
1007623,1.514497995376587,9.830479621887207,-8.558229446411133,0.6478700041770935,9.74091625213623,-8.833897590637207,113.10000610351562,-155.70001220703125,-15.90000057220459
1007643,0.2691643238067627,10.771358489990234,-9.627111434936523,2.39330792427063,12.797337532043457,-6.859799861907959,115.50000762939453,-158.10000610351562,-10.5
1007663,-0.6298445463180542,11.829473495483398,-10.771358489990234,1.4100699424743652,11.974162101745605,-6.067111968994141,125.10000610351562,-146.10000610351562,-15.90000057220459
1007686,0.4677478075027466,10.818612098693848,-9.327441215515137,-0.967993974685669,6.135709762573242,-7.667731761932373,120.30000305175781,-150.90000915527344,-7.500000476837158
1007706,0.005383286625146866,11.536383628845215,-8.102444648742676,0.4725639820098877,9.512255668640137,-5.312533855438232,129.90000915527344,-136.5,-9.300000190734863
1007726,-1.2895961999893188,14.35722541809082,-10.577560424804688,1.425313949584961,16.77602195739746,-3.452765941619873,125.10000610351562,-146.10000610351562,-14.100000381469727
1007746,-1.6568560600280762,14.472667694091797,-11.767865180969238,1.4024479389190674,11.524463653564453,-6.150953769683838,125.10000610351562,-141.3000030517578,-2.1000001430511475
1007769,-2.5857720375061035,12.373185157775879,-8.281888008117676,-1.8521459102630615,4.237832069396973,-8.376577377319336,120.30000305175781,-146.10000610351562,-4.5
1007789,-4.51956844329834,18.654285430908203,-10.304208755493164,1.0518360137939453,17.987918853759766,-1.8673899173736572,132.3000030517578,-122.10000610351562,-6.900000095367432
1007809,-3.959108352661133,19.599349975585938,-12.523917198181152,0.9984819889068604,12.286664009094238,-4.451247692108154,125.10000610351562,-129.3000030517578,-8.700000762939453
1007829,-3.1575968265533447,18.745800018310547,-10.923287391662598,-2.2713558673858643,3.666181802749634,-6.600651741027832,134.70001220703125,-129.3000030517578,-6.300000190734863
1007849,-5.755929946899414,18.248146057128906,-4.978941917419434,-5.937537670135498,1.0442140102386475,-4.474113941192627,137.10000610351562,-129.3000030517578,2.700000047683716
1007869,-5.770883560180664,18.924646377563477,-7.520451545715332,-3.5366079807281494,15.129669189453125,-2.3551979064941406,134.70001220703125,-134.10000610351562,-10.5
1007889,-4.8479485511779785,17.029130935668945,-8.426039695739746,-4.67990779876709,7.705842018127441,-2.6067240238189697,139.5,-131.70001220703125,-5.700000286102295
1007910,-4.530932903289795,16.280256271362305,-2.1084539890289307,-5.5030837059021,3.810999870300293,1.3186060190200806,137.10000610351562,-122.10000610351562,-2.1000001430511475
1007930,-4.292273998260498,16.2318058013916,-4.858715534210205,-5.403997898101807,10.807995796203613,0.8765299916267395,134.70001220703125,-138.90000915527344,-1.5
1007950,-3.8197410106658936,14.299803733825684,-4.274927616119385,-4.580821990966797,5.198204040527344,0.35061198472976685,125.10000610351562,-148.5,-14.700000762939453
1007970,-3.308328866958618,12.515543937683105,-2.4721248149871826,-3.704291820526123,2.1112940311431885,0.3201240003108978,122.70000457763672,-131.70001220703125,-3.9000000953674316
1007990,-2.1174261569976807,13.105910301208496,-2.524761438369751,-3.5442299842834473,3.49849796295166,3.4832539558410645,125.10000610351562,-153.3000030517578,-9.90000057220459
1008010,-2.551677942276001,13.629883766174316,-2.9518356323242188,-4.382649898529053,2.5152599811553955,3.1173980236053467,108.30000305175781,-146.10000610351562,-11.100000381469727
1008031,-2.7969164848327637,10.993269920349121,-2.843571662902832,-3.8491098880767822,0.12195199728012085,0.6021379828453064,117.9000015258789,-148.5,-9.90000057220459
1008052,-2.0785467624664307,8.54985523223877,-1.4750205278396606,-2.690565824508667,-3.0792880058288574,2.339953899383545,105.9000015258789,-146.10000610351562,-12.90000057220459
1008072,-1.4636558294296265,9.90464973449707,-0.707004964351654,-4.596065998077393,-1.2347639799118042,7.561023712158203,120.30000305175781,-141.3000030517578,-9.300000190734863
1008092,-0.7781839966773987,9.657018661499023,-2.1778385639190674,-5.739366054534912,0.5335400104522705,7.233277797698975,98.70000457763672,-160.5,-17.700000762939453
1008114,-0.5628525614738464,8.265737533569336,-1.5079184770584106,-4.047281742095947,-2.545747995376587,5.739366054534912,98.70000457763672,-150.90000915527344,-9.300000190734863
1008135,-0.1926020383834839,6.8367743492126465,-0.9103736281394958,-3.414655923843384,-4.054903984069824,3.7195358276367188,96.30000305175781,-141.3000030517578,-11.100000381469727
1008155,0.20396675169467926,5.540598392486572,-0.3959706425666809,-2.6600780487060547,-5.091495990753174,2.5609920024871826,91.5,-158.10000610351562,-15.90000057220459
1008175,0.05562729761004448,5.153599739074707,-0.1591060310602188,-2.545747995376587,-5.350644111633301,2.126538038253784,96.30000305175781,-150.90000915527344,-12.300000190734863
1008195,0.19320018589496613,4.661328315734863,-0.6406111121177673,-1.8445239067077637,-4.908567905426025,2.8582499027252197,103.50000762939453,-153.3000030517578,-15.300000190734863
1008215,-0.008374001830816269,4.21272087097168,-0.5754135251045227,-1.6311079263687134,-6.333881855010986,2.8734939098358154,89.10000610351562,-158.10000610351562,-20.100000381469727
1008235,0.712986409664154,3.6223537921905518,-0.3618764877319336,-1.981719970703125,-7.179924011230469,4.054903984069824,86.70000457763672,-160.5,-20.100000381469727
1008275,0.8170632719993591,2.23884916305542,-0.003588857827708125,-1.5701320171356201,-6.7835798263549805,4.57319974899292,101.10000610351562,-160.5,-20.100000381469727
1008298,1.327877402305603,1.8697949647903442,-0.18602246046066284,-0.3582339882850647,-6.326260089874268,5.015275955200195,62.70000076293945,-172.5,-12.300000190734863
1008318,2.133575916290283,2.8776657581329346,-0.09689915925264359,-0.2591480016708374,-5.663146018981934,5.708878040313721,69.9000015258789,-167.70001220703125,-17.700000762939453
1008338,2.6808767318725586,3.3346471786499023,-0.4551868140697479,-0.030487999320030212,-4.687530040740967,5.289668083190918,74.70000457763672,-172.5,-21.30000114440918
1008398,4.787536144256592,5.912045001983643,-1.2405484914779663,0.5792719721794128,-2.8734939098358154,4.908567905426025,57.900001525878906,-186.90000915527344,-18.900001525878906
1008473,4.086512565612793,8.670680046081543,-2.9159469604492188,0.9298839569091797,1.6768399477005005,0.3887220025062561,43.5,-162.90000915527344,-10.5
1008632,2.0306954383850098,9.342992782592773,-3.627737045288086,-0.06859800219535828,0.19817200303077698,-0.967993974685669,60.30000305175781,-170.10000610351562,-18.30000114440918
1008652,1.7794753313064575,9.020594596862793,-3.511099338531494,-0.7469559907913208,0,-0.9298839569091797,53.10000228881836,-162.90000915527344,-18.30000114440918
1008697,1.82254159450531,8.4116849899292,-2.8094775676727295,-0.571649968624115,-0.2896359860897064,-0.6250039935112,55.500003814697266,-162.90000915527344,-18.900001525878906
1008737,2.432647466659546,9.274805068969727,-2.545696496963501,-0.19054999947547913,-0.5411620140075684,-1.5091559886932373,60.30000305175781,-160.5,-13.500000953674316
1008813,1.2830166816711426,9.209009170532227,-2.8507494926452637,-0.38109999895095825,0.15243999660015106,-0.20579399168491364,41.10000228881836,-162.90000915527344,-11.700000762939453
1008833,1.60541570186615,9.356152534484863,-2.944657802581787,-0.16768398880958557,-0.9222619533538818,-0.33536797761917114,57.900001525878906,-162.90000915527344,-17.700000762939453
1008873,2.002582550048828,8.76817798614502,-2.20595121383667,-0.5182960033416748,-0.8917739987373352,-0.48018598556518555,65.10000610351562,-170.10000610351562,-7.500000476837158
1008895,2.036078691482544,8.99606990814209,-2.3411316871643066,-0.5030519962310791,-0.007621999830007553,-0.4039659798145294,55.500003814697266,-170.10000610351562,-15.90000057220459
1008915,1.84945809841156,8.848328590393066,-2.509807825088501,-0.457319974899292,0.342989981174469,-0.8079319596290588,67.5,-179.70001220703125,-13.500000953674316
1008937,1.727436900138855,8.67247486114502,-2.5062191486358643,-0.015243999660015106,0.426831990480423,-0.571649968624115,62.70000076293945,-160.5,-11.700000762939453
1008997,1.443917155265808,9.05887508392334,-2.981144666671753,0.13719600439071655,0.5640279650688171,-0.4420759975910187,53.10000228881836,-160.5,-15.300000190734863
1009017,1.6383136510849,8.721522331237793,-2.7377004623413086,0.16768398880958557,0.18292799592018127,-0.2972579896450043,79.5,-165.3000030517578,-17.100000381469727
1009040,1.8709912300109863,9.01222038269043,-2.682671308517456,0.18292799592018127,0.3048799932003021,-0.1448179930448532,65.10000610351562,-167.70001220703125,-21.30000114440918
1009080,2.0289008617401123,8.992481231689453,-2.747868776321411,-0.15243999660015106,0.510673999786377,-0.41158798336982727,74.70000457763672,-174.90000915527344,-19.5
1009108,1.9989937543869019,8.71135425567627,-2.644390106201172,-0.4192099869251251,0.6783579587936401,-0.17530599236488342,67.5,-162.90000915527344,-17.100000381469727
1009128,2.1736514568328857,8.96018123626709,-2.601922035217285,-0.2134159952402115,0.8307979702949524,-0.09908600151538849,74.70000457763672,-172.5,-14.100000381469727
1009172,2.057013750076294,8.820216178894043,-2.6850638389587402,-0.08384199440479279,0.914639949798584,-0.5487840175628662,65.10000610351562,-158.10000610351562,-9.90000057220459
1009255,0.8320168852806091,10.010520935058594,-1.9176464080810547,-1.5701320171356201,-1.013725996017456,0.09908600151538849,67.5,-160.5,-25.500001907348633
1009291,1.0886201858520508,10.015305519104004,-1.296773910522461,-1.9054999351501465,-2.14178204536438,1.1509219408035278,53.10000228881836,-167.70001220703125,-18.30000114440918
1009312,0.028710862621665,9.46022891998291,-1.0694795846939087,-3.1783738136291504,-2.5686140060424805,0.510673999786377,60.30000305175781,-177.3000030517578,-15.90000057220459
1009354,-0.5592637062072754,7.7573161125183105,-1.016244888305664,-2.7134318351745605,-6.242417812347412,-0.7469559907913208,72.30000305175781,-172.5,-23.100000381469727
1009374,-0.7363139986991882,6.988104343414307,-1.3135219812393188,-1.6920839548110962,-8.201272010803223,1.0823240280151367,67.5,-165.3000030517578,-21.30000114440918
1009394,-0.11364716291427612,7.348186492919922,-1.2441374063491821,-1.3186060190200806,-10.647933959960938,3.4222779273986816,62.70000076293945,-165.3000030517578,-20.100000381469727
1009414,0.5341416597366333,6.98451566696167,-0.817661464214325,-2.088428020477295,-12.622032165527344,4.115880012512207,50.70000076293945,-165.3000030517578,-21.30000114440918
1009437,1.1137422323226929,6.064571380615234,-0.44800907373428345,-3.246971845626831,-13.605269432067871,3.7195358276367188,48.30000305175781,-165.3000030517578,-26.100000381469727
1009457,1.6000324487686157,5.026793479919434,-0.22430361807346344,-3.3231918811798096,-13.925394058227539,3.346057891845703,48.30000305175781,-172.5,-25.500001907348633
1009477,2.0372750759124756,4.443603992462158,0.12082488089799881,-2.987823963165283,-13.673867225646973,3.1326420307159424,48.30000305175781,-158.10000610351562,-23.700000762939453
1009540,2.083930015563965,2.5708184242248535,-0.4151112139225006,-0.967993974685669,-10.221101760864258,-1.8902559280395508,50.70000076293945,-170.10000610351562,-20.700000762939453
1009560,3.019425630569458,3.7868430614471436,-0.6824811100959778,-0.4878079891204834,-8.89487361907959,-1.295740008354187,50.70000076293945,-174.90000915527344,-28.500001907348633
1009580,3.1558022499084473,4.060194492340088,-1.8518506288528442,-0.6021379828453064,-6.082355976104736,-3.3384358882904053,62.70000076293945,-165.3000030517578,-20.100000381469727
1009602,2.9614057540893555,3.5727078914642334,-3.6079983711242676,2.5762360095977783,-4.2149658203125,-3.5975840091705322,55.500003814697266,-179.70001220703125,-19.5
1009622,2.908769369125366,5.10814094543457,-4.154102802276611,3.4908759593963623,-3.955817937850952,-2.6295900344848633,67.5,-170.10000610351562,-27.900001525878906
1009642,3.3316564559936523,5.940755844116211,-4.8658928871154785,3.460387945175171,-2.682943820953369,-3.955817937850952,69.9000015258789,-179.70001220703125,-21.900001525878906
1009662,3.227579355239868,5.245713710784912,-4.474109649658203,2.7134318351745605,-3.0183119773864746,-5.564059734344482,72.30000305175781,-172.5,-24.30000114440918
1009682,3.1402506828308105,5.3874735832214355,-4.9496331214904785,2.3475759029388428,0.2896359860897064,-6.333881855010986,84.30000305175781,-165.3000030517578,-21.900001525878906
1009702,3.263468027114868,7.29016637802124,-6.441999912261963,4.184477806091309,3.2317278385162354,-5.8613176345825195,89.10000610351562,-160.5,-21.900001525878906
1009724,2.548687219619751,7.394243240356445,-6.961187839508057,3.551851987838745,1.9436099529266357,-8.025965690612793,93.9000015258789,-170.10000610351562,-19.5
1009744,2.402740240097046,7.213006019592285,-6.218892574310303,2.3475759029388428,2.278977870941162,-8.78054428100586,96.30000305175781,-155.70001220703125,-18.900001525878906
1009764,1.9457590579986572,7.543779373168945,-6.492841720581055,1.524399995803833,5.960403919219971,-9.580853462219238,105.9000015258789,-153.3000030517578,-24.900001525878906
1009784,0.6364241242408752,9.26224422454834,-7.7638959884643555,2.179892063140869,10.167747497558594,-8.414688110351562,110.70000457763672,-153.3000030517578,-16.5
1009804,0.27275320887565613,9.763487815856934,-8.942237854003906,1.875011920928955,12.172333717346191,-9.390303611755371,113.10000610351562,-143.70001220703125,-24.30000114440918
1009827,0.030505292117595673,8.634193420410156,-8.49721908569336,0.33536797761917114,10.0000638961792,-10.160125732421875,132.3000030517578,-138.90000915527344,-13.500000953674316
1009847,-1.21901535987854,10.617635726928711,-8.0946683883667,1.5091559886932373,12.690629959106445,-5.236313819885254,127.50000762939453,-150.90000915527344,-15.300000190734863
1009867,-0.5245713591575623,15.045089721679688,-9.360937118530273,-0.3125019967556,16.501628875732422,-3.4908759593963623,132.3000030517578,-153.3000030517578,-15.90000057220459
1009927,-3.0355756282806396,15.802937507629395,-8.551650047302246,-4.375028133392334,12.6448974609375,1.2347639799118042,134.70001220703125,-143.70001220703125,-10.5
1009955,-4.67987060546875,16.2078800201416,-9.17252254486084,-2.2103798389434814,17.03516960144043,-6.699738025665283,122.70000457763672,-141.3000030517578,-23.100000381469727
1009975,-4.844359874725342,12.987478256225586,-10.236618995666504,0.3734779953956604,11.311047554016113,-5.091495990753174,132.3000030517578,-129.3000030517578,-12.300000190734863
1010017,-3.7072901725769043,19.10588264465332,-5.19487190246582,-2.225623846054077,11.722635269165039,-0.457319974899292,122.70000457763672,-141.3000030517578,-12.300000190734863
1010060,-2.885441780090332,18.331287384033203,-4.069166660308838,-3.414655923843384,1.806414008140564,2.39330792427063,141.90000915527344,-146.10000610351562,-9.300000190734863
1010102,-4.868285655975342,16.22881507873535,-7.684342861175537,-2.6067240238189697,12.446725845336914,-1.9054999351501465,125.10000610351562,-141.3000030517578,-7.500000476837158
1010132,-3.156998634338379,14.177783012390137,-3.6612331867218018,-4.763750076293945,0.8917739987373352,3.361301898956299,127.50000762939453,-141.3000030517578,-7.500000476837158
1010153,-1.737605333328247,15.402181625366211,-3.3633580207824707,-3.1173980236053467,3.75002384185791,4.458869934082031,125.10000610351562,-138.90000915527344,-10.5
1010193,-2.5002377033233643,12.565189361572266,-3.377115249633789,-2.1112940311431885,2.9268479347229004,1.2881180047988892,117.9000015258789,-136.5,-11.700000762939453
1010216,-2.298663377761841,12.424027442932129,-3.3813021183013916,-2.0655620098114014,2.652456045150757,3.4222779273986816,103.50000762939453,-150.90000915527344,-9.300000190734863
1010236,-1.726240634918213,12.729679107666016,-2.671306610107422,-2.492393970489502,0.7926880121231079,4.306429862976074,108.30000305175781,-138.90000915527344,-11.100000381469727
1010256,-1.110153317451477,11.836650848388672,-1.6532671451568604,-3.620450019836426,-1.067080020904541,2.6067240238189697,108.30000305175781,-148.5,-12.300000190734863
1010276,-1.305746078491211,9.207813262939453,-1.1645843982696533,-3.650938034057617,-0.9908599853515625,0.030487999320030212,113.10000610351562,-146.10000610351562,-9.300000190734863
1010296,-1.5922565460205078,7.434916973114014,-1.4211877584457397,-3.2622158527374268,-1.1280559301376343,0.38109999895095825,110.70000457763672,-155.70001220703125,-9.300000190734863
1010316,-1.2734464406967163,6.64477014541626,-1.6263507604599,-2.4237959384918213,-1.9588539600372314,2.8582499027252197,113.10000610351562,-158.10000610351562,-10.5
1010336,-0.8589333295822144,6.620246410369873,-0.9660009145736694,-2.225623846054077,-3.8491098880767822,4.375028133392334,105.9000015258789,-158.10000610351562,-12.300000190734863
1010357,-0.2368646115064621,6.044234752655029,-0.1692744642496109,-3.7424018383026123,-3.696669816970825,5.434485912322998,91.5,-155.70001220703125,-11.100000381469727
1010377,0.011962858960032463,5.803781032562256,-0.25540703535079956,-3.8338658809661865,-2.9116039276123047,5.388753890991211,101.10000610351562,-162.90000915527344,-15.300000190734863
1010401,0.25122004747390747,5.529233455657959,-0.6053206920623779,-3.407033920288086,-2.652456045150757,4.809482097625732,77.10000610351562,-162.90000915527344,-14.100000381469727
1010421,0.1752558946609497,4.993297576904297,-0.6513776779174805,-2.8658719062805176,-3.4298999309539795,2.9192259311676025,93.9000015258789,-158.10000610351562,-20.100000381469727
1010442,0.26856619119644165,3.8017966747283936,-0.8762794733047485,-1.707327961921692,-4.458869934082031,1.5396440029144287,89.10000610351562,-165.3000030517578,-20.700000762939453
1010462,1.0682833194732666,3.6498684883117676,-0.509019672870636,-1.3948259353637695,-5.823207855224609,3.0792880058288574,91.5,-155.70001220703125,-17.700000762939453
1010483,1.3541957139968872,3.552371025085449,-0.6938458681106567,-0.9527499675750732,-5.472595691680908,2.9725799560546875,98.70000457763672,-165.3000030517578,-14.700000762939453
1010503,1.23396897315979,2.8447680473327637,-0.8260354399681091,0.13719600439071655,-6.135709762573242,2.545747995376587,79.5,-172.5,-20.100000381469727
1010523,1.6323322057724,3.156400442123413,-0.2883049249649048,-0.20579399168491364,-6.486321926116943,4.009171962738037,74.70000457763672,-165.3000030517578,-23.700000762939453
1010543,2.5702202320098877,4.48966121673584,-0.4049427807331085,-0.2896359860897064,-5.343021869659424,4.596065998077393,81.9000015258789,-160.5,-19.5
1010563,3.2245888710021973,5.321678161621094,-0.7811747193336487,-0.2134159952402115,-4.245453834533691,3.971061944961548,72.30000305175781,-160.5,-21.30000114440918
1010586,2.9255173206329346,4.435230255126953,-1.0276095867156982,0.36585599184036255,-3.620450019836426,1.806414008140564,69.9000015258789,-172.5,-18.30000114440918
1010606,3.6624293327331543,5.8079681396484375,-1.129892110824585,1.1737879514694214,-3.346057891845703,3.163130044937134,69.9000015258789,-165.3000030517578,-24.30000114440918
1010626,4.4160895347595215,7.516862869262695,-1.3757288455963135,1.0747020244598389,-2.5228819847106934,2.75154185295105,55.500003814697266,-177.3000030517578,-15.300000190734863
1010710,3.4082186222076416,8.52413558959961,-3.1007730960845947,1.9436099529266357,-1.1509219408035278,-0.5640279650688171,65.10000610351562,-174.90000915527344,-17.700000762939453
1010730,3.005070209503174,8.616249084472656,-2.778374195098877,1.2728739976882935,-1.5320219993591309,-0.41158798336982727,55.500003814697266,-167.70001220703125,-18.30000114440918
1010750,2.799309015274048,9.147998809814453,-3.2915806770324707,0.5945159792900085,-1.013725996017456,-0.15243999660015106,72.30000305175781,-167.70001220703125,-11.700000762939453
1010792,2.7071950435638428,8.935059547424316,-3.037369966506958,-0.02286599949002266,-0.853663980960846,-1.2652519941329956,67.5,-172.5,-21.900001525878906
1010813,2.2789247035980225,8.589333534240723,-3.051725387573242,0.3201240003108978,-0.5564059615135193,-1.0061039924621582,62.70000076293945,-172.5,-17.100000381469727
1010833,2.149127721786499,8.290261268615723,-2.9614057540893555,0.4420759975910187,-0.2439039945602417,-0.8689079880714417,57.900001525878906,-167.70001220703125,-9.90000057220459
1010853,2.2520081996917725,8.28906536102295,-2.903385877609253,0.914639949798584,0.19054999947547913,-0.4878079891204834,60.30000305175781,-172.5,-18.900001525878906
1010873,2.3740293979644775,9.55294132232666,-2.965592861175537,1.0823240280151367,0.3734779953956604,-0.07621999830007553,60.30000305175781,-167.70001220703125,-17.700000762939453
1010893,2.134772300720215,9.508678436279297,-3.067875385284424,0.4192099869251251,0.6554920077323914,-1.2500079870224,60.30000305175781,-165.3000030517578,-11.700000762939453
1010917,1.8751782178878784,8.80885124206543,-2.936283826828003,-0.06859800219535828,0.6707359552383423,-1.5701320171356201,69.9000015258789,-172.5,-18.900001525878906
1010937,1.5545735359191895,8.725709915161133,-3.0565106868743896,-0.20579399168491364,0.6173819899559021,-1.3643379211425781,57.900001525878906,-155.70001220703125,-16.5
1010959,1.414608120918274,8.88960075378418,-3.2808141708374023,-0.007621999830007553,0.13719600439071655,-1.0747020244598389,77.10000610351562,-158.10000610351562,-18.30000114440918
1010979,1.5180869102478027,9.20123291015625,-3.1187174320220947,-0.1600620001554489,-0.8079319596290588,-0.8612859845161438,62.70000076293945,-165.3000030517578,-14.100000381469727
1010999,1.5079184770584106,8.845337867736816,-2.938676357269287,-0.2896359860897064,-0.6402480006217957,-0.6936019659042358,84.30000305175781,-167.70001220703125,-15.300000190734863
1011019,1.6514726877212524,8.932666778564453,-2.8800582885742188,-0.22103799879550934,-0.5640279650688171,-0.5945159792900085,77.10000610351562,-158.10000610351562,-21.900001525878906
1011039,1.5479940176010132,9.113306045532227,-3.0188276767730713,-0.17530599236488342,-0.1448179930448532,-0.5182960033416748,69.9000015258789,-160.5,-12.300000190734863
1011060,1.4660484790802002,8.78014087677002,-2.9560225009918213,-0.12195199728012085,-0.12195199728012085,-0.5335400104522705,62.70000076293945,-167.70001220703125,-12.90000057220459
1011081,1.5910602807998657,8.911133766174316,-2.7502613067626953,0.09146399796009064,0.16768398880958557,-0.2591480016708374,79.5,-160.5,-18.900001525878906
1011101,1.3063442707061768,8.632399559020996,-2.8034961223602295,-0.39634400606155396,0.8765299916267395,-0.4725639820098877,74.70000457763672,-162.90000915527344,-18.30000114440918
1011121,1.424776554107666,9.228748321533203,-3.1701576709747314,-0.25152599811553955,1.189031958580017,-0.36585599184036255,67.5,-165.3000030517578,-18.30000114440918
1011141,1.2883999347686768,9.02418327331543,-3.282010555267334,-0.35061198472976685,1.189031958580017,-0.5182960033416748,79.5,-165.3000030517578,-17.700000762939453
1011161,1.129892110824585,8.831581115722656,-3.219205379486084,-0.08384199440479279,0.5868939757347107,-0.19054999947547913,74.70000457763672,-162.90000915527344,-17.700000762939453
1011181,1.7035112380981445,8.941638946533203,-2.717961549758911,-0.12195199728012085,0.3277460038661957,0.09908600151538849,65.10000610351562,-160.5,-12.90000057220459
1011202,1.8339062929153442,8.791505813598633,-2.6509697437286377,-0.3125019967556,0.7469559907913208,-0.12195199728012085,79.5,-172.5,-14.700000762939453
1011222,1.6383136510849,8.704176902770996,-2.826225519180298,-0.19817200303077698,0.9603719711303711,-0.06859800219535828,77.10000610351562,-158.10000610351562,-12.90000057220459
1011242,1.555769920349121,8.823206901550293,-3.039762496948242,-0.04573199898004532,0.8155539631843567,-0.3582339882850647,72.30000305175781,-155.70001220703125,-17.100000381469727
1011266,1.8117750883102417,9.08579158782959,-2.7616260051727295,0.19817200303077698,0.510673999786377,-0.457319974899292,81.9000015258789,-172.5,-14.100000381469727
1011286,1.7746901512145996,8.98829460144043,-2.6096978187561035,-0.228659987449646,0.7621999979019165,-0.7469559907913208,79.5,-155.70001220703125,-17.100000381469727
1011306,1.538423776626587,8.830384254455566,-2.5851738452911377,-0.5868939757347107,0.9527499675750732,-0.9375059604644775,69.9000015258789,-155.70001220703125,-17.100000381469727
1011326,1.412813663482666,8.451162338256836,-2.525359630584717,-0.739333987236023,0.9375059604644775,-0.9222619533538818,77.10000610351562,-165.3000030517578,-15.90000057220459
1011346,1.5874714851379395,8.99726676940918,-2.5325372219085693,-0.39634400606155396,0.9603719711303711,-0.25152599811553955,74.70000457763672,-170.10000610351562,-8.700000762939453
1011366,1.4134118556976318,9.174915313720703,-2.5319392681121826,-0.5487840175628662,0.9984819889068604,-0.4878079891204834,81.9000015258789,-167.70001220703125,-14.100000381469727
1011389,1.2291837930679321,8.903956413269043,-2.3824033737182617,-0.6173819899559021,0.739333987236023,-0.571649968624115,57.900001525878906,-160.5,-17.100000381469727
1011409,1.226791262626648,9.557127952575684,-2.4075255393981934,-0.36585599184036255,0.5411620140075684,-0.2743920087814331,77.10000610351562,-160.5,-17.100000381469727
1011429,0.9606176018714905,9.339404106140137,-2.5349299907684326,-0.7926880121231079,0.426831990480423,-0.739333987236023,74.70000457763672,-177.3000030517578,-14.100000381469727
1011449,0.8362038731575012,9.132447242736816,-2.5409114360809326,-0.4725639820098877,-0.114329993724823,-0.49542999267578125,77.10000610351562,-170.10000610351562,-18.900001525878906
1011469,0.5317491292953491,9.405200004577637,-2.6461844444274902,-0.571649968624115,-0.46494197845458984,-0.1295740008354187,81.9000015258789,-179.70001220703125,-14.700000762939453
1011489,0.7393047213554382,9.854405403137207,-2.5474908351898193,-0.8079319596290588,-1.1814099550247192,0.3201240003108978,77.10000610351562,-160.5,-16.5
1011509,0.8451760411262512,10.31198501586914,-2.405730962753296,-1.013725996017456,-1.5929979085922241,0.6326259970664978,81.9000015258789,-158.10000610351562,-15.90000057220459
1011531,0.15671345591545105,9.426135063171387,-2.41410493850708,-1.6082419157028198,-2.332331895828247,0.4420759975910187,86.70000457763672,-162.90000915527344,-11.700000762939453
1011551,0.3606802225112915,8.950013160705566,-1.7722976207733154,-1.3186060190200806,-4.436003684997559,1.9131219387054443,77.10000610351562,-162.90000915527344,-18.900001525878906
1011573,0.2853142023086548,8.53789234161377,-0.6950421333312988,-1.6768399477005005,-6.0213799476623535,2.6677000522613525,81.9000015258789,-160.5,-20.100000381469727
1011593,0.3253897726535797,8.703577995300293,-0.2793327569961548,-1.7911700010299683,-6.204308032989502,3.460387945175171,74.70000457763672,-172.5,-21.30000114440918
1011613,-0.15252645313739777,8.63180160522461,-0.515001118183136,-1.8902559280395508,-6.913153648376465,2.782029867172241,79.5,-167.70001220703125,-21.900001525878906
1011633,-0.22908875346183777,7.809354782104492,-0.62147057056427,-2.088428020477295,-9.428413391113281,2.2484898567199707,57.900001525878906,-167.70001220703125,-20.100000381469727
1011673,0.9510473012924194,5.283995151519775,0.5975448489189148,-2.7210538387298584,-13.376609802246094,1.7759259939193726,62.70000076293945,-160.5,-26.100000381469727
1011693,1.0934053659439087,3.820937395095825,0.5885726809501648,-1.3033620119094849,-13.178437232971191,1.8902559280395508,62.70000076293945,-167.70001220703125,-21.30000114440918
1011716,1.7011185884475708,3.872377634048462,0.5658432245254517,-0.19054999947547913,-12.439104080200195,3.445143938064575,62.70000076293945,-155.70001220703125,-24.30000114440918
1011757,2.179034948348999,2.8627121448516846,-0.1369747370481491,0.4192099869251251,-10.365920066833496,0.8765299916267395,57.900001525878906,-177.3000030517578,-24.30000114440918
1011780,3.3047399520874023,3.1635782718658447,-0.7722025513648987,1.753059983253479,-8.132674217224121,0.8307979702949524,55.500003814697266,-170.10000610351562,-26.100000381469727
1011800,3.609194755554199,3.6863551139831543,-1.5755085945129395,1.9740979671478271,-5.983269691467285,-0.2743920087814331,65.10000610351562,-174.90000915527344,-27.900001525878906
1011820,2.7682056427001953,1.8261305093765259,-2.569622278213501,2.2713558673858643,-2.835383892059326,-3.559473991394043,69.9000015258789,-172.5,-24.30000114440918
1011840,3.353189468383789,1.4947593212127686,-4.491455554962158,5.152472019195557,-1.3186060190200806,-2.4237959384918213,65.10000610351562,-162.90000915527344,-20.100000381469727
1011860,4.365845680236816,5.091392993927002,-4.942455291748047,4.489357948303223,-1.753059983253479,0.510673999786377,69.9000015258789,-167.70001220703125,-25.500001907348633
1011881,4.300049781799316,5.297153949737549,-5.385679244995117,2.4619059562683105,0.17530599236488342,-3.8338658809661865,69.9000015258789,-162.90000915527344,-21.30000114440918
1011901,3.347806215286255,3.6953272819519043,-5.660825252532959,2.644834041595459,1.646351933479309,-6.295772075653076,67.5,-162.90000915527344,-15.90000057220459
1011922,3.189896583557129,4.471118927001953,-6.812250137329102,3.1859958171844482,5.175337791442871,-5.792719841003418,86.70000457763672,-150.90000915527344,-21.30000114440918
1011942,3.968080520629883,7.035357475280762,-8.582155227661133,4.489357948303223,7.134191989898682,-4.085391998291016,89.10000610351562,-158.10000610351562,-23.100000381469727
1011962,3.2150185108184814,7.098760604858398,-8.567201614379883,3.0716660022735596,3.8795979022979736,-7.10370397567749,74.70000457763672,-153.3000030517578,-13.500000953674316
1011984,2.6778860092163086,6.816437244415283,-7.536003112792969,2.339953899383545,3.4222779273986816,-8.330845832824707,98.70000457763672,-165.3000030517578,-17.100000381469727
1012004,2.483489513397217,7.6233320236206055,-8.305214881896973,1.8978779315948486,6.135709762573242,-8.224138259887695,91.5,-146.10000610351562,-17.100000381469727
1012024,1.302755355834961,8.37280559539795,-8.94941520690918,2.4695279598236084,7.8506598472595215,-9.344572067260742,105.9000015258789,-155.70001220703125,-17.700000762939453
1012044,1.9595164060592651,10.009324073791504,-10.017698287963867,3.0716660022735596,7.812549591064453,-8.00309944152832,105.9000015258789,-146.10000610351562,-10.5
1012106,-1.7705031633377075,12.162040710449219,-9.691112518310547,-0.3201240003108978,9.32170581817627,-5.198204040527344,122.70000457763672,-138.90000915527344,-7.500000476837158
1012126,-2.3919737339019775,12.370194435119629,-7.923599720001221,-4.46649169921875,8.094563484191895,-7.812549591064453,125.10000610351562,-146.10000610351562,-8.100000381469727
1012170,-1.8039991855621338,16.70673179626465,-9.476977348327637,-3.3155698776245117,10.015307426452637,0,125.10000610351562,-134.10000610351562,-11.100000381469727
1012190,-4.323975563049316,16.7037410736084,-7.553349494934082,-3.620450019836426,9.931466102600098,-6.059489727020264,141.90000915527344,-136.5,-6.300000190734863
1012214,-5.066869258880615,14.39610481262207,-9.93036937713623,0.967993974685669,12.78209400177002,-6.318637847900391,144.3000030517578,-136.5,-3.3000001907348633
1012234,-3.3789095878601074,16.459697723388672,-8.099453926086426,-2.3170878887176514,3.353679895401001,-0.6554920077323914,144.3000030517578,-126.9000015258789,-7.500000476837158
1012276,-5.623142242431641,15.16711139678955,-9.686925888061523,1.3186060190200806,17.56108856201172,-7.423827648162842,132.3000030517578,-138.90000915527344,-11.100000381469727
1012296,-4.818041801452637,15.864545822143555,-8.087491035461426,-2.2713558673858643,3.094532012939453,0.739333987236023,153.90000915527344,-134.10000610351562,-5.100000381469727
1012316,-3.46683669090271,19.599349975585938,-2.890825033187866,-6.105221748352051,2.03507399559021,4.093013763427734,149.10000610351562,-136.5,-3.9000000953674316
1012336,-4.32038688659668,17.29709815979004,-5.05729866027832,-5.670767784118652,11.029033660888672,-2.6067240238189697,144.3000030517578,-124.50000762939453,-11.700000762939453
1012360,-4.178627014160156,14.05157470703125,-5.03038215637207,-5.541193962097168,6.265284061431885,-1.3109840154647827,141.90000915527344,-124.50000762939453,-5.700000286102295
1012381,-4.597925186157227,14.1383056640625,-2.9015915393829346,-4.718018054962158,4.519845962524414,1.577754020690918,129.90000915527344,-141.3000030517578,-16.5
1012401,-3.774282217025757,14.909311294555664,-4.4729132652282715,-4.237832069396973,4.00154972076416,3.292703866958618,132.3000030517578,-146.10000610351562,-5.700000286102295
1012422,-3.475210666656494,14.226232528686523,-3.923219680786133,-3.567095994949341,1.9207439422607422,2.903981924057007,129.90000915527344,-131.70001220703125,-11.700000762939453
1012443,-3.0361738204956055,12.081890106201172,-2.6061089038848877,-2.75154185295105,-0.5945159792900085,2.5152599811553955,134.70001220703125,-143.70001220703125,-4.5
1012464,-3.564333915710449,11.667974472045898,-2.1987736225128174,-2.957335948944092,0.1600620001554489,5.381131649017334,137.10000610351562,-143.70001220703125,-8.700000762939453
1012484,-2.295672655105591,13.133424758911133,-3.0888102054595947,-4.64179801940918,1.7606819868087769,7.6982197761535645,125.10000610351562,-148.5,-19.5
1012504,-2.500835657119751,11.460419654846191,-2.7371022701263428,-5.045763969421387,0.426831990480423,6.166197776794434,115.50000762939453,-150.90000915527344,-13.500000953674316
1012568,-0.8224465847015381,6.3116044998168945,-0.4486072361469269,-4.275941848754883,-5.480217933654785,0.914639949798584,96.30000305175781,-158.10000610351562,-14.100000381469727
1012648,0.5772079825401306,4.428650379180908,-0.4079335033893585,-2.492393970489502,-5.4573516845703125,2.652456045150757,77.10000610351562,-172.5,-18.30000114440918
1012669,0.6424055695533752,3.6474759578704834,-0.20815375447273254,-2.294221878051758,-5.693634033203125,1.600619912147522,89.10000610351562,-172.5,-16.5
1012711,0.9929173588752747,2.854936361312866,-0.4210926592350006,-0.3048799932003021,-5.960403919219971,0.7774440050125122,93.9000015258789,-167.70001220703125,-15.300000190734863
1012731,1.003085732460022,2.190399646759033,-0.4647570848464966,0.8231759667396545,-6.654006004333496,-0.1448179930448532,79.5,-158.10000610351562,-15.300000190734863
1012771,1.9613107442855835,2.981144666671753,0.020336860790848732,1.7378159761428833,-6.821690082550049,1.7759259939193726,84.30000305175781,-155.70001220703125,-18.30000114440918
1012791,2.3680479526519775,3.1378579139709473,-0.1118527352809906,1.699705958366394,-6.089977741241455,2.2103798389434814,84.30000305175781,-158.10000610351562,-24.30000114440918
1012811,2.6306328773498535,3.70190691947937,-0.4384388029575348,1.753059983253479,-4.923811912536621,2.843005895614624,74.70000457763672,-165.3000030517578,-20.700000762939453
1012832,3.276029109954834,5.026793479919434,-0.9749730229377747,1.9131219387054443,-4.230209827423096,3.917707920074463,77.10000610351562,-174.90000915527344,-14.700000762939453
1012853,3.8221335411071777,6.71953821182251,-1.7914382219314575,1.0061039924621582,-2.378063917160034,4.131124019622803,69.9000015258789,-179.70001220703125,-16.5
1012897,4.725329399108887,8.62282943725586,-2.2795228958129883,1.189031958580017,-2.1646480560302734,4.207344055175781,62.70000076293945,-165.3000030517578,-17.700000762939453
1012917,4.304834842681885,8.97932243347168,-2.503826379776001,0.5259180068969727,-1.0747020244598389,1.9588539600372314,62.70000076293945,-179.70001220703125,-19.5
1012937,4.26954460144043,8.397927284240723,-2.5887627601623535,0.510673999786377,-0.9603719711303711,-0.1448179930448532,65.10000610351562,-158.10000610351562,-17.100000381469727
1012957,4.126588344573975,8.442190170288086,-3.055912494659424,1.0975680351257324,0.007621999830007553,-0.7012239694595337,65.10000610351562,-167.70001220703125,-20.100000381469727
1012977,3.7599267959594727,8.85789966583252,-3.67499041557312,1.5091559886932373,0.4420759975910187,-1.0365920066833496,69.9000015258789,-170.10000610351562,-14.100000381469727
1012997,3.478201389312744,8.87464714050293,-3.6163723468780518,2.0579400062561035,-0.36585599184036255,-1.3643379211425781,74.70000457763672,-165.3000030517578,-22.5
1013040,2.5122005939483643,8.580361366271973,-3.663625717163086,1.471045970916748,0.8155539631843567,-2.0960500240325928,57.900001525878906,-167.70001220703125,-18.900001525878906
1013134,1.2830166816711426,8.885414123535156,-3.558950662612915,-0.3734779953956604,0.13719600439071655,-1.1356779336929321,60.30000305175781,-162.90000915527344,-9.300000190734863
1013175,1.4361412525177002,8.507986068725586,-3.126493215560913,-0.7240899801254272,0.49542999267578125,-1.2118979692459106,86.70000457763672,-170.10000610351562,-17.700000762939453
1013195,1.3912805318832397,8.513368606567383,-3.0128462314605713,-0.48018598556518555,0.9070180058479309,-0.7774440050125122,72.30000305175781,-155.70001220703125,-26.100000381469727
1013217,1.438533902168274,8.725709915161133,-3.0900065898895264,-0.23628199100494385,1.189031958580017,-0.5030519962310791,79.5,-170.10000610351562,-13.500000953674316
1013257,1.2172209024429321,9.085193634033203,-3.135465383529663,0.22103799879550934,0.7621999979019165,-1.2042759656906128,77.10000610351562,-160.5,-15.90000057220459
1013277,1.1681731939315796,8.634193420410156,-3.055912494659424,0.06859800219535828,0.48018598556518555,-0.7088459730148315,72.30000305175781,-174.90000915527344,-17.700000762939453
1013297,1.4062341451644897,8.874049186706543,-3.0535199642181396,-0.20579399168491364,0.685979962348938,-0.08384199440479279,81.9000015258789,-165.3000030517578,-22.5
1013320,1.1562104225158691,8.784327507019043,-3.1486246585845947,-0.5792719721794128,0.6326259970664978,0.04573199898004532,77.10000610351562,-167.70001220703125,-14.700000762939453
1013380,1.6987260580062866,8.719130516052246,-2.865104913711548,-0.6097599864006042,0.16768398880958557,-0.6021379828453064,84.30000305175781,-158.10000610351562,-18.900001525878906
1013492,1.9672921895980835,8.86866569519043,-2.241241693496704,-0.5259180068969727,2.0503180027008057,-1.0518360137939453,81.9000015258789,-158.10000610351562,-20.100000381469727
1013514,1.533638596534729,8.409292221069336,-2.283111810684204,-0.35061198472976685,2.2103798389434814,-1.653973937034607,81.9000015258789,-150.90000915527344,-12.90000057220459
1013554,1.4756187200546265,9.08280086517334,-2.342327833175659,0.6478700041770935,2.1189160346984863,-0.7774440050125122,86.70000457763672,-165.3000030517578,-17.700000762939453
1013576,1.1897063255310059,9.200634956359863,-2.6802785396575928,0.9603719711303711,2.225623846054077,-1.1051899194717407,77.10000610351562,-155.70001220703125,-11.700000762939453
1013596,0.921140193939209,8.936256408691406,-2.8776657581329346,0.9375059604644775,1.806414008140564,-1.189031958580017,84.30000305175781,-153.3000030517578,-9.300000190734863
1013616,1.0204318761825562,9.037342071533203,-3.046940326690674,0.9451279640197754,1.5472660064697266,-0.6402480006217957,84.30000305175781,-170.10000610351562,-17.100000381469727
1013638,0.8661110401153564,9.246692657470703,-3.3603672981262207,0.8689079880714417,1.3186060190200806,-0.3125019967556,81.9000015258789,-165.3000030517578,-13.500000953674316
1013658,0.5622543692588806,9.352563858032227,-3.502127170562744,0.5945159792900085,0.41158798336982727,-0.35061198472976685,79.5,-172.5,-15.300000190734863
1013678,0.6830793023109436,10.050596237182617,-3.248514413833618,0.08384199440479279,-0.7164679765701294,0.114329993724823,72.30000305175781,-165.3000030517578,-16.5
1013698,0.7871561646461487,10.469894409179688,-3.1928870677948,-0.3734779953956604,-1.0899460315704346,0.19817200303077698,69.9000015258789,-153.3000030517578,-12.300000190734863
1013720,0.35410064458847046,10.713338851928711,-2.7012135982513428,-1.4024479389190674,-1.8673899173736572,-0.22103799879550934,84.30000305175781,-158.10000610351562,-17.100000381469727
1013740,-0.26437920331954956,9.439892768859863,-2.44700288772583,-2.195136070251465,-2.6295900344848633,-0.46494197845458984,84.30000305175781,-155.70001220703125,-14.100000381469727
1013760,-0.6866681575775146,8.711952209472656,-2.057013750076294,-2.1036720275878906,-4.359784126281738,0.7240899801254272,98.70000457763672,-162.90000915527344,-14.700000762939453
1013780,-0.1339840292930603,8.776552200317383,-1.5940510034561157,-1.7301939725875854,-6.3719916343688965,2.39330792427063,81.9000015258789,-165.3000030517578,-21.30000114440918
1013800,0.3367545008659363,8.658119201660156,-1.24593186378479,-1.4634239673614502,-7.987855911254883,2.896359920501709,79.5,-167.70001220703125,-19.5
1013822,0.3768300712108612,7.877542972564697,-0.8924292922019958,-1.3414719104766846,-9.900978088378906,2.4695279598236084,79.5,-165.3000030517578,-21.30000114440918
1013842,0.8978126049041748,7.017413139343262,-0.15192832052707672,-1.4024479389190674,-11.654037475585938,2.7134318351745605,84.30000305175781,-167.70001220703125,-17.700000762939453
1013862,1.117929220199585,6.002364635467529,0.6890606880187988,-1.8521459102630615,-12.256175994873047,2.14178204536438,84.30000305175781,-160.5,-12.300000190734863
1013882,0.9893285036087036,5.165562629699707,0.4988512396812439,-1.1128119230270386,-11.402511596679688,2.126538038253784,72.30000305175781,-165.3000030517578,-21.900001525878906
1013902,0.9486547708511353,4.702600002288818,0.515599250793457,-0.20579399168491364,-11.539708137512207,2.3551979064941406,81.9000015258789,-172.5,-12.300000190734863
1013923,1.1382660865783691,4.442408084869385,0.6005355715751648,-0.10670799762010574,-11.92842960357666,2.0579400062561035,74.70000457763672,-174.90000915527344,-14.100000381469727
1013943,0.9014014601707458,3.526052713394165,0.8846534490585327,-0.28201398253440857,-12.385749816894531,0.6021379828453064,93.9000015258789,-160.5,-21.30000114440918
1013963,0.9648045897483826,2.981144666671753,0.7548564076423645,-0.3887220025062561,-10.846105575561523,0.7545779943466187,74.70000457763672,-158.10000610351562,-20.700000762939453
1013983,1.4989463090896606,3.9124531745910645,-0.008374001830816269,-0.228659987449646,-9.329327583312988,1.2271419763565063,72.30000305175781,-160.5,-25.500001907348633
1014023,0.8499611616134644,2.447601079940796,-1.7788771390914917,-0.4878079891204834,-6.9283976554870605,-1.5320219993591309,81.9000015258789,-179.70001220703125,-18.900001525878906
1014045,0.8415871858596802,2.5618462562561035,-2.489470958709717,-0.3048799932003021,-5.800342082977295,-1.7606819868087769,89.10000610351562,-165.3000030517578,-24.900001525878906
1014065,1.434944987297058,3.4596588611602783,-4.3353400230407715,3.1859958171844482,-3.5975840091705322,-1.4558019638061523,79.5,-162.90000915527344,-20.700000762939453
1014085,1.939179539680481,5.599814414978027,-5.5220561027526855,4.977165699005127,-4.984787940979004,-0.3048799932003021,89.10000610351562,-167.70001220703125,-18.900001525878906
1014108,1.1717621088027954,5.885128498077393,-5.611179351806641,2.4542839527130127,-3.6356940269470215,-2.637212038040161,72.30000305175781,-153.3000030517578,-28.500001907348633
1014188,1.9008983373641968,9.363927841186523,-7.768082618713379,1.2652519941329956,4.054903984069824,-4.489357948303223,96.30000305175781,-150.90000915527344,-17.700000762939453
1014214,2.0019845962524414,8.698793411254883,-8.186184883117676,0.8917739987373352,5.411619663238525,-6.493943691253662,86.70000457763672,-162.90000915527344,-15.90000057220459
1014234,1.105966329574585,7.120294094085693,-7.888907432556152,1.4558019638061523,6.623517990112305,-7.637243747711182,110.70000457763672,-150.90000915527344,-17.100000381469727
1014276,2.0007882118225098,13.00781536102295,-10.332322120666504,0.25152599811553955,10.472627639770508,-5.14484977722168,125.10000610351562,-146.10000610351562,-19.5
1014316,-0.15073202550411224,9.935154914855957,-8.635390281677246,-0.09908600151538849,10.731775283813477,-5.907049655914307,115.50000762939453,-141.3000030517578,-7.500000476837158
1014455,-2.933293104171753,14.040209770202637,-8.578566551208496,-0.2134159952402115,9.74091625213623,-7.980233669281006,141.90000915527344,-129.3000030517578,-9.90000057220459
1014475,-4.021913528442383,15.426705360412598,-9.944725036621094,3.208861827850342,14.20740795135498,-1.2195199728012085,129.90000915527344,-146.10000610351562,-15.300000190734863
1014495,-1.4887778759002686,19.599349975585938,-10.18637466430664,-1.6311079263687134,8.612859725952148,2.2180018424987793,117.9000015258789,-138.90000915527344,-9.300000190734863
1014560,-4.407715320587158,16.1713924407959,-9.616942405700684,-3.307947874069214,11.539708137512207,-0.9451279640197754,129.90000915527344,-134.10000610351562,-3.9000000953674316
1014600,-4.726525783538818,13.424720764160156,-4.206141471862793,-3.666181802749634,5.381131649017334,-1.7911700010299683,125.10000610351562,-146.10000610351562,-0.9000000357627869
1014630,-4.740880966186523,13.398402214050293,-4.609289646148682,-4.009171962738037,4.900945663452148,1.4329359531402588,117.9000015258789,-138.90000915527344,-5.700000286102295
1014651,-3.6349148750305176,13.35234546661377,-3.383096694946289,-4.131124019622803,2.3704419136047363,2.1036720275878906,141.90000915527344,-136.5,-9.90000057220459
1014691,-4.4818854331970215,11.645245552062988,-3.3364415168762207,-5.167716026306152,1.3033620119094849,3.0106899738311768,132.3000030517578,-146.10000610351562,-9.90000057220459
1014711,-3.749160051345825,10.488436698913574,-2.348907470703125,-5.350644111633301,-2.0503180027008057,2.538125991821289,110.70000457763672,-148.5,-3.9000000953674316
1014731,-3.0068647861480713,8.324356079101562,-1.2590909004211426,-5.39637565612793,-3.7347798347473145,2.949713945388794,113.10000610351562,-148.5,-14.700000762939453
1014751,-2.5624444484710693,7.464226245880127,-0.8882423043251038,-5.762231826782227,-2.530503988265991,7.347607612609863,120.30000305175781,-150.90000915527344,-17.700000762939453
1014775,-1.3535975217819214,7.370317459106445,-0.9929173588752747,-5.701255798339844,-3.3231918811798096,8.292736053466797,96.30000305175781,-138.90000915527344,-15.300000190734863
1014795,-0.709995687007904,6.474897861480713,-0.5299546718597412,-5.365887641906738,-4.710395812988281,6.913153648376465,103.50000762939453,-172.5,-14.700000762939453
1014815,-0.512010395526886,5.337827682495117,-0.3869985044002533,-4.984787940979004,-5.1067399978637695,5.114361763000488,86.70000457763672,-160.5,-18.900001525878906
1014835,-0.09151587635278702,4.820434093475342,-0.46236452460289,-3.9329519271850586,-6.1204657554626465,4.67990779876709,81.9000015258789,-158.10000610351562,-16.5
1014855,0.15491902828216553,4.392762184143066,-0.14056359231472015,-3.650938034057617,-7.370473861694336,3.3841679096221924,93.9000015258789,-167.70001220703125,-20.100000381469727
1014875,0.35529693961143494,3.3334507942199707,-0.040673721581697464,-3.102154016494751,-8.201272010803223,1.3186060190200806,77.10000610351562,-160.5,-13.500000953674316
1014935,2.029499053955078,2.7502613067626953,0.14654502272605896,-0.6631140112876892,-7.400961875915527,4.32167387008667,84.30000305175781,-174.90000915527344,-22.5
1014957,2.47990083694458,2.551079750061035,0.3074454963207245,-0.46494197845458984,-6.341504096984863,3.5366079807281494,89.10000610351562,-165.3000030517578,-20.100000381469727
1014977,2.7825610637664795,2.515191078186035,0.06220686808228493,0.4039659798145294,-4.969543933868408,3.361301898956299,72.30000305175781,-167.70001220703125,-22.5
1014997,3.151017189025879,3.1193156242370605,-0.20277047157287598,1.0747020244598389,-3.5975840091705322,3.506119966506958,77.10000610351562,-167.70001220703125,-21.30000114440918
1015020,3.5511748790740967,3.8400778770446777,-0.7135845422744751,1.7911700010299683,-2.637212038040161,3.5975840091705322,74.70000457763672,-160.5,-21.30000114440918
1015040,4.678076267242432,6.053804874420166,-0.909177303314209,2.233245849609375,-1.9512319564819336,5.14484977722168,72.30000305175781,-174.90000915527344,-27.30000114440918
1015063,5.4981303215026855,7.886515140533447,-1.1855193376541138,0.6554920077323914,-0.36585599184036255,2.0503180027008057,72.30000305175781,-165.3000030517578,-20.700000762939453
1015083,4.517175674438477,7.504899978637695,-1.8135695457458496,0.7621999979019165,1.471045970916748,0.6097599864006042,43.5,-158.10000610351562,-18.30000114440918
1015104,3.8556296825408936,8.379982948303223,-2.9907147884368896,1.1814099550247192,2.233245849609375,-0.030487999320030212,65.10000610351562,-167.70001220703125,-23.100000381469727
1015167,2.390777349472046,8.42663860321045,-4.118214130401611,1.524399995803833,1.3948259353637695,-1.7835479974746704,67.5,-165.3000030517578,-24.30000114440918
1015187,2.6001274585723877,9.122876167297363,-3.7389917373657227,1.6082419157028198,-0.8689079880714417,-0.7698220014572144,69.9000015258789,-165.3000030517578,-21.30000114440918
1015227,2.2843079566955566,8.632399559020996,-3.5242583751678467,0.9375059604644775,-0.44969800114631653,-1.7454379796981812,60.30000305175781,-160.5,-20.100000381469727
1015247,2.345318555831909,8.272316932678223,-3.3137121200561523,0.6707359552383423,-0.3048799932003021,-1.4329359531402588,65.10000610351562,-162.90000915527344,-17.100000381469727
1015267,2.649773359298706,8.519948959350586,-3.2646644115448,0.685979962348938,0.26677000522613525,-1.067080020904541,77.10000610351562,-153.3000030517578,-18.30000114440918
1015290,2.929704189300537,8.55105209350586,-3.040958881378174,0.7088459730148315,1.0518360137939453,-1.4558019638061523,67.5,-165.3000030517578,-20.100000381469727
1015310,2.7412891387939453,8.453554153442383,-2.819645881652832,0.6402480006217957,1.5091559886932373,-1.4329359531402588,67.5,-158.10000610351562,-16.5
1015330,2.48289155960083,8.50020980834961,-3.151017189025879,0.7698220014572144,1.7378159761428833,-1.3795819282531738,79.5,-160.5,-24.30000114440918
1015352,2.3770201206207275,8.789710998535156,-3.1276895999908447,1.2271419763565063,1.2118979692459106,-1.067080020904541,81.9000015258789,-155.70001220703125,-12.300000190734863
1015372,2.1622867584228516,10.093064308166504,-3.2066445350646973,1.471045970916748,0.49542999267578125,-0.5411620140075684,67.5,-167.70001220703125,-11.100000381469727
1015392,1.621565580368042,9.49312686920166,-3.0068647861480713,0.3125019967556,0.2972579896450043,-1.6768399477005005,67.5,-162.90000915527344,-16.5
1015412,1.818354606628418,10.021885871887207,-3.004472255706787,0.46494197845458984,-0.26677000522613525,-0.7850660085678101,67.5,-165.3000030517578,-15.90000057220459
1015434,0.8918311595916748,9.07382869720459,-3.121109962463379,-0.426831990480423,0.33536797761917114,-1.7225719690322876,72.30000305175781,-172.5,-12.90000057220459
1015454,0.47612181305885315,8.457143783569336,-3.1910927295684814,-0.06859800219535828,-0.46494197845458984,-0.9527499675750732,77.10000610351562,-160.5,-18.30000114440918
1015474,0.08732887357473373,7.934366703033447,-2.7496633529663086,-0.3734779953956604,-1.2042759656906128,-0.6021379828453064,74.70000457763672,-158.10000610351562,-8.700000762939453
1015516,0.45399051904678345,8.792701721191406,-2.531341075897217,-0.2134159952402115,-1.5701320171356201,-0.1600620001554489,81.9000015258789,-158.10000610351562,-11.700000762939453
1015536,0.4073353707790375,9.5032958984375,-2.8782639503479004,-0.5259180068969727,-0.7698220014572144,-1.0747020244598389,77.10000610351562,-155.70001220703125,-8.100000381469727
1015556,-0.059814296662807465,8.87763786315918,-3.0630900859832764,-0.23628199100494385,-0.9603719711303711,-2.538125991821289,84.30000305175781,-158.10000610351562,-12.90000057220459
1015579,-0.5365342497825623,7.353569507598877,-2.9757611751556396,0.49542999267578125,-1.0747020244598389,-2.6753220558166504,89.10000610351562,-174.90000915527344,-20.100000381469727
1015599,0.3505117893218994,8.207717895507812,-2.9309005737304688,0.4420759975910187,-0.6250039935112,-1.4100699424743652,98.70000457763672,-160.5,-20.700000762939453
1015619,1.643696904182434,10.452548027038574,-2.980546474456787,0.09146399796009064,-0.3277460038661957,-0.457319974899292,84.30000305175781,-165.3000030517578,-12.90000057220459
1015642,1.1693694591522217,8.676063537597656,-3.1043620109558105,-1.1051899194717407,1.1737879514694214,-2.942091941833496,84.30000305175781,-162.90000915527344,-13.500000953674316
1015662,1.8949168920516968,8.30581283569336,-2.7592334747314453,-0.6478700041770935,0.685979962348938,-1.1128119230270386,89.10000610351562,-162.90000915527344,-8.100000381469727
1015682,2.8597216606140137,8.87464714050293,-2.42606782913208,-0.5868939757347107,1.2500079870224,0.1295740008354187,93.9000015258789,-165.3000030517578,-9.90000057220459
1015706,3.031388521194458,9.787413597106934,-2.483489513397217,-0.4878079891204834,2.5152599811553955,0.38109999895095825,91.5,-165.3000030517578,-13.500000953674316
1015726,3.302347421646118,10.504587173461914,-2.864506721496582,-0.7240899801254272,2.3551979064941406,-0.8917739987373352,93.9000015258789,-172.5,-20.100000381469727
1015746,1.6975297927856445,7.707670211791992,-3.2359535694122314,0.4039659798145294,2.652456045150757,-3.3765459060668945,84.30000305175781,-153.3000030517578,-14.100000381469727
1015768,1.7902419567108154,8.939845085144043,-4.044044494628906,1.2652519941329956,0.6631140112876892,0.33536797761917114,93.9000015258789,-155.70001220703125,-17.700000762939453
1015788,1.615584135055542,9.856200218200684,-4.4998297691345215,1.0289700031280518,-0.06859800219535828,-0.3734779953956604,101.10000610351562,-158.10000610351562,-17.100000381469727
1015831,1.633528470993042,9.438695907592773,-3.3723301887512207,0.5640279650688171,-1.9588539600372314,0.02286599949002266,86.70000457763672,-153.3000030517578,-13.500000953674316
1015852,0.9809544682502747,8.61385726928711,-2.789738893508911,-0.6326259970664978,-0.9298839569091797,-0.9756159782409668,86.70000457763672,-170.10000610351562,-10.5
1015873,0.25959405303001404,8.541481971740723,-2.8926193714141846,-0.6707359552383423,0.6554920077323914,-0.9298839569091797,81.9000015258789,-155.70001220703125,-6.900000095367432
1015896,-0.34512850642204285,8.784327507019043,-3.344217300415039,-0.914639949798584,1.3872039318084717,-1.067080020904541,98.70000457763672,-155.70001220703125,-12.90000057220459
1015916,-0.4533923864364624,8.35665512084961,-3.338235855102539,-0.8993960022926331,1.2195199728012085,-0.7926880121231079,96.30000305175781,-155.70001220703125,-6.900000095367432
1015936,0.18362988531589508,9.02717399597168,-3.040958881378174,-0.3125019967556,0.5945159792900085,0.8231759667396545,89.10000610351562,-158.10000610351562,-12.90000057220459
1015956,1.0156468152999878,9.652233123779297,-2.6126885414123535,-0.41158798336982727,0.8460419774055481,0.49542999267578125,98.70000457763672,-165.3000030517578,-15.90000057220459
1016020,0.39776507019996643,9.117493629455566,-3.1785316467285156,0.25152599811553955,0.08384199440479279,0.20579399168491364,93.9000015258789,-155.70001220703125,-15.90000057220459
1016072,-0.19080761075019836,10.536288261413574,-3.3675448894500732,-0.7621999979019165,-0.4878079891204834,0.8993960022926331,96.30000305175781,-162.90000915527344,-15.300000190734863
1016093,-0.3307730555534363,9.84363842010498,-2.899797201156616,-0.967993974685669,-1.3186060190200806,1.2347639799118042,98.70000457763672,-165.3000030517578,-14.700000762939453
1016134,-0.3373526334762573,9.631896018981934,-2.179034948348999,-1.8978779315948486,-2.39330792427063,2.736297845840454,93.9000015258789,-158.10000610351562,-16.5
1016154,-0.6382185220718384,8.616249084472656,-2.089911460876465,-1.829279899597168,-4.740883827209473,2.225623846054077,89.10000610351562,-160.5,-13.500000953674316
1016174,-0.43784064054489136,8.58993148803711,-1.8787670135498047,-1.5929979085922241,-5.914671897888184,2.6067240238189697,86.70000457763672,-165.3000030517578,-19.5
1016197,0.4181019365787506,7.6652021408081055,-1.0838350057601929,-2.2484898567199707,-9.176887512207031,2.5228819847106934,77.10000610351562,-167.70001220703125,-18.30000114440918
1016217,0.7225567102432251,6.190779685974121,-0.4252796471118927,-2.0503180027008057,-10.632689476013184,2.1189160346984863,79.5,-158.10000610351562,-19.5
1016257,1.7178666591644287,4.960997581481934,0.05622543767094612,-2.4771499633789062,-10.373541831970215,2.7134318351745605,89.10000610351562,-150.90000915527344,-14.100000381469727
1016277,1.9595164060592651,4.107447624206543,0.1411617398262024,-1.9512319564819336,-10.609824180603027,2.187514066696167,74.70000457763672,-160.5,-17.100000381469727
1016299,2.411712408065796,3.904677391052246,0.30325847864151,-1.3643379211425781,-10.25158977508545,2.2180018424987793,77.10000610351562,-158.10000610351562,-21.30000114440918
1016319,2.5439021587371826,3.869386911392212,0.04665515199303627,-0.7774440050125122,-9.481767654418945,1.4405579566955566,86.70000457763672,-158.10000610351562,-23.100000381469727
1016360,2.3178040981292725,2.2974672317504883,-0.28890305757522583,0.44969800114631653,-8.17840576171875,-1.9664759635925293,74.70000457763672,-162.90000915527344,-27.900001525878906
1016382,2.8603196144104004,2.5887627601623535,-0.18721875548362732,0.5792719721794128,-6.768335819244385,-0.6021379828453064,89.10000610351562,-160.5,-19.5
1016402,2.828019857406616,3.1019694805145264,-1.448702335357666,0.2896359860897064,-3.5747179985046387,-1.1661659479141235,74.70000457763672,-170.10000610351562,-24.30000114440918
1016422,2.2364566326141357,2.7113821506500244,-2.810673713684082,2.1112940311431885,-1.14329993724823,-2.294221878051758,86.70000457763672,-170.10000610351562,-20.700000762939453
1016442,2.595940589904785,3.818544626235962,-3.9836320877075195,3.1707520484924316,-0.6326259970664978,-1.2576299905776978,84.30000305175781,-167.70001220703125,-18.900001525878906
1016462,2.9255173206329346,5.727817058563232,-4.625439643859863,2.195136070251465,0.030487999320030212,-1.3262280225753784,84.30000305175781,-170.10000610351562,-23.100000381469727
1016482,2.316009521484375,5.493943214416504,-5.565122127532959,1.7301939725875854,1.8673899173736572,-4.512223720550537,96.30000305175781,-172.5,-21.30000114440918
1016502,2.042060136795044,5.505906105041504,-6.945037841796875,3.5366079807281494,3.0869100093841553,-5.259180068969727,93.9000015258789,-158.10000610351562,-24.30000114440918
1016522,2.1945865154266357,6.346296787261963,-7.036553859710693,2.3628199100494385,0.36585599184036255,-4.93143367767334,108.30000305175781,-148.5,-14.100000381469727
1016542,2.101276159286499,7.563518047332764,-6.84694242477417,2.1494040489196777,2.492393970489502,-4.961921691894531,98.70000457763672,-158.10000610351562,-25.500001907348633
1016564,1.5150961875915527,8.890796661376953,-8.102444648742676,2.7210538387298584,6.166197776794434,-5.541193962097168,101.10000610351562,-150.90000915527344,-18.900001525878906
1016584,0.47313109040260315,9.526622772216797,-8.777748107910156,2.080806016921997,6.3719916343688965,-6.654006004333496,122.70000457763672,-160.5,-19.5
1016604,0.19200389087200165,9.652233123779297,-8.285476684570312,0.9451279640197754,5.388753890991211,-7.919257640838623,108.30000305175781,-148.5,-15.90000057220459
1016624,-0.8302224278450012,9.418957710266113,-7.7668867111206055,1.2347639799118042,7.492425918579102,-9.474145889282227,113.10000610351562,-148.5,-15.300000190734863
1016667,-1.7872512340545654,12.310978889465332,-11.082990646362305,2.545747995376587,11.029033660888672,-5.579303741455078,139.5,-134.10000610351562,-14.700000762939453
1016687,-1.1741546392440796,12.672257423400879,-9.02119255065918,-1.3643379211425781,1.471045970916748,-5.983269691467285,134.70001220703125,-134.10000610351562,-9.300000190734863
1016707,-2.8447680473327637,15.369881629943848,-6.949823379516602,-0.7164679765701294,5.480217933654785,-3.567095994949341,127.50000762939453,-138.90000915527344,-11.700000762939453
1016730,-3.990809917449951,15.529585838317871,-9.103137969970703,-0.48018598556518555,12.271419525146484,-5.1067399978637695,141.90000915527344,-134.10000610351562,-22.5
1016750,-2.623455047607422,15.085165977478027,-6.2583699226379395,-3.445143938064575,6.211929798126221,-3.902463912963867,151.5,-134.10000610351562,-8.700000762939453
1016770,-4.169056415557861,17.358108520507812,-7.489946365356445,-0.8307979702949524,15.3507080078125,-1.9131219387054443,141.90000915527344,-138.90000915527344,-13.500000953674316
1016790,-4.172645568847656,18.6297607421875,-8.98709774017334,-0.3277460038661957,17.835479736328125,-1.013725996017456,149.10000610351562,-141.3000030517578,-8.700000762939453
1016810,-4.009950637817383,17.76365089416504,-9.74135684967041,-1.5320219993591309,11.798855781555176,-4.329296112060547,144.3000030517578,-131.70001220703125,-6.900000095367432
1016830,-3.3998446464538574,15.953071594238281,-6.645368576049805,-2.385685920715332,5.838451862335205,-3.9329519271850586,153.90000915527344,-136.5,-2.1000001430511475
1016854,-3.43393874168396,18.185340881347656,-7.825504302978516,-0.9527499675750732,14.771435737609863,0.6783579587936401,132.3000030517578,-126.9000015258789,0.30000001192092896
1016874,-3.8496482372283936,18.32710075378418,-7.699894428253174,-3.003067970275879,10.724153518676758,-1.2195199728012085,146.70001220703125,-126.9000015258789,-6.900000095367432
1016894,-4.232459545135498,14.689194679260254,-6.039449691772461,-3.307947874069214,8.650969505310059,-2.4009299278259277,134.70001220703125,-126.9000015258789,-7.500000476837158
1016914,-3.9746601581573486,15.113876342773438,-5.788827896118164,-3.75002384185791,9.352193832397461,1.9740979671478271,122.70000457763672,-126.9000015258789,-5.100000381469727
1016974,-3.2688512802124023,11.931756019592285,-2.7831592559814453,-3.0335559844970703,4.1921000480651855,0.9451279640197754,115.50000762939453,-143.70001220703125,-7.500000476837158
1017152,-0.2470330446958542,5.784640789031982,-0.7650248408317566,-2.03507399559021,-5.785098075866699,4.207344055175781,113.10000610351562,-155.70001220703125,-23.700000762939453
1017192,0.2548089027404785,4.356873512268066,-1.2232023477554321,-0.48018598556518555,-7.721086025238037,3.5747179985046387,98.70000457763672,-160.5,-15.300000190734863
1017214,1.0198338031768799,4.722338676452637,-0.5532822608947754,-1.9969639778137207,-7.96498966217041,5.228692054748535,96.30000305175781,-155.70001220703125,-15.300000190734863
1017235,1.311727523803711,4.880248546600342,-0.6615461111068726,-2.987823963165283,-6.631139755249023,4.862835884094238,96.30000305175781,-172.5,-17.700000762939453
1017275,0.6902570128440857,3.3376376628875732,-1.8518506288528442,0.5335400104522705,-8.582371711730957,4.268320083618164,86.70000457763672,-158.10000610351562,-20.700000762939453
1017295,1.3063442707061768,4.273731708526611,-1.23695969581604,0.3201240003108978,-9.596097946166992,4.984787940979004,84.30000305175781,-177.3000030517578,-23.100000381469727
1017335,2.244232416152954,3.451284885406494,-0.1369747370481491,-0.9070180058479309,-6.897909641265869,1.5472660064697266,93.9000015258789,-179.70001220703125,-13.500000953674316
1017355,1.9846383333206177,2.2735414505004883,-0.9642064571380615,1.3567159175872803,-4.413137912750244,1.0289700031280518,86.70000457763672,-174.90000915527344,-11.100000381469727
1017379,3.148026466369629,4.882640838623047,-0.7016217112541199,2.187514066696167,-3.201239824295044,2.942091941833496,79.5,-165.3000030517578,-25.500001907348633
1017399,3.4500887393951416,5.487961769104004,-1.2854092121124268,1.7606819868087769,-1.0289700031280518,2.1722700595855713,67.5,-167.70001220703125,-18.30000114440918
1017419,3.5338287353515625,6.4431962966918945,-2.071967363357544,2.126538038253784,0.5868939757347107,2.0045859813690186,67.5,-177.3000030517578,-12.300000190734863
1017439,3.6851587295532227,7.854813575744629,-2.9739668369293213,1.981719970703125,1.524399995803833,1.8445239067077637,84.30000305175781,-170.10000610351562,-17.100000381469727
1017459,3.4710235595703125,8.292654037475586,-3.4112093448638916,1.3109840154647827,1.0594580173492432,0.4420759975910187,69.9000015258789,-165.3000030517578,-14.100000381469727
1017519,3.392068862915039,9.216785430908203,-4.30842399597168,1.1737879514694214,-0.28201398253440857,-0.7240899801254272,77.10000610351562,-160.5,-20.700000762939453
1017539,3.1246988773345947,8.747840881347656,-3.988417387008667,0.9832379817962646,0.030487999320030212,-0.7545779943466187,72.30000305175781,-165.3000030517578,-14.700000762939453
1017559,2.896806478500366,9.362133979797363,-4.134364128112793,0.6631140112876892,0.457319974899292,-0.342989981174469,79.5,-158.10000610351562,-17.100000381469727
1017579,2.861515998840332,9.587634086608887,-3.764113664627075,0.5868939757347107,0.48018598556518555,-1.371959924697876,81.9000015258789,-160.5,-17.100000381469727
1017599,2.9291062355041504,9.481761932373047,-3.4925568103790283,0.7240899801254272,0.9298839569091797,-2.599102020263672,69.9000015258789,-155.70001220703125,-13.500000953674316
1017619,2.3297669887542725,8.888404846191406,-3.2718420028686523,-0.05335399881005287,1.2576299905776978,-3.460387945175171,81.9000015258789,-158.10000610351562,-10.5
1017641,1.5970417261123657,8.33272933959961,-3.5302398204803467,-0.1448179930448532,1.9512319564819336,-3.1783738136291504,86.70000457763672,-172.5,-10.5
1017661,1.1609954833984375,7.942142486572266,-3.6373074054718018,-0.007621999830007553,1.653973937034607,-2.644834041595459,81.9000015258789,-160.5,-20.100000381469727
1017683,0.8691017627716064,7.799784183502197,-3.5003325939178467,0.25152599811553955,1.021347999572754,-1.4329359531402588,81.9000015258789,-160.5,-11.100000381469727
1017746,0.9719823002815247,8.273513793945312,-3.4207797050476074,-0.7240899801254272,0.9603719711303711,-1.4634239673614502,79.5,-153.3000030517578,-20.100000381469727
1017806,1.3452235460281372,9.44647216796875,-3.0834269523620605,-0.6250039935112,0.16768398880958557,-0.2591480016708374,84.30000305175781,-165.3000030517578,-19.5
1017826,1.4833946228027344,9.188074111938477,-3.1845130920410156,-0.5182960033416748,0.6783579587936401,-0.9603719711303711,86.70000457763672,-165.3000030517578,-15.90000057220459
1017849,1.3254848718643188,8.658119201660156,-3.1767373085021973,-0.030487999320030212,0.5868939757347107,-1.1356779336929321,79.5,-158.10000610351562,-13.500000953674316
1017873,1.2423429489135742,8.61266040802002,-3.0684733390808105,0.13719600439071655,0.6707359552383423,-0.5564059615135193,86.70000457763672,-162.90000915527344,-14.100000381469727
1017893,1.0814424753189087,8.60069751739502,-3.076847553253174,-0.04573199898004532,1.0289700031280518,-0.457319974899292,93.9000015258789,-155.70001220703125,-6.900000095367432
