time,sensor_accX,sensor_accY,sensor_accZ,sensor_gyroX,sensor_gyroY,sensor_gyroZ,sensor_magX,sensor_magY,sensor_magZ,label_Boxing_slip_left,label_Boxing_slip_right,label_Boxing_pullback,label_Boxing_roll_left,label_Boxing_roll_right,label_Boxing_recording_cut
425734,1.1956878,8.512771,-1.560555,1.021348,-0.20579399,-1.1356779,62.7,-172.5,-30.300001,,,,,,
425754,1.1909027,8.8489275,-1.7411942,0.907018,0.068598,-0.640248,65.100006,-167.70001,-28.500002,,,,,,
425774,1.2435392,8.987098,-1.7399979,0.594516,0.327746,-0.7622,62.7,-167.70001,-27.900002,,,,,,
425834,1.6119953,9.512866,-2.1557074,0.632626,0.221038,-1.44818,67.5,-167.70001,-26.7,,,,,,
425854,1.795027,9.387854,-2.1814275,1.013726,-0.182928,-2.332332,67.5,-162.90001,-27.900002,,,,,,
425874,1.6419024,8.567202,-2.2280827,1.21952,-0.274392,-3.003068,62.7,-170.1,-28.500002,,,,,,
425914,1.9314036,8.320766,-2.4834895,1.425314,-0.388722,-1.737816,72.3,-170.1,-27.900002,,,,,,
425934,2.1401556,8.737075,-2.7018118,0.99086,0.030488,-2.027452,74.700005,-167.70001,-26.7,,,,,,
425954,1.8931226,8.399123,-2.96978,0.754578,0.510674,-2.164648,74.700005,-170.1,-27.300001,,,,,,
425974,1.9888253,8.643166,-3.3561802,0.716468,0.40396598,-1.783548,79.5,-165.3,-24.900002,,,,,,
425998,2.7717946,10.131346,-3.1719522,0.99086,-0.259148,-0.92988396,79.5,-172.5,-27.900002,,,,,,
426018,2.8184497,10.276096,-3.158793,-0.07622,0.129574,-2.065562,77.100006,-167.70001,-26.7,,,,,,
426038,2.731719,10.222263,-3.417789,0.0,-0.068598,-2.431418,81.9,-167.70001,-25.500002,,,,,,
426058,2.9859297,10.128953,-3.0313885,0.022866,-0.846042,-2.995446,81.9,-167.70001,-28.500002,,,,,,
426081,2.878264,9.947716,-2.9165452,-0.503052,0.289636,-3.833866,89.100006,-162.90001,-25.500002,,,,,,
426101,2.8525438,9.666589,-3.2855992,-0.53354,1.196654,-4.169234,89.100006,-160.5,-26.7,,,,,,
426121,2.53493,9.066053,-3.217411,-0.41921,1.25763,-4.15399,93.9,-167.70001,-26.7,,,,,,
426141,2.3518982,8.826796,-3.2407386,-0.121952,1.036592,-3.8109999,93.9,-160.5,-24.900002,,,,,,
426163,2.2771304,8.378188,-2.9883223,0.82317597,0.060976,-3.528986,108.3,-162.90001,-26.1,,,,,,
426183,2.1311834,8.004948,-2.4996395,1.150922,-0.746956,-3.01069,103.50001,-155.70001,-26.7,,,,,,
426203,2.3207948,8.336917,-2.0612006,1.051836,-1.18141,-2.080806,103.50001,-160.5,-24.300001,,,,,,
426224,2.6043146,8.743055,-1.7178667,0.45731997,-0.983238,-2.050318,110.700005,-158.1,-25.500002,,,,,,
426244,2.6431937,8.447573,-1.7088945,-0.503052,-0.259148,-2.2408679,108.3,-162.90001,-24.900002,,,,,,
426264,2.6336236,8.206522,-1.9804513,-0.846042,0.129574,-1.996964,113.100006,-158.1,-25.500002,,,,,,
426284,2.7054007,8.274112,-2.0450509,-0.57164997,0.243904,-1.48629,110.700005,-153.3,-26.1,,,,,,
426304,2.6126885,7.927189,-1.953535,-0.213416,0.525918,-1.44818,115.50001,-158.1,-26.7,,,,,,
426324,2.6760917,7.8625894,-1.782466,0.365856,0.160062,-0.640248,117.9,-155.70001,-24.900002,,,,,,
426344,3.2742345,10.325742,-2.150922,1.189032,0.060976,0.80030996,117.9,-160.5,-24.900002,,,,,,
426364,2.3154113,8.518154,-2.2771304,-0.007622,0.33536798,-1.8673899,115.50001,-158.1,-25.500002,,,,,,
426384,2.329767,7.9499183,-2.5971367,1.48629,-0.487808,-1.272874,117.9,-160.5,-24.900002,,,,,,
426404,2.5785944,9.007435,-2.5767999,1.8369019,-1.554888,-0.312502,115.50001,-153.3,-24.300001,,,,,,
426424,2.4613583,9.029567,-2.8692918,1.326228,-1.48629,-0.92226195,120.3,-153.3,-22.5,,,,,,
426447,2.4362364,8.708364,-3.0589032,1.3795819,-1.783548,-0.93750596,122.700005,-155.70001,-22.5,,,,,,
426467,2.065986,8.511575,-2.8770678,1.44818,-1.737816,-0.792688,122.700005,-153.3,-24.900002,,,,,,
426489,1.4457116,9.404602,-3.0822308,1.3567159,-1.234764,-0.45731997,122.700005,-153.3,-23.7,,,,,,
426509,0.72734183,9.436303,-3.225785,0.426832,-0.594516,-1.577754,127.50001,-150.90001,-23.1,,,,,,
426529,-0.97377676,9.634289,-3.840676,0.56402797,0.144818,-2.2332458,125.100006,-153.3,-23.1,,,,,,
426550,-1.6006306,9.417761,-3.937575,0.586894,0.099086,-2.949714,125.100006,-155.70001,-23.7,,,,,,
426570,-2.5086117,8.884217,-3.8873312,0.80030996,-0.312502,-3.528986,129.90001,-153.3,-22.5,,,,,,
426590,-2.8627121,9.708459,-3.8179467,0.884152,-0.907018,-2.7134318,134.70001,-148.5,-21.900002,,,,,,
426630,-3.6714015,8.782534,-4.079933,0.137196,-0.899396,-3.025934,134.70001,-148.5,-23.7,,,,,,
426652,-3.0008833,9.465014,-4.0135393,0.80793196,-2.05794,-2.40093,141.90001,-150.90001,-22.5,,,,,,
426672,-2.414105,9.584044,-3.7377954,0.64787,-2.09605,-2.32471,144.3,-146.1,-20.7,,,,,,
426692,-1.9882272,8.789113,-3.309525,-0.091464,-1.6006199,-2.484772,146.70001,-143.70001,-21.300001,,,,,,
426714,-1.5743123,8.1796055,-2.7646167,-0.480186,-0.830798,-2.012208,149.1,-146.1,-22.5,,,,,,
426734,-0.92652345,9.100147,-2.9548264,-0.327746,0.7622,-1.318606,153.90001,-148.5,-23.7,,,,,,
426754,-1.0963961,8.458938,-3.1049602,-0.426832,1.471046,-2.187514,149.1,-143.70001,-22.5,,,,,,
426774,-0.9731786,8.487051,-3.359171,0.434454,1.3948259,-1.8292799,149.1,-138.90001,-21.900002,,,,,,
426794,-1.0210301,8.030069,-3.2437294,1.150922,0.99086,-1.821658,153.90001,-136.5,-23.7,,,,,,
426814,-1.0317966,8.189176,-3.3603673,1.326228,0.83842,-1.074702,144.3,-146.1,-21.300001,,,,,,
426834,-0.89422375,9.232935,-3.465042,1.532022,0.487808,-0.617382,153.90001,-143.70001,-20.1,,,,,,
426854,-0.4521961,9.409986,-3.4740143,0.830798,0.251526,-0.746956,149.1,-138.90001,-20.7,,,,,,
426874,-0.15611531,9.647448,-3.5918486,0.373478,0.26677,-0.579272,151.5,-141.3,-21.300001,,,,,,
426894,-0.33137122,9.058875,-3.7916284,0.045732,0.365856,-0.983238,156.3,-136.5,-20.1,,,,,,
426916,-0.27095875,9.457238,-3.9680805,0.655492,0.0,-0.72409,156.3,-134.1,-20.1,,,,,,
426936,-0.2895012,9.380078,-4.002175,0.312502,-0.11432999,-0.91463995,153.90001,-138.90001,-19.5,,,,,,
426960,-0.49346796,8.587539,-4.1989636,-0.11432999,0.121952,-0.518296,156.3,-138.90001,-20.7,,,,,,
426981,-0.36068022,9.165345,-4.0865126,0.28201398,-0.3811,0.091464,161.1,-138.90001,-21.900002,,,,,,
427001,-0.2643792,9.5296135,-3.8436668,0.068598,-0.26677,-0.053354,156.3,-138.90001,-20.7,,,,,,
427023,-0.3451285,8.927882,-3.5918486,-0.754578,0.19055,-0.586894,151.5,-143.70001,-21.300001,,,,,,
427043,-0.23507018,8.601295,-3.4142,-0.87653,0.46494198,-0.396344,153.90001,-146.1,-21.300001,,,,,,
427063,-0.18901318,8.560024,-3.2861974,-0.87653,0.70122397,-0.20579399,161.1,-136.5,-20.7,,,,,,
427086,-0.17047074,8.417068,-3.020622,-0.82317597,0.785066,-0.045732,161.1,-136.5,-21.300001,,,,,,
427106,-0.23925719,8.327347,-2.9099655,-0.754578,0.998482,-0.129574,161.1,-138.90001,-21.900002,,,,,,
427126,-0.20815375,8.269925,-2.8896286,-0.47256398,1.189032,-0.28201398,156.3,-138.90001,-20.7,,,,,,
427149,-0.39597064,8.39075,-3.061894,0.15244,1.189032,-0.510674,153.90001,-138.90001,-20.1,,,,,,
427169,-0.41152236,8.774159,-3.1229045,0.434454,0.975616,-0.3811,153.90001,-141.3,-21.300001,,,,,,
427189,-0.79553014,9.025977,-3.28859,0.365856,0.95274997,-0.594516,153.90001,-136.5,-20.1,,,,,,
427209,-0.99052477,9.422546,-3.4758089,0.20579399,0.510674,-0.731712,156.3,-143.70001,-18.300001,,,,,,
427233,-1.0784518,8.804067,-3.133671,-0.121952,0.007622,-1.227142,158.70001,-134.1,-21.900002,,,,,,
427254,-1.4887779,9.198242,-3.1139324,-0.23628199,0.068598,-0.586894,161.1,-136.5,-20.1,,,,,,
427275,-2.0713692,10.0045395,-3.2012613,-0.358234,-0.30488,-0.510674,161.1,-141.3,-19.5,,,,,,
427299,-2.3028505,10.614645,-2.179633,-1.227142,-1.1280559,-1.326228,161.1,-138.90001,-20.7,,,,,,
427339,-4.334742,9.27301,-3.0068648,-2.2484899,-0.083841994,-0.99086,168.3,-136.5,-20.7,,x,,,,
427359,-4.965783,9.835863,-3.0367718,-1.996964,-1.6006199,0.327746,158.70001,-131.70001,-21.300001,,x,,,,
427379,-5.0525136,9.265235,-3.4070225,-2.2103798,-2.606724,0.0,168.3,-138.90001,-22.5,,x,,,,
427400,-4.457361,8.919508,-3.7635155,-0.67835796,-4.61131,1.547266,161.1,-131.70001,-21.900002,,x,,,,
427420,-3.652261,8.99607,-3.4405184,0.07622,-6.8521776,2.7286758,161.1,-143.70001,-22.5,,x,,,,
427480,-1.0383762,7.3691216,-3.0654826,2.179892,-10.960436,3.323192,161.1,-141.3,-25.500002,,x,,,,
427500,-0.68846256,5.812753,-2.748467,2.652456,-11.69977,2.454284,158.70001,-146.1,-25.500002,,x,,,,
427520,-0.1698726,5.569907,-2.4158995,3.917708,-13.003132,3.574718,156.3,-148.5,-25.500002,,x,,,,
427540,0.59694666,6.124386,-1.7310258,3.96344,-13.628136,3.856732,158.70001,-143.70001,-24.300001,,x,,,,
427602,1.8871411,5.941952,-1.9367869,3.330814,-10.51836,2.309466,156.3,-143.70001,-26.7,,x,,,,
427648,0.9271216,7.321868,-5.5238504,4.657042,-3.894842,2.660078,153.90001,-148.5,-27.300001,,x,,,,
427668,1.2644743,10.103233,-7.1645565,4.100636,-0.67073596,4.64942,146.70001,-143.70001,-23.7,,x,,,,
427710,1.9391795,14.512145,-10.670871,2.93447,4.740884,0.388722,139.5,-148.5,-23.7,,x,,,,
427730,1.3350551,13.916992,-11.578852,0.785066,2.545748,-2.2789779,139.5,-141.3,-24.300001,,x,,,,
427752,0.9348975,12.223052,-10.586533,-1.94361,-0.746956,-2.36282,139.5,-143.70001,-24.300001,,x,,,,
427773,1.2596891,11.739752,-8.673671,-3.147886,-0.777444,-1.250008,141.90001,-148.5,-24.900002,,x,,,,
427835,-0.84996116,7.321868,-6.417476,-5.114362,6.32626,-3.910086,151.5,-148.5,-26.1,,x,,,,
427855,-1.2578946,7.050311,-5.5358133,-4.489358,6.82169,-1.8902559,158.70001,-141.3,-25.500002,,x,,,,
427875,-0.94147706,7.11192,-4.6296268,-4.070148,5.823208,-1.3719599,156.3,-143.70001,-25.500002,,x,,,,
427895,-0.6447981,6.8092594,-3.4578645,-3.6966698,5.4573517,-1.8369019,146.70001,-146.1,-26.1,,x,,,,
427915,-0.78655803,6.363643,-2.664727,-3.54423,6.265284,-2.195136,156.3,-146.1,-26.7,,x,,,,
427935,-0.6334334,6.3403153,-2.7305226,-2.7515419,7.446694,-2.492394,158.70001,-148.5,-26.1,,x,,,,
427955,-0.7082013,6.3941483,-2.5277522,-1.5929979,6.562542,-2.942092,156.3,-146.1,-24.900002,,x,,,,
427975,-0.64240557,7.0257874,-2.058808,-1.250008,6.112844,-3.003068,163.5,-143.70001,-27.300001,,x,,,,
427996,-0.782371,6.753632,-2.4374325,-1.6234859,6.59303,-3.7271578,163.5,-141.3,-26.1,,x,,,,
428016,-0.7333233,6.656135,-2.4505918,-0.769822,5.586926,-3.3003259,165.90001,-146.1,-26.1,,x,,,,
428038,-0.8062967,7.531218,-2.4188902,-0.259148,5.091496,-2.317088,161.1,-146.1,-24.300001,,x,,,,
428059,-1.464254,8.199942,-2.6413994,-1.1280559,5.510706,-2.7667859,165.90001,-136.5,-25.500002,,x,,,,
428079,-1.1394624,8.7412615,-2.594146,-0.899396,5.282046,-2.919226,170.70001,-136.5,-24.900002,,x,,,,
428099,-1.5659384,9.13783,-2.272345,-1.006104,5.655524,-2.7896519,168.3,-134.1,-23.7,,x,,,,
428119,-1.7591385,9.701879,-2.6180718,-1.692084,6.455834,-2.2789779,170.70001,-138.90001,-24.300001,,x,,,,
428139,-1.752559,10.960372,-2.347711,-1.059458,5.091496,-1.570132,170.70001,-141.3,-21.300001,,x,,,,
428159,-2.622259,9.735973,-1.7136797,-1.478668,5.160094,-3.2622159,170.70001,-136.5,-22.5,,x,,,,
428180,-3.367545,8.275907,-2.2292788,-1.722572,5.777476,-3.7195358,173.1,-134.1,-22.5,,x,,,,
428200,-3.5655303,8.875844,-2.9099655,-0.518296,4.984788,-2.179892,175.5,-134.1,-20.7,,x,,,,
428220,-3.5081086,9.264038,-3.184513,0.068598,3.84911,-1.737816,175.5,-131.70001,-20.7,,x,,,,
428240,-3.191691,8.990687,-3.4124057,0.243904,2.7667859,-0.92988396,173.1,-131.70001,-21.300001,,x,,,,
428261,-2.622259,8.725112,-3.4207797,0.525918,1.6311079,0.480186,180.3,-122.100006,-21.300001,,,,,,
428281,-1.5958455,9.100147,-3.0840251,0.449698,0.716468,1.79117,177.90001,-134.1,-21.300001,,,,,,
428301,-1.2854092,9.257459,-3.0840251,0.289636,0.70122397,1.8445239,168.3,-136.5,-21.300001,,,,,,
428321,-0.9354956,8.758608,-3.0894084,-0.129574,0.625004,0.861286,163.5,-122.100006,-19.5,,,,,,
428341,-0.82424104,8.766981,-3.2299721,-0.060976,0.68597996,0.72409,170.70001,-131.70001,-20.7,,,,,,
428361,-0.75665087,8.731093,-3.3711338,0.182928,0.007622,0.106708,168.3,-134.1,-21.300001,,,,,,
428381,-0.66334057,9.207214,-3.3819003,0.20579399,-0.259148,0.068598,163.5,-131.70001,-21.300001,,,,,,
428401,-0.76323044,9.285571,-3.3460119,-0.015244,-0.198172,-0.487808,168.3,-131.70001,-21.300001,,,,,,
428421,-0.86790544,9.042128,-3.3406284,-0.396344,-0.030488,-0.640248,161.1,-126.9,-20.7,,,,,,
428441,-1.1478363,8.653933,-3.3484044,-0.53354,0.068598,-0.510674,165.90001,-126.9,-23.1,,,,,,
428461,-1.1645844,8.753224,-3.5194733,-0.34298998,0.007622,-0.022866,163.5,-131.70001,-21.300001,,,,,,
428482,-1.0832369,8.774159,-3.5810819,-0.20579399,-0.060976,0.045732,168.3,-134.1,-20.7,,,,,,
428505,-1.0150486,8.766981,-3.5410063,0.045732,-0.160062,0.15244,175.5,-136.5,-21.300001,,,,,,
428526,-0.9420752,8.722719,-3.505118,-0.068598,-0.11432999,0.129574,170.70001,-129.3,-21.900002,,,,,,
428547,-0.7733989,9.039735,-3.6295316,-0.030488,-0.03811,0.327746,170.70001,-131.70001,-19.5,,,,,,
428567,-0.7763896,8.980518,-3.7084863,-0.144818,0.053354,0.20579399,165.90001,-136.5,-21.900002,,,,,,
428587,-0.7267437,8.755018,-3.6492703,-0.11432999,-0.129574,0.28201398,168.3,-136.5,-22.5,,,,,,
428610,-0.60472256,8.763392,-3.2700477,-0.40396598,0.083841994,0.15244,165.90001,-131.70001,-19.5,,,,,,
428630,-0.57182467,8.818421,-3.1581948,-0.625004,0.426832,0.015244,168.3,-138.90001,-21.300001,,,,,,
428651,-0.4874865,9.159364,-3.0684733,-0.853664,0.81555396,-0.312502,168.3,-131.70001,-22.5,,,,,,
428671,-0.62565756,8.899769,-3.0403607,-1.227142,1.173788,-0.830798,170.70001,-134.1,-20.1,,,,,,
428691,-0.8415872,8.750832,-3.1049602,-1.021348,1.18141,-0.746956,163.5,-138.90001,-21.900002,,,,,,
428712,-0.8972145,8.424844,-2.9715743,-0.731712,1.059458,-0.769822,168.3,-134.1,-19.5,,,,,,
428732,-0.91994387,8.689223,-2.991313,-0.274392,1.1128119,-0.33536798,168.3,-131.70001,-19.5,,,,,,
428754,-0.9773656,8.955397,-3.0098555,-0.007622,1.1204339,-0.503052,173.1,-138.90001,-21.300001,,,,,,
428774,-0.916355,8.787916,-2.9853315,0.15244,1.1051899,-0.69360197,165.90001,-136.5,-20.1,,,,,,
428794,-1.0150486,8.620437,-2.9853315,0.121952,1.234764,-0.55640596,170.70001,-131.70001,-20.7,,,,,,
428814,-1.0844332,9.042726,-3.0517254,-0.07622,1.21952,-0.41921,170.70001,-131.70001,-22.5,,,,,,
428834,-1.2393522,9.039735,-3.116325,-0.548784,1.158544,-0.708846,175.5,-134.1,-22.5,,x,,,,
428854,-1.2931851,9.00923,-3.1492229,-0.67073596,1.021348,-0.731712,165.90001,-134.1,-19.5,,x,,,,
428874,-1.4355432,9.131848,-3.162382,-0.56402797,0.785066,-0.602138,170.70001,-131.70001,-18.900002,,x,,,,
428894,-1.9337962,9.778441,-3.30474,-0.358234,0.64787,-0.243904,168.3,-131.70001,-20.1,,x,,,,
428914,-2.539715,10.7390585,-3.4937532,-0.388722,0.137196,0.182928,165.90001,-134.1,-18.900002,,x,,,,
428934,-3.0648847,10.145701,-3.3370397,-1.044214,-0.449698,-0.160062,163.5,-134.1,-20.7,,x,,,,
428974,-4.5596437,10.021287,-3.643887,-1.440558,-1.1356779,2.408552,165.90001,-134.1,-21.300001,,x,,,,
429038,-4.7043943,7.606584,-4.2569838,-0.81555396,-7.5457797,3.7195358,165.90001,-141.3,-24.900002,,x,,,,
429171,2.4081235,6.857709,-1.6185749,2.59148,-13.22417,3.605206,144.3,-148.5,-27.300001,,x,,,,
429207,2.5127985,5.7296114,-1.945161,2.484772,-8.91774,0.907018,149.1,-150.90001,-27.900002,,x,,,,
429227,2.5708184,5.751145,-2.7143729,2.36282,-6.875044,1.6539739,141.90001,-148.5,-27.300001,,x,,,,
429267,2.2526064,9.2807865,-5.5429907,1.768304,-0.137196,3.338436,134.70001,-150.90001,-28.500002,,x,,,,
429329,1.2052581,13.415749,-9.783226,0.099086,1.745438,-0.853664,139.5,-155.70001,-26.1,,x,,,,
429349,1.1370698,11.449055,-9.646252,0.480186,0.35061198,-1.3719599,129.90001,-155.70001,-24.900002,,x,,,,
429373,2.07436,12.5095625,-8.2765045,-1.1356779,-0.94512796,0.144818,129.90001,-158.1,-24.300001,,x,,,,
429393,1.9660959,11.891082,-6.8421574,-3.2241058,2.7210538,-1.775926,137.1,-148.5,-27.900002,,x,,,,
429413,1.3362514,10.255759,-7.0096374,-4.0015497,6.4177237,-3.147886,132.3,-158.1,-24.300001,,x,,,,
429436,0.08374002,8.536696,-5.8707733,-3.513742,7.1113257,-3.483254,137.1,-153.3,-24.300001,,x,,,,
429458,-0.36247465,7.911039,-5.4042215,-2.835384,7.6219997,-3.147886,146.70001,-153.3,-24.900002,,x,,,,
429478,-0.5299547,7.4020195,-4.381995,-2.393308,6.4939437,-3.2469718,144.3,-150.90001,-26.7,,x,,,,
429498,-0.64120924,7.020404,-3.4279573,-2.126538,6.379614,-3.46801,146.70001,-146.1,-26.7,,x,,,,
429518,-0.6124984,6.828998,-3.016435,-2.111294,6.9588857,-3.955818,146.70001,-148.5,-26.7,,x,,,,
429538,-0.66274244,6.002963,-2.6551566,-1.71495,6.8826656,-4.5884438,149.1,-148.5,-25.500002,,x,,,,
429578,-0.82184845,6.559834,-1.8853467,-0.716468,6.303394,-4.5122237,153.90001,-148.5,-23.7,,x,,,,
429620,-1.0784518,6.798493,-1.7830642,0.57164997,5.0991178,-3.7576458,158.70001,-138.90001,-24.300001,,x,,,,
429641,-0.7847636,8.390151,-1.2752408,0.022866,3.7119138,-2.7820299,165.90001,-143.70001,-22.5,,x,,,,
429661,-0.69504213,9.159364,-1.1831268,-1.173788,5.213448,-3.422278,161.1,-146.1,-22.5,,x,,,,
429681,-0.7901469,9.214393,-1.7830642,-1.455802,6.303394,-3.871976,170.70001,-136.5,-23.1,,x,,,,
429701,-1.1442475,10.475278,-2.580987,-1.097568,6.349126,-3.003068,170.70001,-136.5,-21.300001,,x,,,,
429741,-3.2538977,9.406396,-3.3119175,0.35061198,5.701256,-2.7439198,177.90001,-136.5,-23.1,,x,,,,
429761,-3.7348046,10.826986,-3.5206695,-0.121952,5.4116197,-2.987824,175.5,-136.5,-21.300001,,x,,,,
429781,-4.16786,10.514157,-4.1020646,-0.45731997,5.701256,-3.955818,175.5,-131.70001,-21.300001,,x,,,,
429801,-3.991408,9.72401,-4.2348523,-0.19055,3.7119138,-2.32471,175.5,-129.3,-20.1,,x,,,,
429822,-3.7461693,9.616344,-4.078737,-0.40396598,2.964958,-1.547266,180.3,-126.9,-19.5,,x,,,,
429843,-2.8106737,8.747841,-3.6618314,-0.899396,1.089946,0.35061198,177.90001,-131.70001,-21.900002,,x,,,,
429863,-1.8596265,8.858498,-3.3872836,-0.884152,-0.060976,1.493912,177.90001,-134.1,-20.7,,,,,,
429926,-0.6268538,8.27471,-2.6120903,-0.46494198,-0.83842,0.7622,180.3,-126.9,-20.1,,,,,,
429946,-0.715379,8.76399,-2.6742973,-0.182928,-0.81555396,0.106708,168.3,-131.70001,-21.900002,,,,,,
429970,-0.8798683,8.5791645,-2.8758714,-0.35061198,-0.594516,-0.518296,170.70001,-131.70001,-21.300001,,,,,,
429991,-0.99172103,8.964967,-3.1348674,-0.015244,-0.56402797,-0.602138,175.5,-129.3,-20.1,,,,,,
430011,-1.1095552,9.039137,-3.3232822,0.068598,-0.40396598,-0.632626,177.90001,-134.1,-20.1,,,,,,
430031,-1.1454438,8.82859,-3.4118075,-0.19055,-0.23628199,-0.47256398,175.5,-134.1,-20.7,,,,,,
430051,-1.1891083,8.893189,-3.5284455,-0.07622,0.03811,-0.007622,177.90001,-131.70001,-21.300001,,,,,,
430075,-1.0479465,9.192261,-3.7306178,-0.30488,0.40396598,-0.19055,173.1,-126.9,-21.300001,,,,,,
430095,-0.9755712,8.472097,-3.6301296,0.007622,0.3811,-0.625004,177.90001,-131.70001,-19.5,,,,,,
430115,-1.0652926,8.423648,-3.5170808,-0.182928,0.34298998,0.083841994,177.90001,-131.70001,-18.900002,,,,,,
430135,-0.9857396,9.098951,-3.568521,-0.53354,0.548784,0.449698,175.5,-126.9,-20.7,,,,,,
430175,-1.0569186,8.526528,-3.5679228,-0.099086,0.221038,0.068598,173.1,-131.70001,-21.300001,,,,,,
430195,-0.93370116,8.966163,-3.5541656,-0.33536798,0.312502,0.56402797,175.5,-134.1,-21.300001,,,,,,
430215,-0.8930275,9.0188,-3.4112093,-0.297258,0.373478,0.358234,177.90001,-131.70001,-20.7,,,,,,
430235,-0.72136045,9.041529,-3.2580848,-0.40396598,0.518296,0.182928,177.90001,-131.70001,-20.1,,,,,,
430255,-0.6806867,8.841749,-3.20485,-0.663114,0.830798,-0.083841994,168.3,-126.9,-20.1,,,,,,
430275,-0.74947315,8.701186,-3.20485,-0.541162,1.1204339,-0.221038,173.1,-129.3,-20.1,,,,,,
430295,-0.8547463,8.499612,-3.263468,-0.373478,1.211898,-0.320124,173.1,-134.1,-19.5,,,,,,
430315,-0.6543684,8.81902,-3.250907,-0.03811,1.196654,-0.213416,177.90001,-129.3,-22.5,,,,,,
430339,-0.65377027,8.747841,-3.2574866,-0.137196,1.3795819,-0.518296,173.1,-134.1,-19.5,,,,,,
430359,-0.6932477,8.7843275,-3.2724402,-0.083841994,1.501534,-0.56402797,170.70001,-126.9,-21.900002,,,,,,
430379,-0.7602397,8.849525,-3.350797,-0.160062,1.6311079,-0.746956,175.5,-131.70001,-18.900002,,,,,,
430399,-0.77758586,8.736476,-3.4375277,-0.312502,1.722572,-0.82317597,173.1,-131.70001,-20.7,,,,,,
430419,-0.7082013,8.823805,-3.5840726,-0.106708,1.5929979,-0.602138,180.3,-126.9,-20.7,,,,,,
430459,-0.74229544,8.755617,-3.6295316,0.07622,1.18141,-0.274392,173.1,-134.1,-21.900002,,,,,,
430522,-1.7764846,9.354956,-3.9214253,0.07622,0.617382,0.739334,165.90001,-131.70001,-18.900002,,,,,,
430562,-2.346515,9.649242,-3.1498208,-0.7622,-1.211898,1.310984,168.3,-131.70001,-17.7,,,,,,
430593,-3.3962557,9.597802,-3.0864177,-2.13416,-0.983238,1.814036,165.90001,-134.1,-21.300001,,,,,,
430613,-4.234254,10.0494,-3.3149083,-2.065562,-1.737816,1.821658,163.5,-131.70001,-21.300001,,,,,,
430658,-5.1685534,9.319068,-3.4817903,-1.29574,-4.443626,1.9131219,165.90001,-136.5,-21.300001,,x,,,,
430678,-5.1135244,8.912929,-3.7497582,-0.708846,-6.425346,3.567096,158.70001,-134.1,-21.900002,,x,,,,
430698,-3.748562,9.587634,-3.188102,0.198172,-8.628104,5.0076537,161.1,-138.90001,-22.5,,x,,,,
430720,-3.564334,8.270523,-3.8723776,-0.49543,-8.856764,4.4512477,158.70001,-143.70001,-22.5,,x,,,,
430740,-2.526556,7.5108814,-4.0195208,1.25763,-11.829344,4.596066,156.3,-146.1,-26.1,,x,,,,
430762,-1.2118376,6.932477,-3.2646644,2.2942219,-14.230273,4.68753,156.3,-136.5,-23.7,,x,,,,
430782,-0.8858497,5.866586,-2.6473808,2.012208,-15.266866,4.367406,151.5,-141.3,-27.300001,,x,,,,
430803,-0.21652776,5.1302724,-2.195783,2.484772,-15.350708,4.61131,149.1,-150.90001,-26.7,,x,,,,
430823,0.23088318,5.7266207,-2.0474434,2.7896519,-14.618996,5.6097918,149.1,-146.1,-26.1,,x,,,,
430843,0.8487649,6.031674,-2.1616888,3.2774599,-14.06259,6.333882,137.1,-146.1,-27.300001,,x,,,,
430863,2.10008,6.183602,-2.1317816,3.521364,-11.882698,6.638762,137.1,-150.90001,-27.900002,,x,,,,
430926,3.6749904,9.050501,-4.547681,3.589962,-5.5640597,7.103704,122.700005,-148.5,-25.500002,,x,,,,
430951,4.1738415,12.722501,-7.496526,2.644834,-0.274392,3.910086,113.100006,-160.5,-25.500002,,x,,,,
430971,3.7216456,13.208791,-8.388357,1.3567159,-0.26677,0.243904,117.9,-162.90001,-26.1,,x,,,,
431011,2.7640188,11.595001,-8.403909,-1.471046,2.6829438,-2.7515419,110.700005,-158.1,-26.7,,x,,,,
431031,2.2651675,11.098543,-8.298038,-1.059458,4.0015497,-2.614346,117.9,-150.90001,-24.900002,,x,,,,
431051,1.957722,11.078804,-7.1603694,-1.6387299,4.702774,-3.033556,120.3,-155.70001,-25.500002,,x,,,,
431071,1.4714317,9.817919,-6.5795727,-2.827762,7.675354,-4.5274677,125.100006,-155.70001,-24.900002,,x,,,,
431094,0.6459944,8.86089,-6.6160593,-3.025934,10.320188,-5.091496,127.50001,-153.3,-24.900002,,x,,,,
431114,-0.26497734,8.046818,-6.4665236,-2.6677,11.227205,-5.5030837,134.70001,-153.3,-25.500002,,x,,,,
431134,-1.0204319,6.8768497,-6.3660355,-2.073184,11.39489,-5.670768,134.70001,-146.1,-26.7,,x,,,,
431154,-0.954038,6.9510193,-5.5998144,-1.6082419,9.878112,-4.0320377,132.3,-146.1,-24.900002,,x,,,,
431174,-0.83859646,7.008441,-4.447791,-2.05794,8.948228,-3.597584,137.1,-148.5,-24.900002,,x,,,,
431194,-0.958225,6.2260704,-4.0183244,-2.309466,9.75616,-3.7957559,141.90001,-153.3,-24.300001,,x,,,,
431214,-0.681883,6.4521685,-3.652261,-1.6158639,8.932983,-3.323192,141.90001,-148.5,-24.900002,,x,,,,
431234,-0.78655803,6.351082,-2.7849536,-1.3567159,7.8735256,-3.6814258,144.3,-150.90001,-23.1,,x,,,,
431254,-0.6447981,6.983917,-1.8859448,-1.25763,7.286632,-4.070148,151.5,-143.70001,-24.300001,,x,,,,
431275,-0.67470527,6.8624945,-1.757344,-1.250008,7.3171196,-4.4969797,144.3,-146.1,-23.1,,x,,,,
431295,-0.9510473,7.0897884,-1.673604,-0.891774,6.532054,-4.291186,149.1,-146.1,-22.5,,x,,,,
431315,-0.90379405,8.2549715,-1.2949796,-0.480186,4.679908,-3.407034,151.5,-138.90001,-21.900002,,x,,,,
431335,0.17645217,11.269013,-0.9791601,-0.632626,3.460388,-2.2256238,156.3,-141.3,-20.7,,x,,,,
431355,-1.9284129,8.588137,-1.1741546,-3.3079479,5.434486,-6.4329677,153.90001,-138.90001,-20.7,,x,,,,
431377,-2.4081235,7.2536798,-1.9822458,-1.958854,5.076252,-3.92533,165.90001,-134.1,-21.900002,,x,,,,
431397,-2.3285706,10.7498255,-2.0474434,-0.541162,4.222588,-1.783548,165.90001,-138.90001,-20.1,,x,,,,
431417,-3.100773,10.303611,-2.7341115,-2.2561119,5.617414,-3.384168,163.5,-138.90001,-23.1,,x,,,,
431439,-3.5128937,9.805358,-3.5481842,-1.798792,5.091496,-2.957336,163.5,-136.5,-21.900002,,x,,,,
431459,-3.4195833,9.181495,-3.6498685,-0.70122397,3.39179,-2.2561119,168.3,-138.90001,-20.7,,x,,,,
431480,-2.8818529,8.979322,-3.5332305,-0.365856,2.050318,-1.02897,165.90001,-138.90001,-19.5,,x,,,,
431500,-2.3106263,8.686233,-3.5398102,-0.23628199,1.4024479,-0.213416,173.1,-131.70001,-21.300001,,x,,,,
431520,-1.8638135,8.992481,-3.6582425,0.045732,0.396344,0.708846,165.90001,-141.3,-23.7,,x,,,,
431540,-1.0036839,9.369311,-3.4153965,0.053354,-0.586894,0.67073596,165.90001,-136.5,-19.5,,x,,,,
431561,-0.9869359,9.081605,-3.3615634,-0.320124,-0.518296,0.396344,163.5,-134.1,-19.5,,,,,,
431581,-0.96001947,8.57079,-3.547586,-0.80030996,-0.20579399,0.22865999,163.5,-136.5,-21.900002,,,,,,
431601,-0.7482768,9.0977545,-3.4985383,-0.160062,-0.373478,0.67073596,161.1,-134.1,-21.300001,,,,,,
431623,-0.66034985,9.218579,-3.49794,-0.26677,-0.289636,0.480186,163.5,-136.5,-20.7,,,,,,
431643,-0.6753034,8.994276,-3.4405184,-0.365856,0.0,0.137196,161.1,-136.5,-21.900002,,,,,,
431665,-0.7596416,8.566006,-3.3334508,-0.487808,0.365856,0.068598,163.5,-131.70001,-21.900002,,,,,,
431685,-0.6286483,8.883619,-3.221,-0.243904,0.365856,0.41921,163.5,-129.3,-20.7,,,,,,
431705,-0.6268538,8.884217,-3.2706459,-0.442076,0.518296,0.23628199,168.3,-136.5,-19.5,,,,,,
431725,-0.72794,8.548061,-3.397452,-0.213416,0.49543,0.121952,161.1,-136.5,-21.300001,,,,,,
431745,-0.6914533,8.638979,-3.5176787,0.312502,0.19055,0.41158798,161.1,-131.70001,-20.1,,,,,,
431765,-0.63702226,8.580959,-3.5565581,0.243904,0.060976,0.67073596,158.70001,-134.1,-20.7,,,,,,
431785,-0.4731311,8.898573,-3.6504664,0.312502,0.083841994,0.82317597,161.1,-134.1,-20.1,,,,,,
431807,-0.40314835,8.998463,-3.6965237,0.396344,0.11432999,0.548784,161.1,-138.90001,-21.900002,,,,,,
431827,-0.53234726,9.147999,-3.7808616,0.251526,0.182928,0.41158798,161.1,-136.5,-21.300001,,,,,,
431847,-0.58558196,9.0110235,-3.8035913,-0.11432999,0.129574,0.289636,156.3,-141.3,-20.7,,,,,,
431867,-0.6304427,8.880629,-3.5661285,-0.41921,-0.045732,0.213416,156.3,-136.5,-20.7,,,,,,
431887,-0.49107537,8.90575,-3.2897863,-0.731712,-0.045732,0.251526,156.3,-136.5,-19.5,,,,,,
431907,-0.40434465,8.801674,-3.2742345,-1.158544,0.33536798,0.144818,153.90001,-141.3,-19.5,,,,,,
431927,-0.5030382,9.038538,-3.4028354,-1.021348,0.41921,-0.068598,156.3,-136.5,-21.300001,,,,,,
431950,-0.38520408,9.106129,-3.3645542,-0.846042,0.312502,-0.373478,161.1,-134.1,-20.1,,,,,,
431970,-0.29309005,8.789711,-3.0828288,-0.640248,0.259148,-0.503052,158.70001,-134.1,-22.5,,,,,,
431990,-0.38221335,8.993079,-3.0696697,-0.586894,0.708846,-0.442076,161.1,-134.1,-21.900002,,,,,,
432010,-0.53832865,8.76758,-3.2688513,-0.663114,0.960372,-0.586894,153.90001,-141.3,-21.300001,,,,,,
432032,-0.5455064,8.848329,-3.268253,-0.213416,0.792688,-0.518296,158.70001,-136.5,-20.1,,,,,,
432052,-0.5221788,8.920106,-3.1426432,-0.129574,0.632626,-0.49543,158.70001,-129.3,-19.5,,,,,,
432072,-0.5048327,8.817823,-3.1510172,-0.20579399,0.67835796,-0.56402797,161.1,-136.5,-21.300001,,,,,,
432092,-0.48569208,8.757411,-3.100175,-0.26677,0.632626,-0.579272,158.70001,-138.90001,-21.900002,,x,,,,
432113,-0.49047723,8.745448,-2.878264,-0.068598,0.487808,-0.45731997,158.70001,-138.90001,-20.7,,x,,,,
432133,-0.67889225,8.706569,-2.6013238,0.0,0.289636,-0.388722,158.70001,-138.90001,-20.1,,x,,,,
432153,-0.8302224,8.635988,-2.1024725,0.746956,-0.182928,-0.213416,161.1,-138.90001,-20.1,,x,,,,
432173,-1.2662686,8.58395,-2.0516305,1.265252,-0.289636,0.34298998,163.5,-134.1,-21.300001,,x,,,,
432194,-1.7262406,8.466714,-2.1078558,1.532022,-1.06708,1.150922,156.3,-136.5,-20.1,,x,,,,
432214,-2.213129,8.576772,-2.2328677,1.6234859,-2.004586,2.149404,158.70001,-134.1,-21.300001,,x,,,,
432236,-2.8100758,9.52124,-2.4158995,1.440558,-2.7820299,2.949714,153.90001,-141.3,-18.900002,,x,,,,
432256,-3.3603673,10.573373,-2.9440596,0.975616,-2.7972739,2.522882,153.90001,-138.90001,-18.900002,,x,,,,
432276,-3.8496482,10.782723,-3.777871,0.87653,-3.513742,1.8369019,153.90001,-143.70001,-18.300001,,x,,,,
432296,-4.238441,10.380772,-4.373023,0.998482,-5.4268637,2.2103798,151.5,-138.90001,-20.7,,x,,,,
432316,-4.5757937,10.243198,-4.990905,0.94512796,-7.271388,3.6738038,156.3,-138.90001,-21.300001,,x,,,,
432339,-4.103859,10.278489,-5.501719,0.655492,-9.649452,4.794238,151.5,-141.3,-20.7,,x,,,,
432359,-2.9338913,9.871752,-5.1817126,0.41921,-12.340017,5.160094,151.5,-143.70001,-20.7,,x,,,,
432419,0.26916432,5.117711,-3.9040792,2.942092,-15.907114,5.4116197,144.3,-150.90001,-24.300001,,x,,,,
432447,0.8649147,6.104049,-3.0762494,3.132642,-15.114426,6.4177237,139.5,-148.5,-23.7,,x,,,,
432470,1.1490326,6.2691364,-2.2406435,2.469528,-14.359848,4.68753,137.1,-143.70001,-25.500002,,x,,,,
432510,2.6725028,4.874267,-2.0600045,2.301844,-11.326292,4.80186,127.50001,-150.90001,-26.7,,x,,,,
432530,2.7951221,5.2522936,-2.2992616,2.103672,-8.30798,5.4573517,127.50001,-150.90001,-26.7,,x,,,,
432551,3.4919586,8.251981,-3.7599268,3.071666,-3.971062,5.960404,120.3,-160.5,-26.7,,x,,,,
432572,2.6312308,10.839547,-5.8049774,2.89636,0.099086,3.8186219,117.9,-162.90001,-26.1,,x,,,,
432656,2.4248717,12.105816,-9.985398,0.007622,2.484772,-0.95274997,110.700005,-153.3,-24.300001,,x,,,,
432694,2.3895812,10.922091,-7.5437794,-2.614346,6.996996,-3.025934,117.9,-158.1,-24.300001,,x,,,,
432715,1.3206997,9.247889,-7.563518,-3.7042918,9.626586,-4.61131,125.100006,-153.3,-24.300001,,x,,,,
432755,-0.026318291,7.1394343,-5.409605,-3.986306,10.282078,-4.847592,125.100006,-153.3,-23.1,,x,,,,
432777,-0.35529694,6.723127,-4.07455,-4.23021,11.455866,-4.565578,127.50001,-150.90001,-26.7,,x,,,,
432797,-0.43245736,6.32596,-3.8101707,-4.138746,11.692148,-4.664664,125.100006,-150.90001,-24.900002,,x,,,,
432817,-0.5012438,5.9341764,-3.38848,-3.597584,11.372024,-4.38265,137.1,-148.5,-21.900002,,x,,,,
432841,-0.61429286,6.2260704,-2.7245412,-2.2180018,9.840002,-4.176856,137.1,-153.3,-22.5,,x,,,,
432905,-0.9145606,6.3744097,-2.2735415,-0.449698,7.3171196,-5.10674,139.5,-146.1,-21.900002,,x,,,,
432929,-0.56046,8.428432,-2.2017643,-0.129574,5.541194,-4.169234,151.5,-146.1,-21.300001,,x,,,,
432949,-0.96420646,9.0511,-2.5546687,-1.166166,6.3719916,-4.64942,146.70001,-143.70001,-21.300001,,x,,,,
432991,-2.0480416,9.859789,-3.974062,-0.80793196,5.0991178,-3.12502,151.5,-136.5,-21.900002,,x,,,,
433011,-1.1179292,11.603375,-3.4082186,-0.93750596,3.490876,-2.187514,153.90001,-136.5,-21.300001,,x,,,,
433034,-1.799214,10.13972,-3.1737466,-1.768304,4.359784,-4.352162,158.70001,-134.1,-21.900002,,x,,,,
433054,-2.0869207,9.314282,-3.6247463,-1.242386,4.367406,-4.054904,161.1,-138.90001,-22.5,,x,,,,
433074,-2.467938,9.555334,-3.6552517,0.060976,4.054904,-3.856732,163.5,-138.90001,-20.7,,x,,,,
433097,-3.2162147,9.342993,-4.228871,0.884152,3.147886,-3.414656,168.3,-134.1,-20.7,,x,,,,
433118,-2.974565,9.619335,-4.14872,0.983238,1.745438,-1.996964,165.90001,-136.5,-19.5,,x,,,,
433138,-2.6162775,9.271814,-3.970473,-0.030488,1.1128119,-0.975616,165.90001,-131.70001,-18.300001,,x,,,,
433158,-1.9750681,8.7412615,-3.8203392,-0.640248,0.541162,0.106708,170.70001,-136.5,-18.300001,,x,,,,
433180,-1.4983481,8.2986355,-3.451285,-0.739334,0.121952,0.769822,170.70001,-129.3,-20.1,,x,,,,
433200,-0.90798104,8.257962,-3.1366618,-0.853664,-0.099086,1.1432999,161.1,-131.70001,-18.300001,,,,,,
433220,-0.5263658,8.256765,-2.9015915,-0.663114,-0.259148,0.87653,163.5,-129.3,-21.300001,,,,,,
433280,-0.6172835,8.963771,-3.409415,-0.22865999,-0.33536798,0.716468,165.90001,-126.9,-20.7,,,,,,
433343,-0.539525,8.643166,-3.3513951,-0.548784,0.312502,-0.46494198,163.5,-136.5,-21.300001,,,,,,
433363,-0.870298,8.8381605,-3.6552517,-0.160062,0.49543,-0.11432999,163.5,-124.50001,-19.5,,,,,,
433383,-0.9606176,8.8256,-3.747964,-0.053354,0.137196,-0.022866,161.1,-134.1,-20.1,,,,,,
433406,-0.6495833,8.950611,-3.4357333,0.091464,-0.099086,0.11432999,168.3,-136.5,-20.1,,,,,,
433426,-0.60890955,8.774757,-3.598428,-0.259148,0.091464,-0.030488,161.1,-134.1,-19.5,,,,,,
433446,-0.5801987,8.677858,-3.6953273,-0.07622,0.03811,0.129574,163.5,-131.70001,-17.1,,,,,,
433466,-0.48688838,8.739467,-3.710879,0.121952,0.0,0.16768399,161.1,-129.3,-19.5,,,,,,
433486,-0.4246815,9.014613,-3.6510646,0.30488,-0.022866,0.198172,165.90001,-126.9,-17.7,,,,,,
433526,-0.5957504,8.984706,-3.757534,-0.07622,0.144818,0.007622,170.70001,-131.70001,-17.7,,,,,,
433591,-0.6495833,9.056482,-3.5960355,-0.434454,0.442076,-0.46494198,163.5,-134.1,-20.7,,,,,,
433612,-0.64360183,8.938648,-3.4782014,-0.594516,0.68597996,-0.57164997,165.90001,-131.70001,-18.300001,,,,,,
433632,-0.71478087,8.726906,-3.3645542,-0.846042,1.013726,-0.503052,161.1,-131.70001,-19.5,,,,,,
433652,-0.70700496,8.627016,-3.3789096,-0.80030996,1.196654,-0.373478,165.90001,-134.1,-20.1,,,,,,
433675,-0.64240557,8.716738,-3.338834,-0.46494198,1.227142,-0.213416,165.90001,-134.1,-20.7,,,,,,
433695,-0.4163075,8.80287,-3.2580848,-0.243904,1.074702,-0.11432999,163.5,-136.5,-20.7,,,,,,
433717,-0.19678904,8.980518,-3.1354654,-0.083841994,1.059458,-0.129574,163.5,-129.3,-20.1,,,,,,
433737,-0.17166704,8.830983,-3.1575968,-0.213416,1.4024479,-0.388722,168.3,-136.5,-19.5,,,,,,
433778,-0.31522134,8.51935,-3.1462321,0.091464,1.6539739,-0.663114,161.1,-131.70001,-18.900002,,,,,,
433798,-0.5873764,8.772365,-3.33046,0.137196,1.692084,-0.67073596,158.70001,-136.5,-18.300001,,,,,,
433818,-0.9815526,8.811244,-3.4165926,0.16768399,1.48629,-0.853664,165.90001,-129.3,-18.900002,,x,,,,
433838,-1.4690391,9.107325,-3.422574,0.19055,1.1128119,-0.586894,165.90001,-129.3,-17.7,,x,,,,
433878,-3.4453034,10.335911,-3.3412266,-1.48629,-0.94512796,0.46494198,165.90001,-129.3,-18.900002,,x,,,,
433898,-3.8293114,9.769469,-3.0200238,-1.935988,-1.33385,0.45731997,163.5,-131.70001,-18.900002,,x,,,,
433940,-5.0901966,9.322657,-4.329957,-3.170752,-2.7286758,3.437522,163.5,-138.90001,-20.1,,x,,,,
433960,-4.329359,10.427426,-4.740283,-2.141782,-6.5244317,4.207344,156.3,-134.1,-21.900002,,x,,,,
433983,-2.8381884,9.752123,-4.1828136,-2.149404,-11.73788,4.87808,158.70001,-143.70001,-22.5,,x,,,,
434003,-2.1437445,8.8919935,-3.9692767,-1.3795819,-14.093078,5.175338,151.5,-138.90001,-26.1,,x,,,,
434024,-1.2249968,7.8841224,-3.3705356,-0.182928,-16.303457,5.5488157,156.3,-146.1,-24.900002,,x,,,,
434044,-0.7692119,7.6873336,-2.5875664,0.548784,-17.728771,5.701256,144.3,-146.1,-26.7,,x,,,,
434064,-0.9235327,6.434822,-2.5193782,0.94512796,-17.622063,4.5427117,149.1,-150.90001,-27.300001,,x,,,,
434084,-1.0611056,5.4556623,-2.4918637,2.47715,-18.460484,4.176856,144.3,-150.90001,-29.7,,x,,,,
434104,-0.6723127,4.9304924,-1.9631052,4.169234,-19.199818,4.519846,144.3,-143.70001,-29.7,,x,,,,
434125,0.28052905,5.4610453,-1.489376,4.824726,-18.818718,5.198204,141.90001,-150.90001,-29.7,,x,,,,
434145,1.3248867,5.777463,-1.2178191,4.474114,-16.494007,5.480218,134.70001,-153.3,-28.500002,,x,,,,
434165,1.3368496,4.33534,-1.7124833,2.926848,-12.484836,4.30643,134.70001,-153.3,-30.300001,,x,,,,
434185,2.2197087,5.045934,-3.2748327,4.489358,-8.46042,5.990892,127.50001,-155.70001,-29.7,,x,,,,
434205,2.4529843,8.689821,-4.9322867,5.251558,-4.679908,7.3628516,122.700005,-150.90001,-29.1,,x,,,,
434229,2.8375902,12.108807,-6.9217105,4.0777698,0.449698,6.4939437,110.700005,-165.3,-28.500002,,x,,,,
434249,3.2114296,13.544948,-8.906349,3.6814258,1.9131219,2.2789779,105.9,-160.5,-27.900002,,x,,,,
434269,3.033781,12.788297,-9.58883,1.958854,-0.426832,-0.72409,113.100006,-160.5,-27.300001,,x,,,,
434289,2.7592335,11.813324,-8.94463,0.754578,0.602138,-1.059458,110.700005,-155.70001,-26.7,,x,,,,
434313,2.950041,11.793585,-8.144913,0.480186,2.118916,-0.92988396,110.700005,-153.3,-25.500002,,x,,,,
434333,2.47691,11.320454,-7.1783137,-1.501534,4.80186,-2.408552,117.9,-158.1,-24.900002,,x,,,,
434354,1.8775707,10.276096,-6.9145327,-2.7362978,8.056454,-3.589962,113.100006,-158.1,-25.500002,,x,,,,
434374,1.0802462,9.128858,-6.475496,-3.7805119,9.390304,-4.45887,117.9,-153.3,-26.1,,x,,,,
434435,0.07177716,7.6006026,-4.824621,-4.024416,12.926911,-5.350644,125.100006,-155.70001,-24.900002,,x,,,,
434457,-0.46954224,6.677668,-4.7767696,-4.26832,13.102218,-5.617414,132.3,-153.3,-26.1,,x,,,,
434477,-0.8397927,5.732004,-4.3006477,-3.993928,12.23331,-4.87808,122.700005,-148.5,-27.300001,,x,,,,
434498,-0.55029154,6.2643514,-3.5481842,-2.949714,11.196718,-2.7820299,134.70001,-148.5,-26.1,,x,,,,
434519,-0.65377027,6.2822957,-3.3621616,-2.385686,10.274456,-3.2850819,141.90001,-155.70001,-24.300001,,x,,,,
434539,-0.5335435,5.996383,-2.8052905,-1.547266,8.597616,-3.62045,132.3,-148.5,-24.300001,,x,,,,
434561,-0.29488447,6.3678303,-2.0809393,-1.044214,7.6524878,-3.4299,137.1,-143.70001,-24.900002,,x,,,,
434582,-0.6585554,6.851728,-2.1263983,-1.006104,8.338468,-3.58234,141.90001,-148.5,-24.900002,,x,,,,
434645,-1.8105788,10.050596,-2.648577,-0.480186,6.905532,-3.948196,151.5,-141.3,-21.900002,,x,,,,
434685,-2.89561,8.696401,-2.3213928,-2.36282,5.83083,-8.178406,156.3,-138.90001,-23.1,,x,,,,
434730,-2.6754935,10.502194,-2.4254696,-0.23628199,3.117398,-2.614346,161.1,-143.70001,-21.900002,,x,,,,
434751,-3.2096353,9.670177,-3.1887002,-0.94512796,4.100636,-3.635694,165.90001,-129.3,-21.300001,,x,,,,
434793,-3.0744548,8.83517,-3.882546,0.57164997,1.166166,-1.1432999,163.5,-136.5,-20.1,,x,,,,
434814,-2.564837,8.847133,-3.710879,0.449698,0.106708,0.22865999,168.3,-136.5,-20.1,,x,,,,
434835,-1.9481517,8.768776,-3.5110993,0.068598,-0.541162,1.493912,165.90001,-136.5,-20.1,,x,,,,
434855,-0.8278299,9.0217905,-3.183317,-0.891774,-1.036592,2.065562,161.1,-136.5,-21.300001,,x,,,,
434875,-0.64659256,8.510977,-3.1270914,-1.303362,-0.853664,2.088428,161.1,-136.5,-20.7,,x,,,,
434895,-0.5861801,8.450563,-3.0846233,-1.3414719,-0.884152,2.164648,163.5,-136.5,-21.900002,,,,,,
434915,-0.40853164,8.79629,-3.040959,-1.006104,-0.91463995,2.2637339,156.3,-143.70001,-21.900002,,,,,,
434935,-0.19499461,9.088184,-2.9673872,-0.83842,-1.021348,1.692084,161.1,-141.3,-20.7,,,,,,
434958,-0.080151156,9.145606,-2.8172534,-0.60976,-0.69360197,0.594516,156.3,-138.90001,-22.5,,,,,,
434978,-0.0640013,9.326245,-2.890825,-0.33536798,-0.40396598,0.137196,156.3,-138.90001,-23.1,,,,,,
435022,-0.32359535,8.9242935,-3.1223063,-0.099086,0.106708,0.11432999,156.3,-136.5,-21.900002,,,,,,
435042,-0.4533924,8.847731,-3.1462321,0.060976,0.19055,0.22865999,144.3,-136.5,-21.900002,,,,,,
435063,-0.4175038,8.911732,-3.2072427,-0.03811,0.259148,0.41921,156.3,-138.90001,-21.900002,,,,,,
435083,-0.29548264,8.871656,-3.2263832,-0.221038,0.320124,0.480186,151.5,-143.70001,-21.300001,,,,,,
435103,-0.18901318,8.758009,-3.1851113,-0.26677,0.30488,0.510674,149.1,-136.5,-23.1,,,,,,
435124,-0.08972145,8.868666,-3.184513,-0.213416,0.388722,0.56402797,158.70001,-138.90001,-21.900002,,,,,,
435144,0.046655152,9.16355,-3.2204018,-0.121952,0.53354,0.426832,153.90001,-141.3,-21.900002,,,,,,
435164,-0.117236026,8.8919935,-3.2664587,-0.30488,0.69360197,0.022866,149.1,-138.90001,-21.300001,,,,,,
435204,-0.2924919,8.957191,-3.2945714,-0.28201398,0.442076,0.243904,151.5,-141.3,-20.7,,,,,,
435410,0.01016843,8.939247,-3.0953898,-0.045732,0.434454,-0.053354,149.1,-146.1,-21.900002,,,,,,
435450,0.12022674,8.722121,-2.996098,-0.022866,0.297258,-0.198172,146.70001,-143.70001,-21.900002,,,,,,
435471,0.18901318,8.799879,-2.765215,-0.11432999,0.518296,-0.26677,146.70001,-141.3,-21.300001,,,,,,
435511,-0.15133017,8.787318,-2.903984,-0.213416,1.280496,-0.91463995,149.1,-138.90001,-21.300001,,,,,,
435531,-0.593956,8.749037,-3.0654826,0.030488,1.1356779,-0.81555396,149.1,-141.3,-23.1,,,,,,
435553,-1.0132542,9.571484,-2.949443,0.41158798,0.480186,-0.434454,149.1,-138.90001,-23.7,,,,,,
435573,-2.1784368,9.700085,-2.765215,-0.35061198,0.34298998,-0.56402797,151.5,-136.5,-21.300001,,x,,,,
435595,-3.2395422,10.669674,-2.8094776,-1.097568,0.17530599,-0.365856,146.70001,-143.70001,-21.900002,,x,,,,
435615,-4.4459968,10.469894,-3.920229,-1.966476,0.53354,-0.70122397,151.5,-136.5,-21.300001,,x,,,,
435635,-5.032177,10.335911,-4.785144,-1.48629,-2.507638,1.1204339,153.90001,-143.70001,-23.7,,x,,,,
435658,-4.9562125,9.459631,-4.471119,-1.189032,-6.333882,2.926848,156.3,-141.3,-21.900002,,x,,,,
435679,-4.079335,9.578063,-4.0679703,-1.227142,-9.6418295,5.274424,151.5,-143.70001,-23.1,,x,,,,
435699,-2.3369446,9.959081,-3.5278473,-1.1051899,-12.218065,6.036624,144.3,-148.5,-24.300001,,x,,,,
435740,-0.6890607,6.368428,-2.8459642,0.868908,-15.213511,5.670768,144.3,-146.1,-25.500002,,x,,,,
435760,0.25002375,6.1519003,-2.1826236,2.7362978,-17.240963,7.667732,137.1,-158.1,-27.300001,,x,,,,
435780,0.44142953,6.630415,-1.3153164,2.7896519,-16.440653,6.806446,129.90001,-155.70001,-26.1,,x,,,,
435801,0.6501814,6.602302,-1.2704557,2.911604,-15.251621,5.129606,120.3,-155.70001,-29.7,,x,,,,
435821,0.51559925,5.5005226,-1.3619715,2.827762,-14.032102,3.3155699,115.50001,-155.70001,-26.7,,x,,,,
435841,0.71896785,4.5506716,-2.058808,3.147886,-12.301908,3.025934,120.3,-158.1,-28.500002,,x,,,,
435861,1.5641439,5.7954073,-3.1498208,3.2927039,-11.318669,4.5122237,110.700005,-155.70001,-26.7,,x,,,,
435881,1.995405,6.531721,-3.6761868,1.6006199,-9.87049,3.8262439,110.700005,-158.1,-27.300001,,x,,,,
435901,2.7065969,8.192166,-4.999877,1.935988,-6.6311398,3.574718,113.100006,-155.70001,-29.7,,x,,,,
435922,2.6946342,10.380772,-6.587947,2.157026,-3.6661818,3.12502,105.9,-160.5,-27.900002,,x,,,,
435942,2.7759814,12.645341,-8.232242,1.783548,-2.6677,2.012208,105.9,-158.1,-28.500002,,x,,,,
435964,2.811272,12.345073,-8.402114,1.272874,-3.2164838,-0.19055,105.9,-162.90001,-27.900002,,x,,,,
435984,2.8262255,12.349858,-8.359646,1.432936,-1.455802,-0.221038,105.9,-160.5,-27.900002,,x,,,,
436006,2.8974047,12.803848,-8.695803,1.33385,0.82317597,-0.259148,108.3,-153.3,-27.300001,,x,,,,
436026,3.0032759,12.997048,-8.021695,0.297258,2.347576,-1.18141,108.3,-155.70001,-27.300001,,x,,,,
436048,2.401544,11.896465,-7.2429132,-1.951232,5.5030837,-2.614346,108.3,-153.3,-27.300001,,x,,,,
436068,1.5198812,10.5440645,-6.9641786,-3.6890478,8.010722,-3.003068,110.700005,-160.5,-26.1,,x,,,,
436108,0.028112719,7.443291,-4.969372,-3.932952,9.03207,-3.6585598,110.700005,-158.1,-28.500002,,x,,,,
436169,0.08852516,6.004159,-3.0726604,-3.407034,13.826307,-5.091496,120.3,-155.70001,-27.300001,,x,,,,
436189,0.2781365,6.3325396,-2.8148608,-2.111294,13.483317,-4.64942,127.50001,-158.1,-27.900002,,x,,,,
436209,0.2045649,5.899484,-2.5570612,-1.471046,13.056486,-5.114362,132.3,-155.70001,-26.7,,x,,,,
436269,-0.21533147,6.104049,-2.568426,0.960372,9.878112,-5.5030837,139.5,-150.90001,-24.300001,,x,,,,
436290,0.023327576,8.051602,-2.3148134,1.478668,7.8430376,-4.4055157,146.70001,-146.1,-23.1,,x,,,,
436312,-0.29189378,8.845338,-2.028303,0.243904,6.890288,-5.243936,141.90001,-143.70001,-23.1,,x,,,,
436352,-1.1992767,10.07512,-2.8328052,-0.655492,6.638762,-5.14485,149.1,-141.3,-20.7,,x,,,,
436375,-1.4720298,11.821099,-2.9380782,-1.29574,5.121984,-4.672286,153.90001,-141.3,-20.1,,x,,,,
436395,-3.383695,9.1838875,-3.125297,-1.493912,4.336918,-4.748506,151.5,-129.3,-21.900002,,x,,,,
436415,-3.443509,10.05598,-3.2407386,-1.3643379,3.894842,-3.39179,161.1,-143.70001,-21.300001,,x,,,,
436437,-3.8089745,10.566793,-3.5966337,-1.509156,3.643316,-3.064044,163.5,-138.90001,-21.300001,,x,,,,
436457,-4.041054,10.143907,-4.112831,-1.158544,3.2469718,-2.7972739,161.1,-136.5,-20.7,,x,,,,
436479,-3.5398102,9.0188,-3.9088643,-0.022866,1.3567159,-1.661596,173.1,-131.70001,-21.300001,,x,,,,
436499,-2.8268237,8.866872,-3.8598166,0.16768399,0.64787,-0.022866,168.3,-134.1,-21.300001,,x,,,,
436519,-2.24184,8.99607,-3.8759665,0.16768399,-0.053354,0.884152,168.3,-129.3,-20.7,,x,,,,
436539,-1.6981279,8.7089615,-3.8891256,-0.015244,-0.655492,1.318606,161.1,-129.3,-20.7,,x,,,,
436583,-0.5120104,9.470398,-3.258683,-0.327746,-1.8826339,1.707328,161.1,-136.5,-21.900002,,,,,,
436603,-0.25839776,8.808851,-2.765813,-1.189032,-1.570132,1.013726,158.70001,-136.5,-21.900002,,,,,,
436623,-0.12022674,8.541482,-2.6073053,-1.432936,-0.92988396,0.99086,161.1,-136.5,-21.900002,,,,,,
436643,-0.37922263,8.31658,-2.866301,-1.189032,-0.251526,0.792688,158.70001,-136.5,-20.7,,,,,,
436725,-0.17346147,8.568398,-2.7538502,-0.20579399,0.70122397,0.022866,158.70001,-138.90001,-21.900002,,,,,,
436774,-0.29428634,8.92848,-3.3842928,0.34298998,1.242386,0.221038,161.1,-143.70001,-21.300001,,,,,,
436794,-0.36725977,9.094764,-3.5505767,0.41158798,0.967994,-0.030488,153.90001,-138.90001,-20.1,,,,,,
436836,-0.41032606,8.913527,-3.777871,0.19055,0.20579399,0.144818,156.3,-138.90001,-22.5,,,,,,
436878,-0.14953575,9.293347,-3.6492703,-0.030488,0.182928,0.20579399,158.70001,-136.5,-19.5,,,,,,
436898,-0.10108616,8.950611,-3.5834746,-0.365856,0.57164997,-0.091464,151.5,-136.5,-21.300001,,,,,,
436961,-0.21652776,8.961976,-3.3460119,-0.45731997,0.72409,-0.17530599,158.70001,-136.5,-20.7,,,,,,
437008,-0.36068022,8.899171,-3.221,-0.503052,0.68597996,-0.663114,156.3,-141.3,-20.7,,,,,,
437029,-0.38520408,8.727504,-3.1707559,-0.41921,0.632626,-0.69360197,151.5,-136.5,-20.1,,,,,,
437070,-0.1531246,8.898573,-2.9655929,-0.46494198,0.731712,-0.34298998,158.70001,-138.90001,-20.7,,,,,,
437090,-0.33256748,8.653933,-3.2066445,-0.396344,0.861286,-0.251526,158.70001,-143.70001,-20.1,,,,,,
437110,-0.3409415,8.8058605,-3.1719522,-0.03811,0.480186,-0.03811,158.70001,-138.90001,-19.5,,,,,,
437130,-0.29966962,8.649147,-3.0517254,0.198172,0.23628199,-0.198172,158.70001,-141.3,-18.900002,,,,,,
437150,-0.3774282,8.724513,-3.0283978,0.19055,0.243904,-0.16768399,156.3,-131.70001,-21.300001,,,,,,
437170,-0.8852516,8.902162,-3.1683633,0.23628199,0.30488,-0.289636,146.70001,-146.1,-20.1,,,,,,
437190,-1.7388016,9.609765,-3.1701577,0.625004,-0.259148,0.0,153.90001,-141.3,-17.7,,,,,,
437212,-2.5546687,9.51466,-2.677288,-0.060976,-1.074702,-0.259148,151.5,-141.3,-18.300001,,,,,,
437233,-3.3585727,9.515857,-2.4505918,-0.785066,-1.166166,0.55640596,156.3,-141.3,-19.5,,,,,,
437253,-4.768396,10.858089,-2.7843556,-1.730194,-1.6463519,1.3795819,149.1,-136.5,-20.7,,,,,,
437273,-5.1649647,10.770163,-2.987724,-1.9131219,-2.149404,1.425314,153.90001,-138.90001,-20.1,,x,,,,
437294,-5.270836,9.756908,-3.7336085,-1.745438,-4.657042,2.073184,156.3,-138.90001,-21.300001,,x,,,,
437314,-4.601514,8.990088,-4.1146255,-0.60976,-6.5244317,3.2241058,153.90001,-141.3,-23.1,,x,,,,
437334,-3.3944614,8.880629,-4.852734,0.830798,-8.628104,4.83997,151.5,-138.90001,-23.1,,x,,,,
437354,-2.3913755,8.961976,-4.5123906,1.56251,-11.379645,5.4421077,141.90001,-143.70001,-23.7,,x,,,,
437374,-0.9797582,8.741859,-4.740283,1.547266,-12.583921,5.25918,149.1,-150.90001,-23.7,,x,,,,
437395,-0.061010584,7.2488947,-4.4065194,1.768304,-14.230273,4.5274677,141.90001,-148.5,-25.500002,,x,,,,
437415,0.9181495,5.96528,-4.039858,2.157026,-15.47266,5.0533857,141.90001,-153.3,-24.300001,,x,,,,
437435,1.326083,5.3659406,-3.3190954,2.660078,-16.090042,5.929916,134.70001,-148.5,-26.7,,x,,,,
437498,1.9983957,5.103954,-1.8159621,2.05794,-13.651002,4.5579557,127.50001,-150.90001,-26.7,,x,,,,
437520,2.3913755,4.693628,-1.6622393,2.2408679,-12.027515,4.794238,125.100006,-146.1,-26.7,,x,,,,
437560,2.6114922,7.396636,-2.861516,3.338436,-7.187546,5.0076537,113.100006,-162.90001,-28.500002,,x,,,,
437614,2.413507,13.099929,-8.696401,2.05794,0.80030996,1.288118,110.700005,-160.5,-27.300001,,x,,,,
437634,2.3028505,13.0126,-9.542175,1.6082419,0.442076,0.19055,108.3,-158.1,-26.7,,x,,,,
437674,3.212626,13.0496855,-8.356655,-0.099086,-0.259148,-0.518296,103.50001,-160.5,-26.1,,x,,,,
437697,3.7120752,12.824783,-7.3410087,-2.05794,2.179892,-1.8292799,108.3,-158.1,-24.300001,,x,,,,
437717,2.1473334,9.922594,-6.2452106,-4.862836,7.16468,-3.84911,108.3,-158.1,-26.7,,x,,,,
437737,1.5300497,9.15398,-5.973654,-5.0991178,8.147918,-3.940574,113.100006,-165.3,-26.1,,x,,,,
437759,0.5658432,7.8207192,-5.25648,-4.5579557,8.635726,-4.169234,113.100006,-160.5,-27.300001,,x,,,,
437780,0.20635933,6.8325872,-4.2282724,-4.161612,9.03207,-3.948196,122.700005,-162.90001,-27.300001,,x,,,,
437800,0.022729432,6.124386,-3.6833644,-3.7119138,9.79427,-3.559474,115.50001,-160.5,-26.1,,x,,,,
437820,0.36068022,6.0938807,-3.0140424,-3.033556,10.068662,-3.140264,120.3,-158.1,-25.500002,,x,,,,
437840,0.6304427,6.3325396,-2.5486872,-2.431418,10.701288,-3.384168,120.3,-150.90001,-27.900002,,x,,,,
437860,0.60651696,5.8582125,-2.4464047,-2.027452,11.150986,-4.390272,125.100006,-155.70001,-27.900002,,x,,,,
437883,0.56464696,5.5118876,-2.096491,-0.55640596,10.59458,-4.367406,122.700005,-150.90001,-26.7,,x,,,,
437903,0.6471907,6.665705,-1.8524488,0.068598,10.40403,-4.23021,127.50001,-153.3,-24.300001,,x,,,,
437943,-0.17346147,7.467815,-2.4284604,-0.099086,9.618964,-5.9985137,132.3,-143.70001,-23.7,,x,,,,
438030,-2.643792,9.581054,-3.7976098,-0.785066,6.0137577,-5.785098,156.3,-143.70001,-21.300001,,x,,,,
438050,-2.564837,11.510663,-4.3431163,-0.632626,5.686012,-4.275942,151.5,-141.3,-20.7,,x,,,,
438090,-3.5996244,9.391443,-4.111037,0.26677,2.7972739,-3.58234,163.5,-134.1,-18.900002,,x,,,,
438110,-3.0571086,10.331125,-3.3860874,0.26677,1.974098,-2.2256238,156.3,-134.1,-23.1,,x,,,,
438130,-3.0720623,9.476379,-3.5966337,-1.303362,2.507638,-2.004586,163.5,-134.1,-20.7,,x,,,,
438150,-2.920732,8.660512,-3.8634055,-1.204276,1.67684,-0.87653,153.90001,-136.5,-19.5,,,,,,
438170,-2.3734312,8.223269,-3.618167,-0.777444,0.221038,0.53354,165.90001,-136.5,-20.1,,,,,,
438190,-1.4875816,8.650344,-3.2072427,-0.640248,-0.785066,1.8826339,158.70001,-134.1,-21.900002,,,,,,
438214,-0.6388167,8.717934,-2.8543382,-0.960372,-0.99086,2.088428,158.70001,-138.90001,-21.300001,,,,,,
438234,0.052636582,8.398525,-2.513995,-1.150922,-0.94512796,2.012208,168.3,-141.3,-19.5,,,,,,
438254,0.31701577,8.261551,-2.3614686,-0.93750596,-0.57164997,1.8826339,158.70001,-138.90001,-20.7,,,,,,
438274,0.38998923,8.512771,-2.5827813,-0.594516,-0.16768399,1.684462,156.3,-141.3,-20.7,,,,,,
438298,0.3002678,9.032557,-2.7323172,0.07622,-0.07622,0.81555396,158.70001,-136.5,-20.1,,,,,,
438319,-0.01614986,8.93805,-2.8124683,0.182928,0.060976,0.045732,151.5,-138.90001,-18.900002,,,,,,
438339,-0.29966962,9.088184,-3.1719522,0.07622,0.30488,-0.312502,153.90001,-143.70001,-19.5,,,,,,
438359,-0.57840425,9.033155,-3.3466098,0.16768399,0.03811,-0.525918,158.70001,-136.5,-19.5,,,,,,
438379,-0.6382185,9.225758,-3.5075104,0.129574,-0.20579399,-0.33536798,151.5,-129.3,-22.5,,,,,,
438399,-0.8206521,9.023585,-3.6678126,-0.007622,-0.40396598,-0.015244,156.3,-141.3,-20.7,,,,,,
438419,-0.5694321,9.214991,-3.59783,0.030488,-0.792688,0.358234,151.5,-138.90001,-21.300001,,,,,,
438441,-0.44621465,8.947022,-3.5828764,-0.3811,-0.655492,0.34298998,156.3,-141.3,-19.5,,,,,,
438461,-0.3397452,8.808253,-3.6044095,-0.243904,-0.632626,0.45731997,153.90001,-138.90001,-20.7,,,,,,
438481,-0.25660333,8.811244,-3.523062,0.0,-0.548784,0.56402797,151.5,-136.5,-22.5,,,,,,
438501,-0.21413518,9.30232,-3.6516628,-0.007622,-0.41921,0.769822,153.90001,-136.5,-21.300001,,,,,,
438523,-0.25839776,8.953602,-3.6169705,-0.213416,-0.358234,0.28201398,149.1,-138.90001,-20.1,,,,,,
438544,-0.112450875,8.973341,-3.5404081,-0.26677,-0.327746,0.327746,149.1,-136.5,-19.5,,,,,,
438565,0.016748004,9.071436,-3.4028354,-0.35061198,-0.11432999,0.17530599,149.1,-146.1,-21.300001,,,,,,
438585,0.117236026,9.004444,-3.271842,-0.731712,0.320124,-0.182928,153.90001,-134.1,-21.300001,,,,,,
438605,0.08792701,8.979322,-3.1432414,-0.716468,0.739334,-0.449698,153.90001,-136.5,-21.300001,,,,,,
438625,0.0029907147,8.791506,-3.1187174,-0.67073596,0.960372,-0.754578,156.3,-138.90001,-20.7,,,,,,
438645,-0.093908444,8.878835,-3.0600994,-0.47256398,1.18141,-0.746956,146.70001,-138.90001,-20.1,,,,,,
438665,-0.08254373,8.938648,-3.0822308,-0.510674,1.242386,-0.785066,153.90001,-138.90001,-20.7,,,,,,
438685,-0.09869359,8.833974,-3.0983806,-0.45731997,1.250008,-0.94512796,153.90001,-136.5,-21.300001,,,,,,
438746,-0.19858347,9.006239,-3.1187174,-0.030488,0.94512796,-0.884152,158.70001,-138.90001,-20.7,,,,,,
438811,-0.39597064,8.1150055,-3.1396525,-0.243904,1.707328,-1.71495,161.1,-138.90001,-20.1,,x,,,,
438831,-1.2878019,8.215494,-3.9776506,0.106708,1.189032,-1.1280559,161.1,-136.5,-20.7,,x,,,,
438851,-0.9576269,9.214991,-3.9477437,0.57164997,-1.509156,-0.137196,158.70001,-136.5,-19.5,,x,,,,
438871,-0.9660009,8.874049,-2.8280199,-0.579272,-3.2469718,-0.53354,168.3,-134.1,-20.7,,x,,,,
438894,-1.4917686,9.381872,-3.2168128,-1.440558,-2.538126,0.106708,158.70001,-131.70001,-21.900002,,x,,,,
438914,-2.1730535,10.377182,-3.380106,-1.471046,-3.2469718,0.068598,158.70001,-136.5,-20.1,,x,,,,
438934,-2.9314988,10.02368,-2.5791924,-1.814036,-4.428382,-0.434454,158.70001,-138.90001,-21.900002,,x,,,,
438954,-3.4237704,9.735375,-2.5086117,-1.94361,-4.298808,0.0,168.3,-138.90001,-23.1,,x,,,,
438974,-4.122401,10.253965,-2.86989,-1.41007,-4.61131,1.821658,165.90001,-143.70001,-22.5,,x,,,,
438998,-4.801294,10.044615,-3.1534097,0.0,-6.74547,3.1859958,158.70001,-143.70001,-24.900002,,x,,,,
439018,-4.2133193,9.729394,-3.3819003,1.158544,-8.734812,4.9543,158.70001,-138.90001,-23.1,,x,,,,
439038,-3.5637357,9.587634,-3.2730384,1.8826339,-10.297321,5.9070497,151.5,-148.5,-26.1,,x,,,,
439059,-2.798711,9.236524,-3.078642,1.8750119,-11.372024,5.823208,149.1,-146.1,-24.900002,,x,,,,
439079,-2.477508,7.7381754,-3.058305,1.044214,-11.753123,4.68753,141.90001,-143.70001,-25.500002,,x,,,,
439101,-2.012153,6.8056707,-3.1743448,0.777444,-12.530568,4.0625257,146.70001,-148.5,-27.300001,,x,,,,
439121,-2.104865,5.581272,-3.7294214,0.632626,-13.330877,3.338436,146.70001,-146.1,-27.300001,,x,,,,
439141,-1.9756663,3.844863,-4.473511,0.754578,-14.8629,3.109776,144.3,-148.5,-27.900002,,x,,,,
439161,0.049645867,3.5864654,-4.9251094,3.064044,-17.347672,6.036624,141.90001,-150.90001,-29.7,,x,,,,
439181,2.8585253,6.3696246,-2.987126,2.903982,-19.032133,9.001582,134.70001,-153.3,-29.7,,x,,,,
439223,4.35807,8.100052,-3.0720623,3.58234,-11.417756,7.667732,115.50001,-158.1,-27.300001,,x,,,,
439283,3.049931,11.071627,-6.3026323,4.207344,2.7362978,3.856732,103.50001,-153.3,-28.500002,,x,,,,
439303,3.2186074,13.506666,-8.686233,3.940574,7.690598,4.100636,101.100006,-165.3,-28.500002,,x,,,,
439325,3.4787996,14.293822,-10.134934,2.621968,6.471078,0.548784,101.100006,-155.70001,-26.7,,x,,,,
439345,2.6760917,12.438383,-8.188578,0.35061198,1.775926,-3.597584,96.3,-160.5,-28.500002,,x,,,,
439365,2.6198661,11.280378,-6.199752,-2.2027578,5.327778,-4.618932,101.100006,-158.1,-25.500002,,x,,,,
439386,2.1748478,9.8962755,-6.3959427,-4.0015497,10.6936655,-5.205826,105.9,-160.5,-27.300001,,x,,,,
439406,1.0407687,8.5360985,-5.6512547,-4.15399,11.433,-5.076252,108.3,-153.3,-26.7,,x,,,,
439469,-0.9366919,6.4910474,-3.8358908,-2.545748,11.433,-6.394858,117.9,-158.1,-26.1,,x,,,,
439489,-0.96659905,5.6410866,-3.1863077,-1.67684,10.25159,-6.242418,127.50001,-153.3,-25.500002,,x,,,,
439509,-0.48389766,5.586057,-2.4368346,-0.907018,9.916222,-5.343022,125.100006,-153.3,-26.1,,x,,,,
439532,0.2853142,6.230257,-2.3363464,-0.442076,11.463488,-5.160094,132.3,-150.90001,-24.900002,,x,,,,
439613,-1.1735566,6.698603,-3.2168128,-1.318606,13.064108,-6.547298,141.90001,-148.5,-21.900002,,x,,,,
439649,-2.1269965,7.6448655,-3.9567158,-0.426832,10.655556,-5.571682,144.3,-148.5,-20.7,,x,,,,
439669,-2.1515203,9.44707,-4.374818,0.33536798,7.85066,-3.2393498,151.5,-141.3,-18.900002,,x,,,,
439709,-1.8680005,10.821005,-3.7007105,-0.259148,3.8262439,-3.567096,156.3,-134.1,-18.900002,,x,,,,
439729,-1.8147658,11.335407,-3.6767848,-0.068598,2.370442,-3.2393498,156.3,-134.1,-18.900002,,x,,,,
439769,-2.4930599,9.980614,-3.8257225,-0.015244,1.326228,-3.88722,161.1,-131.70001,-17.7,,x,,,,
439790,-2.6037164,9.52124,-3.9190328,-0.19055,0.830798,-3.003068,170.70001,-126.9,-20.7,,x,,,,
439811,-2.4075255,9.142615,-3.8508444,-0.503052,0.213416,-1.516778,170.70001,-134.1,-20.7,,x,,,,
439831,-2.1090522,8.829188,-3.8424704,-1.013726,-0.15244,0.03811,168.3,-129.3,-20.1,,x,,,,
439851,-1.5928547,8.462526,-3.5529692,-0.891774,-0.72409,1.196654,163.5,-131.70001,-19.5,,x,,,,
439871,-0.9486548,8.468508,-3.1791298,-0.663114,-1.02897,1.8369019,168.3,-134.1,-20.1,,x,,,,
439891,-0.6029281,8.138333,-3.0313885,-0.57164997,-0.861286,1.958854,161.1,-136.5,-18.900002,,,,,,
439914,-0.3505118,7.986405,-3.054716,-0.17530599,-0.884152,2.2256238,158.70001,-129.3,-19.5,,,,,,
439934,-0.13936731,8.193362,-3.041557,0.312502,-0.998482,2.370442,161.1,-136.5,-20.1,,,,,,
439954,0.008374002,9.0977545,-3.2138221,0.525918,-0.92988396,2.469528,158.70001,-136.5,-18.900002,,,,,,
440016,-0.049645867,8.706569,-3.2640662,-0.56402797,0.083841994,0.091464,158.70001,-138.90001,-20.7,,,,,,
440036,-0.1824336,8.668288,-3.3029454,-0.274392,0.106708,0.259148,153.90001,-138.90001,-19.5,,,,,,
440056,0.055627298,9.122876,-3.167167,-0.091464,0.221038,0.35061198,156.3,-138.90001,-19.5,,,,,,
440078,0.07058087,9.1797,-3.1898966,-0.49543,0.731712,-0.365856,153.90001,-136.5,-20.1,,,,,,
440099,-0.12561002,8.631802,-3.2497108,-0.625004,0.853664,-0.548784,156.3,-134.1,-18.900002,,,,,,
440120,-0.2853142,8.556436,-3.2993567,-0.358234,0.853664,-0.17530599,156.3,-141.3,-20.7,,,,,,
440140,-0.28052905,8.759206,-3.4333405,-0.16768399,0.67073596,-0.17530599,151.5,-138.90001,-18.900002,,,,,,
440160,-0.1321896,8.829188,-3.443509,0.03811,0.655492,-0.137196,156.3,-136.5,-20.1,,,,,,
440180,-0.3134269,9.009828,-3.635513,-0.03811,0.853664,-0.320124,153.90001,-138.90001,-19.5,,,,,,
440200,-0.5652451,9.093568,-3.8634055,-0.060976,0.81555396,-0.41921,156.3,-138.90001,-18.300001,,,,,,
440222,-0.73272514,8.827992,-3.9184346,-0.11432999,0.34298998,-0.602138,153.90001,-138.90001,-19.5,,,,,,
440242,-0.57840425,9.002051,-3.7892358,-0.045732,-0.068598,-0.449698,156.3,-136.5,-18.900002,,,,,,
440264,-0.47133666,9.252075,-3.6719997,-0.274392,-0.030488,-0.487808,163.5,-138.90001,-17.7,,,,,,
440304,-0.7201641,9.439893,-3.8000023,-1.051836,0.69360197,-0.46494198,158.70001,-138.90001,-19.5,,,,,,
440324,-0.7554546,9.314282,-3.740188,-1.6006199,0.93750596,-0.861286,156.3,-129.3,-18.900002,,,,,,
440366,-0.49047723,8.566006,-3.3759189,-1.71495,0.777444,-0.41921,156.3,-131.70001,-19.5,,,,,,
440386,-0.34991363,8.548659,-3.1354654,-1.417692,0.594516,0.259148,156.3,-131.70001,-20.7,,,,,,
440406,-0.049047723,8.596511,-2.7538502,-1.006104,0.365856,0.320124,151.5,-138.90001,-18.300001,,,,,,
440427,0.32419348,8.629409,-2.2573917,-0.434454,0.746956,-0.091464,149.1,-141.3,-18.900002,,,,,,
440492,-0.25122005,8.629409,-2.5289485,0.30488,1.5244,-0.594516,151.5,-131.70001,-20.1,,,,,,
440513,-1.0096654,8.724513,-2.551678,0.373478,1.48629,-0.663114,153.90001,-136.5,-18.900002,,,,,,
440533,-1.8189528,9.578662,-3.1031656,0.137196,1.3872039,-0.45731997,156.3,-136.5,-18.900002,,,,,,
440553,-3.30474,10.032054,-3.576895,-0.82317597,0.67835796,-1.082324,156.3,-131.70001,-18.900002,,,,,,
440573,-3.6989162,9.717431,-3.6414945,-1.44818,0.41921,-1.3567159,158.70001,-129.3,-18.300001,,,,,,
440594,-4.3784065,9.531408,-4.376612,-2.317088,0.16768399,-0.81555396,153.90001,-134.1,-19.5,,x,,,,
440614,-5.087206,9.2377205,-5.2816024,-2.652456,-0.68597996,-0.144818,158.70001,-131.70001,-18.900002,,x,,,,
440634,-4.895202,9.655224,-6.105245,-1.783548,-3.376546,1.455802,153.90001,-138.90001,-21.300001,,x,,,,
440656,-3.4375277,9.572082,-5.602805,-1.3872039,-9.664696,3.643316,156.3,-136.5,-20.7,,x,,,,
440676,-2.673101,8.656325,-4.933483,-1.25763,-12.408616,4.504602,161.1,-138.90001,-23.1,,x,,,,
440696,-1.351205,8.430825,-4.5931396,-0.274392,-14.923876,5.83083,149.1,-136.5,-25.500002,,x,,,,
440716,-0.3588858,8.174222,-3.6516628,0.480186,-16.95895,6.295772,153.90001,-146.1,-25.500002,,x,,,,
440736,0.17465775,7.4379077,-3.125297,0.907018,-17.431513,6.17382,141.90001,-146.1,-26.1,,x,,,,
440756,0.46116823,7.074237,-2.5486872,1.6006199,-18.239445,6.189064,141.90001,-150.90001,-27.300001,,x,,,,
440819,2.0797431,5.5328226,-1.3464198,2.36282,-16.288214,6.4024796,132.3,-153.3,-28.500002,,x,,,,
440991,3.6331203,13.448647,-8.720924,-0.068598,2.09605,-2.347576,101.100006,-165.3,-26.7,,x,,,,
441206,-0.35230622,7.038348,-2.2442324,-0.82317597,9.7028055,-4.123502,129.90001,-148.5,-25.500002,,x,,,,
441229,-0.8015116,6.567012,-2.4721248,-0.83842,9.733294,-4.53509,132.3,-150.90001,-26.1,,x,,,,
441271,-1.4941611,5.935373,-2.6790824,-0.198172,7.957368,-4.214966,139.5,-150.90001,-24.900002,,x,,,,
441291,-1.355392,7.5868454,-3.0463421,0.731712,6.9588857,-2.32471,134.70001,-150.90001,-25.500002,,x,,,,
441313,-2.4105163,9.687524,-4.21631,0.45731997,5.83083,-1.3948259,144.3,-146.1,-24.900002,,x,,,,
441333,-0.23028505,13.13821,-4.1989636,0.907018,2.7972739,0.160062,137.1,-143.70001,-23.7,,x,,,,
441353,-0.70042545,11.551935,-2.213129,-0.312502,1.3948259,-4.176856,146.70001,-143.70001,-24.300001,,x,,,,
441373,-2.4464047,7.6382856,-3.1426432,-1.02897,4.4969797,-5.000032,151.5,-143.70001,-23.7,,x,,,,
441393,-1.9068798,11.633283,-3.4608552,0.777444,2.7820299,-1.021348,146.70001,-148.5,-24.300001,,,,,,
441414,-2.5175838,12.913907,-3.6462796,-0.144818,3.536608,-3.513742,151.5,-138.90001,-23.7,,,,,,
441435,-3.4482942,10.637973,-4.5177736,-0.716468,3.338436,-5.5335717,153.90001,-141.3,-23.1,,,,,,
441455,-2.865105,9.058277,-4.1899915,0.34298998,1.41007,-3.7957559,156.3,-136.5,-22.5,,,,,,
441479,-2.1808293,8.866872,-3.4255648,-0.274392,0.830798,-0.67835796,156.3,-138.90001,-23.1,,,,,,
441500,-1.2961758,9.133045,-3.422574,-1.044214,1.021348,1.166166,156.3,-131.70001,-23.1,,,,,,
441520,-0.656761,8.533108,-3.012248,-0.899396,0.503052,1.303362,156.3,-136.5,-21.300001,,,,,,
441540,-0.16448931,8.513369,-2.6934378,-0.655492,0.213416,1.280496,158.70001,-138.90001,-21.900002,,,,,,
441560,-0.14116174,7.978031,-2.5086117,-0.72409,0.099086,0.442076,151.5,-136.5,-19.5,,,,,,
441580,-0.093908444,8.248391,-2.3818054,-0.396344,0.053354,0.594516,153.90001,-146.1,-22.5,,,,,,
441620,-0.08194559,9.298731,-3.016435,0.160062,-0.3811,0.388722,151.5,-141.3,-22.5,,,,,,
441640,-0.08314187,9.074427,-2.9356856,-0.015244,-0.67073596,-0.15244,161.1,-146.1,-21.900002,,,,,,
441660,0.11484345,9.444677,-2.9135544,0.045732,-0.56402797,0.221038,151.5,-138.90001,-21.300001,,,,,,
441683,-0.13996546,8.749037,-2.9560225,-0.541162,-0.121952,-0.068598,153.90001,-138.90001,-22.5,,,,,,
441703,-0.22729433,8.739467,-3.0774455,-0.35061198,-0.022866,0.34298998,153.90001,-143.70001,-22.5,,,,,,
441723,-0.30146405,8.804665,-3.2263832,-0.07622,-0.091464,0.213416,151.5,-141.3,-21.300001,,,,,,
441743,-0.40314835,8.823207,-3.363358,0.160062,-0.320124,0.007622,156.3,-146.1,-23.1,,,,,,
441763,-0.5090197,8.753822,-3.30474,0.434454,-0.45731997,-0.15244,149.1,-141.3,-21.900002,,,,,,
441783,-0.5490953,8.606081,-3.4297519,0.060976,-0.23628199,-0.053354,153.90001,-143.70001,-22.5,,,,,,
441806,-0.27454764,8.717336,-3.3699374,-0.045732,-0.15244,0.396344,153.90001,-138.90001,-21.900002,,,,,,
441826,-0.28710863,9.067847,-3.409415,-0.053354,0.11432999,0.655492,151.5,-146.1,-24.300001,,,,,,
441846,-0.43903694,9.297534,-3.5691192,0.20579399,0.083841994,0.40396598,149.1,-138.90001,-21.300001,,,,,,
441866,-0.46535522,9.337011,-3.5206695,0.373478,-0.137196,0.099086,153.90001,-138.90001,-20.7,,,,,,
441886,-0.5586655,9.12826,-3.4793978,0.099086,-0.213416,-0.11432999,149.1,-141.3,-21.300001,,,,,,
441906,-0.6453963,9.033155,-3.3448155,-0.099086,-0.30488,-0.198172,149.1,-141.3,-20.7,,,,,,
441928,-0.68547183,8.856105,-3.238346,-0.70122397,0.015244,-0.442076,156.3,-141.3,-21.900002,,,,,,
441948,-0.6513777,9.090577,-3.3819003,-0.792688,0.16768399,-0.388722,153.90001,-143.70001,-21.300001,,,,,,
441972,-0.81467074,8.509182,-3.426163,-0.792688,0.182928,-0.34298998,149.1,-138.90001,-23.1,,,,,,
441992,-0.5126085,8.621035,-3.137858,-0.632626,0.17530599,0.160062,153.90001,-136.5,-22.5,,,,,,
442014,-0.28351977,8.874049,-3.1121378,-0.47256398,0.72409,0.23628199,146.70001,-143.70001,-23.7,,,,,,
442034,-0.42228892,8.745448,-3.3418248,-0.121952,1.006104,-0.160062,149.1,-143.70001,-21.300001,,x,,,,
442054,-0.35948393,8.898573,-3.3657506,0.121952,0.830798,-0.060976,149.1,-141.3,-23.1,,x,,,,
442074,-0.26796806,8.985304,-3.309525,-0.11432999,0.67835796,-0.137196,146.70001,-146.1,-24.300001,,x,,,,
442094,-0.27335134,9.076819,-3.4130037,-0.15244,0.708846,-0.20579399,146.70001,-138.90001,-23.1,,x,,,,
442114,-0.28770676,9.085792,-3.5314362,-0.03811,0.586894,-0.449698,149.1,-138.90001,-21.900002,,x,,,,
442134,-0.32419348,8.990687,-3.539212,0.007622,0.373478,-0.53354,144.3,-136.5,-21.300001,,x,,,,
442155,-0.3505118,8.753224,-3.4740143,-0.083841994,0.320124,-0.373478,149.1,-141.3,-23.7,,x,,,,
442178,-0.15432088,8.725112,-3.2365515,-0.28201398,0.327746,0.015244,158.70001,-143.70001,-21.300001,,x,,,,
442198,0.04844958,8.842347,-3.017033,-0.289636,0.602138,0.11432999,153.90001,-136.5,-23.1,,x,,,,
442218,-0.073571585,8.910536,-3.05352,-0.251526,0.967994,0.0,146.70001,-138.90001,-20.7,,x,,,,
442258,-0.4886828,8.405105,-2.9506392,0.26677,0.602138,0.060976,146.70001,-138.90001,-20.7,,x,,,,
442351,-1.866206,9.090577,-2.8686936,-0.22865999,-0.94512796,0.030488,158.70001,-143.70001,-21.900002,,x,,,,
442371,-2.6126885,9.555334,-2.9183395,-0.586894,-1.25763,0.15244,149.1,-138.90001,-20.7,,x,,,,
442411,-4.2300673,10.172618,-3.8329,-1.6387299,-2.660078,0.182928,146.70001,-141.3,-22.5,,x,,,,
442433,-4.487867,10.681637,-4.4920535,-1.158544,-4.9466777,1.189032,151.5,-141.3,-21.900002,,x,,,,
442453,-4.5201664,9.699487,-4.4190803,-1.18141,-7.9649897,1.928366,153.90001,-143.70001,-23.7,,x,,,,
442473,-3.9178364,9.213196,-4.2791147,-1.044214,-10.243968,3.6585598,153.90001,-148.5,-23.7,,x,,,,
442494,-2.3620665,10.343088,-4.125392,-0.213416,-12.614409,5.282046,141.90001,-148.5,-23.7,,x,,,,
442514,-2.1993718,8.750234,-3.6624293,-0.3811,-13.7272215,3.7728899,141.90001,-143.70001,-26.1,,x,,,,
442536,-0.73810846,7.4211597,-3.4351351,1.9054999,-16.65407,4.4512477,139.5,-153.3,-27.300001,,x,,,,
442598,1.0174412,6.1847982,-1.7621292,3.2850819,-16.631203,4.283564,132.3,-155.70001,-29.1,,x,,,,
442832,2.4876766,11.236713,-6.7213326,-1.722572,5.762232,-4.672286,120.3,-148.5,-26.7,,x,,,,
442852,1.568929,9.243702,-6.7823434,-4.428382,9.6723175,-4.733262,129.90001,-153.3,-26.1,,x,,,,
442898,-0.18303175,6.840363,-5.0399528,-4.0777698,11.120498,-3.399412,132.3,-153.3,-28.500002,,x,,,,
442948,-0.3493155,6.2619586,-3.1827188,-3.109776,11.417756,-4.397894,134.70001,-155.70001,-26.7,,x,,,,
442968,-0.57660985,6.425252,-2.823833,-2.637212,11.425378,-4.794238,139.5,-148.5,-26.1,,x,,,,
443008,-0.71896785,7.09577,-2.652764,-1.760682,11.448244,-4.756128,151.5,-146.1,-23.7,,x,,,,
443052,-1.4564781,6.2990437,-3.0068648,-1.44818,10.678422,-4.53509,141.90001,-141.3,-24.300001,,x,,,,
443072,-1.6042194,7.133453,-2.9805465,-0.602138,9.291218,-3.643316,149.1,-141.3,-23.1,,x,,,,
443092,-1.589864,9.17013,-3.4799957,-0.785066,7.705842,-3.841488,149.1,-138.90001,-21.900002,,x,,,,
443132,-1.1903045,11.158956,-3.6115873,0.358234,4.5274677,-3.7728899,151.5,-134.1,-21.300001,,x,,,,
443152,-1.418197,11.800164,-3.3902743,-0.56402797,3.452766,-4.184478,156.3,-136.5,-22.5,,x,,,,
443172,-2.263971,8.800478,-3.643887,-1.509156,4.0777698,-5.6097918,158.70001,-136.5,-20.7,,x,,,,
443192,-2.388983,8.943434,-3.2712438,-0.83842,3.2622159,-3.536608,163.5,-134.1,-21.900002,,x,,,,
443214,-2.53493,9.919603,-3.619363,-0.81555396,3.7728899,-2.812518,168.3,-129.3,-20.7,,x,,,,
443234,-3.1599894,10.169028,-4.1313734,-0.434454,3.7347798,-2.835384,170.70001,-136.5,-18.900002,,x,,,,
443254,-3.5613432,9.418958,-4.2815075,-0.121952,2.545748,-2.576236,173.1,-134.1,-20.7,,x,,,,
443275,-3.2855992,8.668886,-3.8227317,0.007622,1.280496,-1.150922,170.70001,-136.5,-20.7,,x,,,,
443295,-2.5510798,8.963771,-3.4459016,-0.373478,0.426832,0.45731997,177.90001,-129.3,-18.900002,,x,,,,
443315,-2.00019,8.595314,-3.258683,-1.044214,0.16768399,1.272874,170.70001,-131.70001,-19.5,,x,,,,
443336,-1.4140099,8.459536,-3.0403607,-1.25763,-0.259148,1.8369019,163.5,-131.70001,-20.7,,x,,,,
443357,-0.9420752,8.236428,-2.8172534,-1.1356779,-0.594516,1.996964,173.1,-136.5,-20.7,,x,,,,
443377,-0.59275967,8.265738,-2.4984431,-1.036592,-0.92226195,2.065562,168.3,-131.70001,-21.300001,,,,,,
443401,-0.45458865,8.524734,-2.5618463,-1.006104,-0.47256398,1.821658,163.5,-134.1,-21.900002,,,,,,
443421,-0.49107537,8.896778,-2.7544484,-0.655492,-0.449698,1.310984,168.3,-141.3,-21.300001,,,,,,
443441,-0.5568711,8.983509,-2.8800583,-0.243904,-0.548784,0.655492,161.1,-134.1,-21.900002,,,,,,
443463,-0.6430037,8.895582,-3.0888102,0.053354,-0.487808,0.274392,163.5,-134.1,-21.300001,,,,,,
443483,-0.6962384,9.030763,-3.2407386,0.274392,-0.426832,0.221038,165.90001,-141.3,-20.7,,,,,,
443505,-0.86611104,8.924891,-3.3687413,0.289636,-0.41158798,0.365856,158.70001,-141.3,-21.300001,,,,,,
443526,-0.83082056,8.987697,-3.434537,0.365856,-0.617382,0.548784,161.1,-134.1,-21.300001,,,,,,
443547,-0.719566,9.062464,-3.3878818,0.358234,-0.739334,0.67073596,156.3,-141.3,-20.7,,,,,,
443567,-0.6388167,8.973939,-3.5081086,-0.137196,-0.53354,0.548784,156.3,-136.5,-21.900002,,,,,,
443587,-0.63522786,8.97992,-3.5134919,-0.099086,-0.548784,0.503052,165.90001,-136.5,-19.5,,,,,,
443608,-0.47492552,8.923695,-3.4865754,-0.11432999,-0.632626,0.373478,161.1,-138.90001,-20.7,,,,,,
443628,-0.3188102,8.827394,-3.3902743,-0.243904,-0.548784,0.518296,158.70001,-136.5,-21.900002,,,,,,
443648,-0.2715569,8.857301,-3.4034336,-0.182928,-0.34298998,0.617382,161.1,-138.90001,-21.900002,,,,,,
443668,-0.19678904,9.098352,-3.296366,-0.053354,0.030488,0.487808,161.1,-136.5,-20.7,,,,,,
443688,-0.37623194,9.217981,-3.3041418,-0.22865999,0.41158798,0.17530599,156.3,-134.1,-22.5,,,,,,
443708,-0.48090696,9.07024,-3.359171,-0.365856,0.510674,-0.129574,156.3,-131.70001,-20.7,,,,,,
443729,-0.48808467,8.846535,-3.033781,-0.17530599,0.358234,-0.137196,158.70001,-136.5,-22.5,,,,,,
443749,-0.5096178,9.019398,-2.9626021,-0.56402797,0.46494198,0.03811,153.90001,-141.3,-23.1,,,,,,
443769,-0.68128484,8.884816,-2.9811447,-0.548784,0.548784,-0.060976,156.3,-141.3,-21.300001,,,,,,
443789,-0.74528617,8.926685,-3.03737,-0.28201398,0.312502,-0.198172,156.3,-136.5,-21.300001,,,,,,
443809,-0.7458843,8.768776,-2.9183395,0.083841994,-0.060976,-0.17530599,156.3,-141.3,-21.300001,,,,,,
443830,-0.66453683,8.631203,-2.7580373,0.22865999,-0.198172,-0.07622,151.5,-136.5,-21.900002,,,,,,
443851,-0.51021594,9.004444,-3.0134442,0.137196,0.297258,0.198172,151.5,-138.90001,-22.5,,,,,,
443872,-0.44322395,9.055286,-3.1809244,0.20579399,0.640248,-0.053354,146.70001,-141.3,-20.7,,,,,,
443892,-0.35350248,8.720924,-3.2945714,0.297258,0.830798,-0.144818,156.3,-134.1,-21.300001,,,,,,
443912,-0.18841504,8.734682,-3.0744548,0.60976,0.868908,0.045732,153.90001,-143.70001,-22.5,,,,,,
443932,-0.14235802,8.63539,-3.0230145,0.373478,1.1280559,0.11432999,149.1,-138.90001,-19.5,,,,,,
443952,-0.27873462,8.545669,-3.0433514,0.19055,1.33385,0.091464,153.90001,-136.5,-21.300001,,,,,,
443975,-0.35170805,8.932069,-3.0762494,0.365856,1.204276,0.053354,156.3,-136.5,-20.7,,,,,,
443995,-0.58259124,8.626418,-2.9643965,0.22865999,1.082324,-0.28201398,156.3,-138.90001,-19.5,,,,,,
444015,-1.0186375,8.913527,-3.2150185,0.3811,0.983238,-0.022866,151.5,-134.1,-18.900002,,,,,,
444035,-1.4534874,8.807057,-3.3143103,0.312502,0.503052,0.137196,149.1,-131.70001,-18.900002,,,,,,
444058,-2.0821357,9.293347,-3.5105011,0.46494198,-0.41158798,1.29574,153.90001,-134.1,-20.1,,x,,,,
444078,-2.7006154,10.066148,-3.7748804,0.45731997,-0.99086,1.692084,151.5,-141.3,-18.900002,,x,,,,
444098,-2.978154,10.399314,-4.4274545,0.35061198,-1.8750119,1.532022,151.5,-136.5,-17.7,,x,,,,
444118,-3.1121378,10.680441,-4.657739,0.586894,-3.2622159,1.8673899,146.70001,-138.90001,-20.7,,x,,,,
444138,-3.3448155,11.015401,-5.166759,-0.030488,-4.5122237,2.637212,149.1,-136.5,-18.900002,,x,,,,
444162,-3.4823885,9.995567,-5.013634,-0.602138,-6.74547,2.82014,144.3,-138.90001,-19.5,,x,,,,
444202,-2.5552669,8.435012,-4.600916,-0.777444,-10.983302,3.62045,151.5,-148.5,-22.5,,x,,,,
444262,-1.0300022,5.3826885,-2.9009933,0.708846,-16.12053,4.519846,141.90001,-143.70001,-24.300001,,x,,,,
444324,0.9911229,5.0267935,-2.6013238,1.768304,-14.298872,5.167716,134.70001,-150.90001,-25.500002,,x,,,,
444344,1.8165601,5.379698,-3.4315462,3.025934,-12.888802,5.29729,129.90001,-148.5,-26.7,,x,,,,
444364,3.3478062,7.4726,-3.844265,4.5731997,-11.250072,6.59303,129.90001,-148.5,-26.7,,x,,,,
444386,3.9238179,9.182093,-5.120104,2.141782,-5.655524,4.824726,110.700005,-155.70001,-27.300001,,x,,,,
444446,4.1098404,14.163427,-9.174317,2.2027578,-0.45731997,2.7591639,101.100006,-153.3,-23.7,,x,,,,
444653,-0.98992664,5.9461393,-2.912358,0.106708,7.614378,-1.074702,127.50001,-150.90001,-27.300001,,x,,,,
444810,-0.47671995,10.686422,-3.3161047,-0.746956,5.25918,-3.155508,137.1,-148.5,-22.5,,x,,,,
444830,-1.0096654,9.484155,-3.6797755,-0.663114,4.9771657,-4.009172,134.70001,-148.5,-20.1,,x,,,,
444870,-0.42767224,11.434699,-3.9124532,0.525918,3.92533,-2.2180018,139.5,-148.5,-20.7,,x,,,,
444892,-1.1059663,10.959774,-3.8861349,-0.541162,3.62045,-3.155508,139.5,-141.3,-20.1,,x,,,,
444913,-1.4660485,9.033753,-3.9268086,-0.625004,2.507638,-2.347576,144.3,-138.90001,-18.900002,,x,,,,
444933,-1.4427209,8.890797,-3.7198513,-0.82317597,2.126538,-1.432936,137.1,-141.3,-22.5,,x,,,,
444953,-1.1615937,9.351367,-3.7120752,-0.777444,1.585376,-0.586894,141.90001,-141.3,-20.7,,x,,,,
444973,-0.836802,9.493127,-3.7013087,-0.655492,1.074702,-0.26677,139.5,-148.5,-20.1,,x,,,,
444993,-0.7620341,9.08639,-3.5505767,-0.83842,0.53354,-0.137196,139.5,-138.90001,-19.5,,x,,,,
445013,-0.4719348,8.681447,-3.259879,-0.777444,0.07622,0.03811,144.3,-146.1,-20.7,,x,,,,
445034,-0.09450659,8.435012,-3.0349774,-0.967994,-0.091464,0.099086,144.3,-143.70001,-20.7,,,,,,
445076,0.10646945,8.694008,-3.2389443,-0.708846,-0.144818,0.53354,139.5,-146.1,-20.7,,,,,,
445106,0.35529694,8.759206,-2.9721725,-0.64787,-0.617382,0.11432999,149.1,-143.70001,-20.1,,,,,,
445129,0.2978752,8.309402,-2.9374802,-0.81555396,-0.373478,-0.182928,144.3,-143.70001,-20.7,,,,,,
445170,0.05682358,8.814235,-3.1037638,-0.35061198,0.312502,0.0,139.5,-141.3,-20.7,,,,,,
445193,0.0053832866,8.88661,-3.1480265,-0.091464,0.434454,-0.46494198,139.5,-146.1,-20.7,,,,,,
445213,-0.09450659,8.975734,-3.246122,-0.07622,0.541162,-0.487808,144.3,-138.90001,-21.300001,,,,,,
445233,-0.22370547,9.073231,-3.4153965,0.11432999,0.602138,-0.510674,139.5,-143.70001,-21.300001,,,,,,
445254,-0.33196935,9.1515875,-3.57211,0.213416,0.46494198,-0.442076,144.3,-146.1,-20.7,,,,,,
445274,-0.39477435,9.375891,-3.778469,0.23628199,0.28201398,-0.3811,141.90001,-141.3,-22.5,,,,,,
445294,-0.49944937,9.122278,-3.824526,-0.022866,0.007622,-0.3811,144.3,-141.3,-20.7,,,,,,
445318,-0.51559925,8.923695,-3.832302,-0.17530599,-0.19055,-0.251526,149.1,-141.3,-20.1,,,,,,
445339,-0.46595338,8.890199,-3.6749904,-0.33536798,-0.40396598,0.015244,137.1,-141.3,-21.900002,,,,,,
445399,-0.14774132,8.810646,-3.3824985,-1.1051899,-0.56402797,0.68597996,144.3,-141.3,-21.300001,,,,,,
445469,0.31103435,9.07981,-3.0870159,-0.20579399,0.594516,0.26677,139.5,-141.3,-23.1,,,,,,
445489,0.30325848,9.107325,-3.13726,-0.20579399,0.731712,0.0,144.3,-143.70001,-23.1,,,,,,
445532,0.1489376,8.871058,-3.2604773,0.137196,0.975616,-0.60976,137.1,-138.90001,-21.300001,,,,,,
445552,0.19140574,8.894984,-3.3071325,-0.068598,0.92988396,-0.56402797,137.1,-141.3,-21.900002,,,,,,
445592,0.16448931,8.917115,-3.3537877,-0.16768399,0.94512796,-0.769822,144.3,-146.1,-21.300001,,,,,,
445612,0.04187001,8.9679575,-3.2180092,-0.129574,0.83842,-0.95274997,134.70001,-141.3,-18.900002,,,,,,
445632,-0.14116174,8.696401,-3.2903845,-0.41921,0.92988396,-1.082324,139.5,-138.90001,-23.1,,,,,,
445652,-0.25720146,8.64197,-3.3484044,-0.47256398,0.70122397,-0.87653,144.3,-143.70001,-20.7,,,,,,
445672,-0.49586052,9.075026,-3.3807042,-0.297258,0.45731997,-0.46494198,139.5,-138.90001,-21.300001,,,,,,
445692,-0.8762795,10.03983,-3.535623,-0.22865999,0.099086,-0.19055,134.70001,-136.5,-21.300001,,,,,,
445712,-1.3607752,9.548755,-3.1910927,-1.227142,-0.510674,-0.487808,141.90001,-136.5,-20.1,,,,,,
445732,-1.7746902,9.15398,-2.6043146,-1.8750119,-1.02897,0.0,151.5,-143.70001,-20.1,,,,,,
445752,-2.204755,10.212095,-2.3985534,-2.301844,-1.318606,0.434454,144.3,-141.3,-20.1,,x,,,,
445772,-3.2676551,10.20731,-2.8351977,-2.812518,-1.303362,-0.28201398,141.90001,-146.1,-21.300001,,x,,,,
445792,-4.188197,10.38137,-3.6666164,-2.2180018,-2.987824,0.106708,141.90001,-146.1,-24.300001,,x,,,,
445839,-3.547586,9.737767,-3.970473,-0.983238,-9.763782,1.8369019,146.70001,-148.5,-24.900002,,x,,,,
445859,-2.9051805,9.261047,-4.1523085,-0.55640596,-12.141846,1.6463519,144.3,-148.5,-26.7,,x,,,,
445879,-2.0905097,7.6783614,-4.0201187,0.17530599,-14.7790575,1.211898,149.1,-143.70001,-26.7,,x,,,,
445899,-1.2058562,5.873764,-3.4303498,1.318606,-17.279074,1.547266,141.90001,-153.3,-26.7,,x,,,,
445919,-0.64240557,4.9861197,-2.819646,1.920744,-17.87359,2.027452,144.3,-143.70001,-30.300001,,x,,,,
445939,0.5724228,5.53043,-2.7269337,3.498498,-17.774504,3.2164838,139.5,-155.70001,-29.1,,x,,,,
446002,2.065986,4.7719846,-1.7782791,3.147886,-10.914703,1.8826339,139.5,-153.3,-30.300001,,x,,,,
446023,2.179035,6.0902915,-2.7095876,3.971062,-8.170784,3.7271578,144.3,-153.3,-29.1,,x,,,,
446043,1.9349926,9.448266,-3.694729,4.5731997,-5.000032,4.123502,129.90001,-155.70001,-27.900002,,x,,,,
446106,1.1633881,11.9808035,-7.1567807,1.6311079,1.242386,-0.94512796,129.90001,-150.90001,-27.900002,,x,,,,
446213,0.93370116,9.132447,-6.012533,-4.367406,7.339986,-3.513742,134.70001,-148.5,-26.1,,x,,,,
446254,-0.6053207,6.8601017,-5.2271714,-4.1921,10.868972,-2.82014,141.90001,-148.5,-27.900002,,x,,,,
446294,-0.91276616,6.810456,-4.238441,-3.2774599,12.1799555,-1.272874,139.5,-148.5,-27.300001,,x,,,,
446430,-0.44142953,6.899579,-2.141352,-1.9054999,7.865904,-3.567096,146.70001,-141.3,-22.5,,x,,,,
446450,-0.4509998,8.048014,-1.8596265,-1.94361,6.920776,-2.911604,149.1,-148.5,-24.300001,,x,,,,
446490,-0.9283179,9.383069,-1.9260204,-2.035074,7.0198617,-3.7652678,151.5,-136.5,-23.1,,x,,,,
446512,-2.0665839,8.527126,-2.4799008,-1.8521459,6.951264,-3.528986,161.1,-143.70001,-24.900002,,x,,,,
446533,-1.6556598,11.090169,-3.0965862,-0.53354,5.929916,-1.67684,156.3,-138.90001,-23.7,,x,,,,
446553,-2.254999,11.132039,-3.4716218,-1.044214,5.52595,-3.102154,153.90001,-136.5,-21.900002,,x,,,,
446573,-2.652764,9.478771,-3.8921163,-0.68597996,4.794238,-3.46801,156.3,-141.3,-21.900002,,x,,,,
446597,-2.6593437,9.840648,-3.5924468,-0.137196,3.567096,-2.599102,156.3,-131.70001,-22.5,,x,,,,
446617,-2.7574391,9.578063,-3.869985,-0.602138,3.2774599,-2.2256238,163.5,-138.90001,-22.5,,x,,,,
446640,-2.7245412,9.33103,-3.9465473,-0.64787,2.47715,-1.501534,168.3,-141.3,-20.1,,x,,,,
446660,-2.4308531,8.9464245,-3.7826562,-0.72409,1.6006199,-0.525918,163.5,-136.5,-20.1,,x,,,,
446680,-1.9487498,8.635988,-3.4381258,-0.891774,0.754578,0.480186,156.3,-129.3,-18.900002,,x,,,,
446700,-1.3691492,8.547463,-3.024211,-1.1128119,0.121952,1.280496,163.5,-134.1,-21.300001,,x,,,,
446723,-0.61190027,8.529519,-2.53493,-1.29574,-0.34298998,1.6234859,161.1,-138.90001,-23.1,,,,,,
446743,-0.30923992,8.214895,-2.342926,-1.158544,-0.518296,1.3872039,158.70001,-136.5,-21.900002,,,,,,
446763,-0.27095875,8.515163,-2.363861,-0.67073596,-0.57164997,1.509156,153.90001,-143.70001,-21.900002,,,,,,
446783,-0.4228871,8.912929,-2.64439,-0.426832,-0.53354,1.1051899,149.1,-141.3,-21.300001,,,,,,
446803,-0.31821206,8.836366,-2.5445,-0.060976,-0.785066,0.510674,151.5,-141.3,-21.300001,,,,,,
446826,-0.15491903,9.173718,-2.4440122,0.053354,-0.55640596,0.30488,153.90001,-143.70001,-21.300001,,,,,,
446847,-0.3648672,9.34419,-2.7957203,0.0,0.160062,0.144818,158.70001,-134.1,-21.900002,,,,,,
446867,-0.6124984,9.447668,-3.0612957,0.121952,0.16768399,0.129574,156.3,-141.3,-21.900002,,,,,,
446887,-0.57122654,9.404004,-3.1875038,0.083841994,-0.068598,0.16768399,158.70001,-141.3,-23.1,,,,,,
446907,-0.5371324,9.329834,-3.3286657,0.17530599,-0.289636,0.388722,153.90001,-141.3,-22.5,,,,,,
446927,-0.3798208,8.963771,-3.3023474,0.022866,-0.82317597,0.663114,144.3,-136.5,-22.5,,,,,,
446947,-0.21592961,9.033753,-3.24672,-0.022866,-0.884152,0.80793196,151.5,-136.5,-22.5,,,,,,
446967,-0.014355431,9.138429,-3.2054482,-0.182928,-0.67835796,0.80793196,151.5,-138.90001,-22.5,,,,,,
446987,0.012561003,8.9894905,-3.2473183,-0.373478,-0.396344,0.56402797,151.5,-146.1,-21.300001,,,,,,
447010,0.06579573,8.8602915,-3.116325,-0.274392,-0.251526,0.55640596,149.1,-148.5,-23.7,,,,,,
447030,0.021533147,8.878236,-3.0445478,-0.434454,0.07622,0.56402797,149.1,-143.70001,-23.1,,,,,,
447050,-0.06519759,8.948219,-2.9925094,-0.47256398,0.365856,0.45731997,151.5,-138.90001,-24.300001,,,,,,
447074,-0.07177716,8.897975,-2.9398727,-0.480186,0.655492,0.259148,149.1,-143.70001,-20.7,,,,,,
447094,-0.16508746,9.006239,-3.0947917,-0.41158798,0.785066,0.251526,146.70001,-143.70001,-23.1,,,,,,
447134,-0.16508746,9.098352,-3.0762494,-0.213416,0.518296,-0.030488,144.3,-146.1,-21.300001,,,,,,
447154,-0.05443101,9.01222,-2.9189377,-0.289636,0.518296,-0.129574,141.90001,-138.90001,-20.1,,,,,,
447175,0.18362989,9.252075,-2.8674974,-0.45731997,0.754578,-0.121952,146.70001,-136.5,-20.7,,,,,,
447195,0.028112719,9.207214,-2.9757612,-0.830798,1.21952,-0.289636,151.5,-141.3,-22.5,,,,,,
447215,-0.21832219,9.071436,-3.2198036,-0.82317597,1.036592,-0.320124,144.3,-138.90001,-22.5,,,,,,
447275,-0.08433816,9.040333,-2.9518356,-0.68597996,0.388722,-0.022866,146.70001,-141.3,-21.900002,,,,,,
447332,-0.10228245,8.731093,-2.6922414,-0.388722,0.434454,-0.602138,149.1,-141.3,-21.900002,,,,,,
447352,-0.080151156,8.988893,-2.6707084,-0.091464,0.3811,-0.388722,149.1,-141.3,-23.1,,,,,,
447392,-0.28830492,8.902162,-2.8220387,-0.030488,0.358234,-0.640248,141.90001,-143.70001,-21.300001,,,,,,
447412,-0.27454764,8.7191305,-2.6090996,-0.068598,0.129574,-0.70122397,153.90001,-146.1,-21.900002,,,,,,
447435,-0.23507018,8.725112,-2.4194884,0.045732,0.137196,-0.548784,146.70001,-138.90001,-22.5,,,,,,
447455,-0.48210323,9.175513,-2.488873,0.015244,0.26677,-0.487808,151.5,-136.5,-23.1,,,,,,
447479,-0.94745845,9.363928,-2.5331354,0.20579399,-0.312502,-0.60976,151.5,-141.3,-21.900002,,,,,,
447499,-1.2100432,9.919603,-2.552874,0.083841994,-0.91463995,-0.312502,146.70001,-141.3,-21.300001,,,,,,
447519,-1.823738,10.3825655,-2.6425955,-0.198172,-1.3490939,-0.30488,151.5,-138.90001,-22.5,,x,,,,
447539,-2.5026302,10.4148655,-3.0953898,-0.40396598,-1.98172,-0.068598,144.3,-146.1,-19.5,,x,,,,
447563,-3.3196936,10.450156,-3.5398102,-0.55640596,-3.3079479,0.67835796,153.90001,-148.5,-21.900002,,x,,,,
447583,-3.8017967,10.439389,-3.975258,-0.480186,-5.807964,1.6006199,151.5,-141.3,-23.1,,x,,,,
447605,-3.501529,10.406491,-3.852639,-0.40396598,-9.10829,2.82014,151.5,-146.1,-22.5,,x,,,,
447625,-3.4494905,9.287964,-3.6809719,-0.998482,-11.478732,3.2698379,149.1,-143.70001,-24.900002,,x,,,,
447645,-3.209037,7.5539474,-3.731814,-0.777444,-14.016858,3.971062,149.1,-143.70001,-24.900002,,x,,,,
447669,-1.5539755,6.596919,-2.8106737,0.11432999,-17.355293,5.190582,146.70001,-148.5,-29.1,,x,,,,
447732,0.7123883,5.7296114,-2.4577694,1.920744,-16.402544,2.05794,137.1,-150.90001,-29.1,,x,,,,
447752,1.5527792,6.351082,-2.179633,3.170752,-15.022962,2.2256238,141.90001,-148.5,-31.500002,,x,,,,
447794,2.271747,6.572395,-2.7245412,1.669218,-9.428413,2.47715,137.1,-150.90001,-32.100002,,x,,,,
447814,3.0176313,8.161661,-3.421378,1.722572,-6.646384,3.833866,134.70001,-150.90001,-31.500002,,x,,,,
447855,2.789739,13.087966,-6.041244,2.576236,0.861286,2.301844,125.100006,-155.70001,-31.500002,,x,,,,
447895,1.4989463,13.591602,-7.79799,2.339954,0.47256398,-1.722572,125.100006,-158.1,-30.300001,,x,,,,
447925,1.5761068,13.096938,-6.7051826,1.036592,1.6082419,-3.368924,132.3,-150.90001,-29.1,,x,,,,
447948,0.86910176,10.5123625,-5.5280375,-3.147886,6.257662,-4.34454,132.3,-150.90001,-29.7,,x,,,,
447988,-0.652574,7.51447,-4.5321293,-4.397894,10.510737,-3.483254,144.3,-150.90001,-29.7,,x,,,,
448051,-1.1783416,6.272725,-3.0230145,-2.888738,10.419273,-3.361302,141.90001,-146.1,-29.7,,x,,,,
448170,-0.79313755,7.7920084,-2.2693543,0.746956,7.149436,-1.585376,153.90001,-146.1,-25.500002,,x,,,,
448190,-1.025217,8.096463,-2.0073678,0.0,6.714982,-2.195136,153.90001,-141.3,-24.300001,,x,,,,
448231,-0.7309307,9.788012,-1.865608,-0.26677,5.6097918,-1.669218,151.5,-141.3,-23.7,,x,,,,
448289,-1.8404859,10.255759,-3.0020795,-1.1128119,5.0228977,-3.2469718,158.70001,-134.1,-23.1,,x,,,,
448311,-2.2394474,10.106822,-3.4375277,-0.503052,4.054904,-2.187514,163.5,-138.90001,-21.900002,,x,,,,
448351,-2.4194884,10.233628,-3.823928,-1.234764,1.8826339,-1.798792,161.1,-141.3,-21.300001,,,,,,
448371,-2.3668518,10.061961,-3.8293114,-1.051836,1.326228,-1.577754,161.1,-136.5,-23.7,,,,,,
448391,-2.1234076,8.624025,-3.8101707,-0.640248,-0.068598,-0.60976,158.70001,-138.90001,-24.300001,,,,,,
448411,-1.7076982,8.803469,-3.660635,-0.365856,-0.7622,0.259148,168.3,-138.90001,-24.300001,,,,,,
448431,-1.267465,8.726308,-3.2245889,-0.40396598,-1.204276,0.960372,153.90001,-134.1,-23.7,,,,,,
448451,-0.82424104,8.560622,-3.041557,-0.53354,-1.059458,1.3948259,163.5,-138.90001,-23.7,,,,,,
448471,-0.57840425,8.455349,-2.8932176,-0.426832,-1.036592,1.463424,163.5,-138.90001,-22.5,,,,,,
448492,-0.36426908,8.488247,-2.7765796,-0.30488,-0.92226195,1.6311079,161.1,-136.5,-25.500002,,,,,,
448512,-0.43484995,8.618044,-2.9350874,-0.259148,-0.69360197,1.6082419,158.70001,-138.90001,-23.7,,,,,,
448575,-0.17166704,9.186878,-2.640203,0.030488,0.0,0.19055,151.5,-143.70001,-21.900002,,,,,,
448595,-0.4228871,9.046314,-2.8513474,-0.198172,0.40396598,0.060976,156.3,-136.5,-23.1,,,,,,
448618,-0.5239732,8.858498,-2.97935,-0.022866,0.358234,0.07622,156.3,-134.1,-23.1,,,,,,
448658,-0.36307278,9.378881,-3.158793,0.19055,-0.022866,0.0,156.3,-143.70001,-23.7,,,,,,
448679,-0.2003779,9.444677,-3.1342692,0.17530599,-0.15244,-0.099086,153.90001,-143.70001,-23.7,,,,,,
448699,-0.25241634,9.089979,-3.1605875,-0.16768399,-0.060976,-0.22865999,153.90001,-141.3,-23.7,,,,,,
448719,-0.20217232,8.832179,-3.0475385,-0.289636,-0.160062,0.091464,153.90001,-143.70001,-23.1,,,,,,
448739,-0.004785144,9.030165,-2.740093,-0.510674,0.221038,0.251526,163.5,-138.90001,-24.900002,,,,,,
448759,-0.039477438,9.13783,-2.7556446,-0.579272,0.46494198,0.11432999,158.70001,-138.90001,-23.1,,,,,,
448779,-0.22908875,8.950013,-2.873479,-0.518296,0.785066,-0.41158798,156.3,-134.1,-23.7,,,,,,
448799,-0.41810194,8.90575,-2.866301,-0.19055,0.777444,-0.40396598,158.70001,-136.5,-23.1,,,,,,
448819,-0.4079335,8.963771,-2.802898,-0.099086,0.82317597,-0.083841994,156.3,-141.3,-24.300001,,,,,,
448841,-0.44023323,9.201233,-2.81187,-0.045732,0.967994,-0.137196,158.70001,-138.90001,-21.900002,,,,,,
448861,-0.5359361,9.174915,-2.8657029,0.0,1.021348,-0.320124,158.70001,-138.90001,-23.7,,,,,,
448881,-0.5873764,9.252673,-3.1121378,0.358234,0.92226195,-0.861286,153.90001,-138.90001,-22.5,,,,,,
448901,-0.62805015,9.012818,-3.0463421,0.49543,0.769822,-0.716468,156.3,-136.5,-20.7,,,,,,
448922,-0.5305528,9.039735,-3.0092573,0.40396598,0.7622,-0.7622,151.5,-138.90001,-23.7,,,,,,
448942,-0.56165624,8.981116,-3.1276896,0.327746,0.99086,-0.449698,161.1,-138.90001,-21.300001,,,,,,
448966,-0.5861801,9.017604,-3.3202915,0.16768399,1.044214,-0.327746,151.5,-138.90001,-22.5,,,,,,
448986,-0.39836323,9.066651,-3.1444376,-0.007622,1.006104,-0.28201398,153.90001,-136.5,-20.7,,,,,,
449006,-0.38640037,8.998463,-3.104362,-0.144818,1.059458,-0.274392,156.3,-134.1,-23.1,,,,,,
449026,-0.36367092,8.835768,-3.0086591,-0.373478,1.265252,-0.20579399,158.70001,-146.1,-21.900002,,,,,,
449049,-0.33854893,8.899769,-2.994902,-0.449698,1.4024479,-0.22865999,153.90001,-143.70001,-22.5,,,,,,
449069,-0.56883395,8.618044,-2.8609178,-0.426832,1.3948259,-0.259148,151.5,-131.70001,-22.5,,,,,,
449090,-0.65377027,8.890199,-3.0182295,0.20579399,0.83842,-0.586894,158.70001,-136.5,-21.900002,,,,,,
449110,-0.9181495,8.667689,-3.0152388,0.739334,0.388722,-0.213416,153.90001,-131.70001,-19.5,,,,,,
449131,-1.1322846,8.504995,-3.1952798,0.94512796,-0.289636,0.160062,151.5,-138.90001,-20.1,,,,,,
449151,-0.7973246,8.653335,-3.222196,1.272874,-1.1432999,0.7622,153.90001,-136.5,-20.1,,,,,,
449171,-0.34572664,8.750234,-2.9667892,1.082324,-1.684462,0.899396,146.70001,-141.3,-21.900002,,,,,,
449213,0.1309933,8.565408,-3.1049602,0.53354,-1.532022,0.7622,156.3,-129.3,-21.900002,,,,,,
449253,0.0071777157,9.323255,-3.3699374,0.26677,-2.012208,0.586894,151.5,-138.90001,-18.900002,,,,,,
449274,-0.01614986,9.710253,-3.145634,-0.045732,-2.088428,0.137196,146.70001,-136.5,-21.300001,,,,,,
449318,-1.2279875,9.844237,-3.3657506,-0.64787,-1.768304,-0.068598,156.3,-134.1,-23.1,,,,,,
449358,-2.334552,11.026766,-3.099577,-1.044214,-2.2408679,0.426832,153.90001,-141.3,-21.900002,,x,,,,
449378,-3.1988685,10.808443,-3.154606,-1.1432999,-2.843006,0.442076,153.90001,-136.5,-21.900002,,x,,,,
449420,-4.798901,9.258655,-3.706692,-0.28201398,-5.731744,3.6661818,156.3,-148.5,-23.7,,x,,,,
449440,-3.9603045,9.207214,-3.530838,0.64787,-8.407065,3.864354,151.5,-141.3,-23.1,,x,,,,
449460,-2.8926194,7.382879,-3.6133816,1.204276,-9.5275,3.079288,151.5,-146.1,-23.7,,x,,,,
449481,-1.1520233,7.3416066,-3.5338287,2.995446,-11.440621,3.6890478,144.3,-146.1,-24.900002,,x,,,,
449501,0.07117901,7.0347595,-3.2592812,3.7576458,-11.859832,3.102154,146.70001,-146.1,-26.1,,x,,,,
449524,0.7626323,6.772175,-2.8645067,3.54423,-12.7668495,2.644834,146.70001,-150.90001,-25.500002,,x,,,,
449544,0.9277198,6.700996,-2.1598942,2.835384,-12.942156,1.6234859,141.90001,-150.90001,-24.300001,,x,,,,
449564,1.1251069,5.965878,-1.9343944,1.661596,-11.951296,-0.20579399,144.3,-148.5,-25.500002,,x,,,,
449584,1.3380458,4.7558346,-2.4565732,2.347576,-9.969576,-0.94512796,149.1,-141.3,-24.900002,,x,,,,
449604,1.4528893,4.801892,-3.5942411,4.359784,-6.814068,0.449698,146.70001,-146.1,-26.7,,x,,,,
449624,1.8913281,7.2273617,-4.4633427,5.076252,-5.5945477,3.2774599,146.70001,-141.3,-24.900002,,x,,,,
449644,1.7088945,8.3740015,-4.801892,3.041178,-3.368924,2.957336,146.70001,-146.1,-25.500002,,x,,,,
449664,1.7663162,9.792198,-6.488655,3.071666,0.541162,3.3155699,141.90001,-141.3,-24.300001,,x,,,,
449704,1.6801836,12.796671,-9.593616,1.6539739,-0.129574,0.7622,129.90001,-143.70001,-23.1,,x,,,,
449749,1.8201491,11.313276,-5.5687113,-2.652456,-0.80030996,-1.3490939,137.1,-146.1,-23.7,,x,,,,
449851,-1.4905723,6.9522157,-4.2563853,-1.974098,9.557988,-4.093014,141.90001,-148.5,-24.300001,,x,,,,
449916,-0.6513777,7.1274714,-3.5206695,-3.1783738,9.367437,-5.556438,158.70001,-141.3,-22.5,,x,,,,
449936,-0.5359361,6.4402056,-3.267057,-2.812518,8.475664,-5.0076537,163.5,-138.90001,-21.300001,,x,,,,
449956,-0.6687238,6.0071497,-3.0050702,-2.43904,7.8735256,-4.30643,163.5,-146.1,-21.300001,,x,,,,
449979,-0.69803286,5.8839326,-2.6198661,-2.103672,7.195168,-3.574718,158.70001,-138.90001,-20.7,,x,,,,
450000,-0.66453683,7.076031,-2.606707,-1.966476,7.057972,-2.6981878,158.70001,-138.90001,-21.300001,,x,,,,
450020,-1.225595,7.814738,-2.9925094,-2.065562,6.699738,-2.560992,156.3,-136.5,-19.5,,x,,,,
450040,-1.5372274,7.47918,-2.9518356,-1.585376,5.213448,-2.7210538,161.1,-138.90001,-21.300001,,x,,,,
450060,-1.8620191,7.8841224,-2.9548264,-1.074702,4.0472817,-2.317088,165.90001,-134.1,-21.300001,,x,,,,
450082,-2.2161198,9.722814,-3.564334,-1.006104,3.2164838,-0.72409,163.5,-136.5,-21.900002,,x,,,,
450102,-2.2765322,10.871846,-3.4734163,-1.158544,1.6463519,-0.792688,158.70001,-134.1,-20.7,,x,,,,
450122,-1.752559,10.966353,-3.192887,-1.074702,1.425314,-1.532022,168.3,-134.1,-18.900002,,x,,,,
450142,-2.2753358,10.624814,-3.5302398,-1.44818,1.8673899,-2.042696,165.90001,-136.5,-18.900002,,x,,,,
450162,-1.9349926,10.83835,-3.8873312,-0.72409,1.463424,-2.118916,175.5,-134.1,-20.7,,x,,,,
450182,-2.3650572,10.829977,-4.0643816,-0.03811,0.861286,-2.2180018,170.70001,-126.9,-21.900002,,x,,,,
450202,-2.6336236,10.162449,-4.271339,-0.20579399,0.0,-2.2103798,175.5,-134.1,-21.300001,,x,,,,
450222,-2.5415094,9.620531,-3.944753,-0.091464,-0.907018,-1.4024479,168.3,-134.1,-21.900002,,,,,,
450242,-2.3285706,9.353162,-3.5565581,-0.739334,-0.94512796,-0.365856,173.1,-134.1,-23.1,,,,,,
450262,-1.9619089,9.170728,-3.217411,-1.25763,-0.70122397,0.388722,175.5,-131.70001,-21.900002,,,,,,
450304,-1.0832369,7.6071825,-2.3847961,-1.227142,-0.274392,1.554888,170.70001,-136.5,-23.1,,,,,,
450393,-0.49765494,8.899171,-2.8208423,0.106708,-0.449698,1.059458,163.5,-134.1,-21.900002,,,,,,
450413,-0.5867783,8.927284,-3.1049602,-0.28201398,-0.007622,0.739334,161.1,-136.5,-19.5,,,,,,
450453,-0.6663313,8.79629,-3.4088168,-0.33536798,-0.137196,0.30488,168.3,-136.5,-22.5,,,,,,
450473,-0.75904346,8.843544,-3.589456,0.129574,-0.312502,0.541162,168.3,-138.90001,-21.900002,,,,,,
450496,-0.7082013,9.110913,-3.6301296,0.480186,-0.503052,0.548784,161.1,-131.70001,-22.5,,,,,,
450516,-0.6101058,9.095961,-3.4082186,0.373478,-0.548784,0.289636,163.5,-136.5,-21.300001,,,,,,
450576,-0.6800886,8.982911,-3.5822783,-0.22865999,0.41158798,-0.022866,161.1,-138.90001,-23.1,,,,,,
450634,-0.70042545,8.961976,-3.3771152,-0.49543,0.449698,-0.160062,161.1,-134.1,-21.900002,,,,,,
450655,-0.69564027,8.829188,-3.417789,-0.56402797,0.56402797,-0.259148,165.90001,-136.5,-22.5,,,,,,
450675,-0.63283527,8.743055,-3.384891,-0.34298998,0.57164997,-0.289636,163.5,-136.5,-21.900002,,,,,,
450737,-0.5108141,8.963172,-3.2323647,-0.26677,1.013726,-0.41921,158.70001,-138.90001,-20.1,,,,,,
450757,-0.57840425,8.810646,-3.3244786,-0.327746,1.25763,-0.518296,158.70001,-131.70001,-22.5,,,,,,
450777,-0.6794904,8.7627945,-3.347208,-0.160062,1.234764,-0.40396598,163.5,-136.5,-21.300001,,,,,,
450797,-0.6896588,8.879433,-3.3418248,0.083841994,0.998482,-0.35061198,163.5,-146.1,-21.900002,,,,,,
450817,-0.6196761,8.96736,-3.325675,0.07622,1.013726,-0.33536798,161.1,-126.9,-21.900002,,,,,,
450837,-0.5335435,9.023585,-3.250309,-0.030488,1.051836,-0.358234,163.5,-138.90001,-20.1,,,,,,
450857,-0.64419997,8.89618,-3.1946816,-0.243904,1.166166,-0.56402797,156.3,-129.3,-22.5,,,,,,
450877,-0.6382185,8.881825,-3.0690715,-0.34298998,1.227142,-0.602138,161.1,-129.3,-21.300001,,,,,,
450900,-0.68427557,8.606679,-2.9189377,-0.754578,1.3795819,-0.67835796,163.5,-136.5,-22.5,,,,,,
450920,-0.96659905,8.789711,-2.8561327,-0.594516,1.41007,-0.327746,161.1,-134.1,-21.900002,,,,,,
450940,-0.8415872,9.058277,-2.978154,-0.33536798,1.25763,-0.739334,168.3,-134.1,-21.900002,,,,,,
450964,-0.8140726,8.718532,-2.685662,-0.007622,0.868908,-0.67073596,165.90001,-146.1,-21.300001,,,,,,
450984,-0.93370116,9.085792,-2.6037164,-0.022866,1.013726,-0.40396598,163.5,-134.1,-21.900002,,,,,,
451004,-1.0640963,9.097157,-2.7263358,0.045732,1.074702,-0.41921,161.1,-131.70001,-19.5,,,,,,
451024,-1.6616411,9.094166,-2.9374802,0.358234,0.960372,-0.487808,161.1,-138.90001,-21.300001,,,,,,
451047,-2.22569,9.513464,-3.2915807,0.480186,0.41921,-0.137196,165.90001,-136.5,-21.300001,,,,,,
451068,-2.6701102,9.196448,-3.1611855,0.137196,-0.41158798,0.221038,165.90001,-138.90001,-20.7,,,,,,
451088,-3.2742345,9.325647,-3.3543859,-0.518296,-0.80793196,1.06708,168.3,-134.1,-20.7,,x,,,,
451110,-4.2067394,9.664196,-4.306629,-0.785066,-1.8445239,1.8750119,163.5,-134.1,-21.900002,,x,,,,
451130,-4.2204967,10.044615,-4.819836,-0.625004,-3.50612,2.522882,158.70001,-138.90001,-20.7,,x,,,,
451150,-3.6391017,10.228245,-4.6451783,-1.051836,-5.282046,2.522882,156.3,-134.1,-21.300001,,x,,,,
451172,-2.8214405,9.944725,-4.5040164,-1.8826339,-6.394858,1.6463519,156.3,-138.90001,-21.300001,,x,,,,
451192,-2.4422178,8.777748,-4.526746,-2.065562,-7.820172,0.541162,156.3,-136.5,-24.300001,,x,,,,
451212,-1.907478,7.203436,-4.3712287,-0.72409,-10.343054,-0.49543,156.3,-143.70001,-23.7,,x,,,,
451232,-0.51559925,6.42585,-3.7072902,2.157026,-13.041242,0.45731997,161.1,-141.3,-24.900002,,x,,,,
451294,0.86371845,5.4365215,-1.8081862,2.606724,-11.364402,2.6677,158.70001,-134.1,-26.1,,x,,,,
451314,1.6239581,5.1781235,-1.2531096,3.018312,-10.548848,3.6585598,156.3,-138.90001,-25.500002,,x,,,,
451354,2.5720148,6.6375923,-2.6497734,3.6966698,-5.838452,6.5091877,146.70001,-146.1,-27.300001,,x,,,,
451377,2.911162,9.155774,-3.852639,3.643316,-2.40093,7.675354,137.1,-143.70001,-26.7,,x,,,,
451397,2.907573,11.870148,-5.778061,3.50612,-0.160062,7.134192,144.3,-150.90001,-25.500002,,x,,,,
451420,2.77,12.720707,-7.412786,4.207344,-0.67835796,2.987824,139.5,-148.5,-24.300001,,x,,,,
451440,2.7711964,13.894263,-7.8314857,2.2561119,-0.30488,1.699706,132.3,-148.5,-25.500002,,x,,,,
451464,2.590557,13.732166,-8.294449,0.80030996,0.907018,-0.853664,127.50001,-155.70001,-23.1,,x,,,,
451526,1.1203218,9.514062,-5.75593,-3.7957559,4.733262,-3.437522,137.1,-146.1,-24.300001,,x,,,,
451546,-0.05443101,7.693315,-4.990307,-4.03966,6.006136,-3.605206,144.3,-153.3,-24.300001,,x,,,,
451566,-0.66034985,7.1531916,-4.4699225,-3.376546,7.027484,-3.102154,139.5,-143.70001,-23.7,,x,,,,
451586,-0.6591536,7.1938653,-3.6133816,-3.1783738,7.3628516,-3.864354,139.5,-148.5,-23.7,,x,,,,
451606,-0.8972145,6.9803286,-3.5840726,-3.3155699,9.161644,-4.5274677,137.1,-143.70001,-24.300001,,x,,,,
451630,-1.2291838,5.8923063,-3.551773,-2.614346,8.483286,-4.291186,144.3,-143.70001,-24.300001,,x,,,,
451650,-1.0916109,6.385176,-2.9733686,-1.6463519,7.743952,-3.079288,149.1,-138.90001,-24.300001,,x,,,,
451670,-1.1400605,6.925299,-2.6976247,-1.6082419,7.50767,-3.4299,156.3,-146.1,-25.500002,,x,,,,
451710,-1.585677,5.8336883,-2.681475,-1.150922,6.59303,-3.490876,161.1,-146.1,-23.7,,x,,,,
451730,-1.9212352,6.6286206,-2.7747853,-0.625004,5.701256,-2.7667859,158.70001,-141.3,-23.7,,x,,,,
451752,-1.9068798,7.922404,-2.9751632,-0.15244,4.253076,-1.98172,163.5,-136.5,-21.900002,,x,,,,
451772,-1.3793176,9.753918,-2.275934,-0.22865999,2.164648,-1.3490939,158.70001,-136.5,-22.5,,x,,,,
451833,-2.8022997,9.661803,-4.112831,-0.503052,4.1921,-2.7210538,163.5,-136.5,-23.1,,x,,,,
451855,-2.24184,11.916204,-4.1026626,0.716468,1.737816,-2.012208,163.5,-138.90001,-21.300001,,x,,,,
451876,-1.8715893,12.360624,-4.3520885,-0.28201398,1.3567159,-2.492394,165.90001,-138.90001,-23.1,,x,,,,
451896,-3.0200238,8.707168,-4.33534,-1.051836,1.288118,-3.612828,175.5,-134.1,-21.300001,,x,,,,
451916,-2.400946,9.084596,-4.22588,-0.426832,-0.60976,0.022866,173.1,-131.70001,-21.300001,,,,,,
451939,-2.1234076,9.30531,-3.292777,-1.1204339,-0.967994,0.46494198,168.3,-138.90001,-22.5,,,,,,
451959,-1.8458692,8.823805,-3.313114,-1.71495,-0.548784,0.746956,170.70001,-134.1,-18.900002,,,,,,
451983,-1.4702355,8.439199,-3.040959,-1.509156,-0.87653,0.830798,175.5,-131.70001,-24.900002,,,,,,
452003,-1.0987886,7.7710733,-2.5193782,-1.189032,-0.67073596,1.67684,170.70001,-134.1,-22.5,,,,,,
452023,-0.954038,7.988199,-2.4523861,-0.975616,-0.449698,2.065562,165.90001,-136.5,-21.900002,,,,,,
452043,-0.8487649,8.243009,-2.5259578,-0.907018,0.022866,2.2103798,165.90001,-136.5,-22.5,,,,,,
452065,-0.6657331,8.640175,-2.8980026,-0.3811,0.213416,2.195136,165.90001,-136.5,-23.1,,,,,,
452128,-0.3134269,8.637783,-2.882451,0.083841994,-0.007622,1.5929979,158.70001,-141.3,-22.5,,,,,,
452148,-0.2548089,8.991883,-3.0319867,0.388722,-0.160062,1.501534,158.70001,-134.1,-21.900002,,,,,,
452168,-0.05801987,9.330432,-3.0565107,0.487808,-0.22865999,1.013726,149.1,-138.90001,-23.1,,,,,,
452188,0.057421725,9.441089,-3.174943,0.388722,-0.121952,0.358234,153.90001,-138.90001,-22.5,,,,,,
452211,-0.05084215,9.156971,-3.196476,0.297258,-0.099086,-0.20579399,158.70001,-138.90001,-22.5,,,,,,
452231,-0.17645217,9.073231,-3.3167028,0.16768399,0.007622,-0.34298998,158.70001,-141.3,-21.900002,,,,,,
452251,-0.31940836,8.763392,-3.4273593,0.060976,0.106708,-0.19055,153.90001,-141.3,-21.900002,,,,,,
452271,-0.36546534,9.0654545,-3.5039215,0.106708,0.160062,-0.03811,156.3,-136.5,-23.1,,,,,,
452291,-0.46535522,9.090577,-3.5828764,0.03811,0.198172,-0.289636,156.3,-138.90001,-21.900002,,,,,,
452313,-0.84278345,8.90934,-3.6253445,-0.083841994,0.053354,-0.56402797,153.90001,-136.5,-21.300001,,,,,,
452334,-0.9636083,8.808851,-3.6289334,-0.28201398,-0.07622,-0.426832,158.70001,-131.70001,-21.300001,,,,,,
452354,-0.8421853,8.889003,-3.5110993,-0.15244,-0.30488,-0.15244,163.5,-138.90001,-20.7,,,,,,
452374,-0.75844526,8.954201,-3.5122955,-0.35061198,-0.137196,0.053354,156.3,-136.5,-21.300001,,,,,,
452394,-0.75784713,9.041529,-3.588858,-0.312502,-0.060976,0.160062,151.5,-143.70001,-19.5,,,,,,
452414,-0.6591536,8.883021,-3.4506867,-0.23628199,-0.22865999,0.22865999,156.3,-138.90001,-21.300001,,,,,,
452434,-0.4940661,8.856105,-3.3298619,-0.388722,-0.221038,0.525918,151.5,-136.5,-21.300001,,,,,,
452454,-0.36127836,8.848329,-3.1731484,-0.41158798,-0.121952,0.55640596,153.90001,-136.5,-22.5,,,,,,
452474,-0.1782466,9.070838,-3.188102,-0.26677,0.060976,0.327746,156.3,-138.90001,-21.900002,,,,,,
452494,-0.21054633,8.99607,-3.0971844,-0.106708,0.221038,-0.160062,153.90001,-141.3,-21.900002,,,,,,
452515,-0.15790975,9.104933,-3.0068648,-0.045732,0.3811,-0.388722,153.90001,-138.90001,-22.5,,,,,,
452535,-0.19140574,9.020595,-2.97935,-0.23628199,0.754578,-0.7622,158.70001,-136.5,-22.5,,,,,,
452555,-0.21652776,8.704177,-3.0977824,-0.33536798,1.059458,-0.777444,151.5,-136.5,-21.900002,,,,,,
452575,-0.35948393,8.728103,-3.158793,-0.16768399,1.173788,-0.55640596,158.70001,-141.3,-21.900002,,,,,,
452615,-0.36367092,9.0511,-3.2138221,-0.11432999,1.3795819,-0.541162,153.90001,-141.3,-20.1,,,,,,
452635,-0.40434465,9.02837,-3.2790198,-0.060976,1.303362,-0.83842,158.70001,-136.5,-20.7,,,,,,
452655,-0.40434465,9.139625,-3.267057,-0.16768399,1.1280559,-0.92988396,165.90001,-141.3,-20.1,,,,,,
452679,-0.48389766,8.5360985,-3.1683633,-0.442076,0.87653,-1.18141,163.5,-138.90001,-20.1,,,,,,
452699,-0.4091298,8.732887,-3.0864177,-0.129574,0.777444,-0.510674,158.70001,-136.5,-19.5,,,,,,
452719,-0.5150011,9.08639,-3.2712438,-0.26677,1.006104,-0.68597996,156.3,-136.5,-19.5,,,,,,
452739,-0.7034161,8.99966,-3.2024574,-0.083841994,0.746956,-0.792688,158.70001,-141.3,-18.900002,,,,,,
452759,-0.8170633,8.818421,-3.0660808,-0.182928,0.70122397,-0.884152,153.90001,-136.5,-20.1,,,,,,
452780,-1.1747528,8.804665,-3.1851113,-0.144818,0.83842,-0.182928,153.90001,-134.1,-20.1,,,,,,
452800,-1.6407062,9.104334,-3.209037,0.007622,0.541162,0.182928,161.1,-136.5,-21.300001,,,,,,
452820,-2.1174262,9.216785,-3.2317665,-0.221038,0.259148,0.480186,158.70001,-136.5,-20.7,,,,,,
452840,-2.4637508,10.178599,-3.535623,-0.518296,0.26677,0.716468,161.1,-138.90001,-22.5,,,,,,
452860,-3.0648847,9.9830065,-4.1271863,-0.94512796,-0.106708,0.23628199,156.3,-136.5,-21.900002,,x,,,,
452883,-3.3250768,9.362732,-4.556055,-0.69360197,-1.29574,1.18141,156.3,-141.3,-21.900002,,x,,,,
452903,-3.2359536,10.724704,-4.52555,-0.41158798,-3.2088618,2.6677,153.90001,-138.90001,-21.900002,,x,,,,
452923,-2.6725028,11.282173,-3.9351826,-0.663114,-5.114362,2.378064,158.70001,-141.3,-21.900002,,x,,,,
452943,-3.0212202,9.439294,-3.5069122,-1.250008,-5.83083,1.059458,156.3,-141.3,-22.5,,x,,,,
452963,-2.8519456,7.7507367,-3.3382359,-0.64787,-7.85066,1.234764,151.5,-146.1,-22.5,,x,,,,
452983,-2.2687564,6.1064415,-2.7957203,0.899396,-10.205858,2.050318,151.5,-138.90001,-25.500002,,x,,,,
453006,-1.5569662,5.1476183,-2.1694646,1.8902559,-12.096114,3.7728899,149.1,-136.5,-24.900002,,x,,,,
453026,-0.9103736,4.4453983,-1.476815,2.05794,-13.094596,4.9543,146.70001,-146.1,-24.900002,,x,,,,
453046,-0.14295617,4.6092896,-0.98334706,2.500016,-12.873558,6.0137577,146.70001,-141.3,-25.500002,,x,,,,
453089,1.6185749,7.000067,-2.9237227,2.309466,-9.26073,6.905532,139.5,-148.5,-25.500002,,x,,,,
453109,2.7293265,7.8296914,-4.041054,1.684462,-7.43145,5.9527817,127.50001,-148.5,-27.300001,,x,,,,
453129,3.24672,8.736476,-5.827707,3.2088618,-3.407034,5.4573517,125.100006,-153.3,-27.300001,,x,,,,
453153,4.200758,12.87742,-7.300335,4.375028,-4.9771657,6.3567476,122.700005,-155.70001,-24.900002,,x,,,,
453214,3.1887002,13.157949,-7.7184367,1.1204339,0.785066,-0.975616,113.100006,-158.1,-23.7,,x,,,,
453236,2.6431937,12.831363,-7.6957073,1.082324,0.975616,-2.065562,125.100006,-150.90001,-22.5,,x,,,,
453256,2.355487,12.349858,-6.5544505,-0.442076,2.7058098,-3.490876,120.3,-146.1,-24.300001,,x,,,,
453276,0.61070395,9.117494,-6.45157,-3.08691,7.4695597,-5.29729,127.50001,-146.1,-24.300001,,x,,,,
453297,-0.11005831,7.6358933,-6.1393394,-3.132642,8.216516,-4.070148,132.3,-150.90001,-23.7,,x,,,,
453317,-0.26497734,7.271026,-5.6560397,-3.1783738,7.9954777,-3.3003259,125.100006,-146.1,-23.7,,x,,,,
453337,-0.6447981,6.8158393,-4.5416994,-3.170752,7.9040136,-2.454284,137.1,-150.90001,-24.300001,,x,,,,
453398,-0.7297344,5.7954073,-2.6874564,-2.431418,7.286632,-3.01069,137.1,-150.90001,-24.300001,,x,,,,
453473,-0.56703955,7.2136045,-1.790242,-2.2256238,6.93602,-3.445144,137.1,-138.90001,-25.500002,,x,,,,
453533,-1.0640963,8.201736,-2.5217707,-0.41921,6.17382,-2.614346,141.90001,-143.70001,-21.900002,,x,,,,
453573,-1.2351652,9.42135,-3.091203,-0.663114,4.596066,-3.589962,151.5,-143.70001,-20.7,,x,,,,
453594,-1.447506,9.613354,-3.6014187,-0.35061198,3.46801,-2.89636,146.70001,-143.70001,-21.900002,,x,,,,
453614,-0.83859646,11.333613,-3.4524813,0.579272,2.2103798,-2.004586,144.3,-141.3,-21.900002,,x,,,,
453674,-2.1610906,8.090482,-4.0954847,-0.56402797,1.821658,-3.437522,156.3,-136.5,-21.900002,,x,,,,
453694,-2.2137272,8.859096,-4.0601945,0.099086,0.777444,-1.318606,156.3,-129.3,-20.7,,x,,,,
453758,-1.2889981,8.671279,-3.6450832,-0.41158798,-0.312502,0.92226195,161.1,-131.70001,-20.1,,x,,,,
453778,-0.7201641,8.450563,-3.322086,-0.373478,-0.868908,1.8521459,158.70001,-136.5,-21.900002,,x,,,,
453798,-0.13936731,8.690419,-2.9715743,-0.20579399,-1.082324,2.118916,163.5,-138.90001,-20.1,,,,,,
453818,0.07177716,8.743654,-2.8603196,-0.137196,-0.91463995,1.570132,144.3,-141.3,-20.7,,,,,,
453838,0.0681883,8.668288,-2.902788,0.0,-0.853664,0.99086,153.90001,-138.90001,-21.300001,,,,,,
453861,0.13398403,8.752626,-2.886638,0.121952,-0.80793196,0.617382,158.70001,-138.90001,-20.1,,,,,,
453881,-0.08374002,9.120484,-3.0128462,0.045732,-0.663114,0.312502,149.1,-138.90001,-20.7,,,,,,
453901,-0.3146232,8.917115,-3.1982706,-0.121952,-0.57164997,-0.17530599,151.5,-143.70001,-21.300001,,,,,,
453921,-0.36965236,8.862086,-3.1863077,-0.03811,-0.510674,-0.373478,158.70001,-136.5,-21.900002,,,,,,
453941,-0.29548264,8.955397,-3.1528115,-0.060976,-0.289636,-0.289636,149.1,-141.3,-20.7,,,,,,
453981,-0.4468128,9.106129,-3.4381258,0.129574,-0.251526,-0.274392,153.90001,-141.3,-21.300001,,,,,,
454001,-0.4300648,8.781337,-3.560745,0.144818,-0.632626,-0.060976,158.70001,-141.3,-20.7,,,,,,
454021,-0.4163075,8.726906,-3.480594,0.45731997,-0.884152,0.137196,156.3,-138.90001,-18.300001,,,,,,
454041,-0.40853164,8.746046,-3.523062,0.213416,-0.69360197,-0.23628199,151.5,-134.1,-20.1,,,,,,
454061,-0.35828763,8.932069,-3.5122955,0.320124,-0.60976,-0.20579399,153.90001,-138.90001,-20.1,,,,,,
454101,-0.67590153,8.463723,-3.5840726,-0.083841994,0.0,-0.312502,156.3,-134.1,-21.900002,,,,,,
454123,-0.51978624,8.842946,-3.51409,-0.221038,0.510674,0.16768399,151.5,-136.5,-18.900002,,,,,,
454143,-0.49227166,9.444079,-3.5057158,-0.20579399,0.891774,0.129574,153.90001,-138.90001,-22.5,,,,,,
454165,-0.67470527,9.301124,-3.55596,-0.3811,0.92988396,-0.396344,156.3,-136.5,-21.300001,,,,,,
454186,-0.6154891,9.375293,-3.5589507,-0.160062,0.746956,-0.388722,156.3,-141.3,-19.5,,,,,,
454207,-0.6453963,9.355555,-3.5673246,-0.30488,0.617382,-0.396344,151.5,-134.1,-21.900002,,,,,,
454227,-0.7297344,9.196448,-3.4399202,-0.442076,0.35061198,-0.3811,151.5,-138.90001,-20.1,,,,,,
454247,-0.56165624,9.027772,-3.3962557,-0.525918,0.160062,-0.53354,158.70001,-138.90001,-23.1,,,,,,
454269,-0.4761218,8.7735615,-3.2784216,-0.47256398,0.16768399,-0.731712,158.70001,-131.70001,-20.7,,,,,,
454289,-0.42348522,8.90276,-3.280216,-0.33536798,0.442076,-0.769822,156.3,-138.90001,-19.5,,,,,,
454310,-0.49944937,8.701186,-3.2694495,-0.320124,0.746956,-0.884152,153.90001,-134.1,-21.300001,,,,,,
454330,-0.6453963,8.558827,-3.334049,-0.182928,1.021348,-0.846042,158.70001,-134.1,-20.7,,,,,,
454350,-0.92891604,8.48406,-3.6803737,0.060976,1.166166,-0.640248,153.90001,-134.1,-18.900002,,,,,,
454372,-1.1759491,8.257363,-3.7802637,0.45731997,0.365856,-0.33536798,163.5,-138.90001,-21.300001,,,,,,
454392,-1.0742648,8.328543,-3.647476,0.221038,0.03811,-0.07622,163.5,-138.90001,-18.300001,,,,,,
454412,-1.1346772,8.370413,-3.7449732,-0.243904,0.022866,-0.160062,161.1,-131.70001,-18.900002,,,,,,
454432,-1.0072727,8.717934,-3.8813498,-0.434454,-0.144818,0.045732,158.70001,-138.90001,-20.1,,,,,,
454455,-0.47014037,9.560718,-3.8520408,-0.099086,-0.625004,0.579272,165.90001,-141.3,-18.300001,,,,,,
454475,0.9073829,11.353352,-3.5876615,0.251526,-1.3490939,1.227142,156.3,-136.5,-20.1,,,,,,
454495,-0.31940836,7.7680826,-3.109147,-1.3643379,-0.891774,-1.1204339,161.1,-131.70001,-21.300001,,,,,,
454517,0.37324122,8.63539,-2.848955,-0.541162,-1.3567159,0.81555396,151.5,-131.70001,-18.900002,,,,,,
454537,0.14654502,9.07981,-2.7789721,-0.846042,-0.221038,-0.663114,151.5,-136.5,-20.7,,,,,,
454560,-0.32120278,8.932667,-3.1575968,-0.891774,0.11432999,-1.204276,158.70001,-143.70001,-20.1,,,,,,
454581,-0.7829692,8.606081,-3.200663,-0.34298998,0.106708,-1.98172,156.3,-136.5,-20.7,,,,,,
454605,-0.8140726,9.028968,-3.2323647,-0.099086,0.45731997,-1.6158639,163.5,-136.5,-22.5,,,,,,
454625,-0.8858497,9.020595,-3.381302,-0.259148,0.792688,-1.3643379,163.5,-134.1,-21.300001,,,,,,
454645,-0.9618139,8.564809,-3.4734163,-0.365856,0.92988396,-0.72409,165.90001,-136.5,-20.7,,,,,,
454705,-1.0802462,8.810048,-3.4524813,0.03811,0.617382,0.34298998,161.1,-131.70001,-20.1,,,,,,
454725,-1.4786094,8.685036,-3.5069122,-0.068598,0.320124,0.03811,161.1,-134.1,-20.7,,,,,,
454747,-2.0635931,9.462622,-3.6247463,-0.07622,0.091464,0.503052,153.90001,-134.1,-21.300001,,,,,,
454767,-3.1516154,9.625915,-3.384891,-1.288118,-0.503052,0.0,161.1,-134.1,-20.1,,,,,,
454787,-3.4488924,9.292151,-3.380106,-1.745438,-0.53354,0.03811,161.1,-131.70001,-19.5,,,,,,
454827,-4.0936904,8.955397,-4.038063,-1.8292799,-2.347576,1.79117,163.5,-141.3,-22.5,,x,,,,
454847,-3.802993,9.300525,-4.2527966,-1.5244,-4.26832,2.538126,161.1,-136.5,-22.5,,x,,,,
454867,-3.0469403,10.09785,-4.3317513,-1.326228,-6.303394,2.59148,153.90001,-138.90001,-23.7,,x,,,,
454891,-2.2358584,9.429126,-4.054811,-1.6311079,-9.71805,1.8673899,151.5,-138.90001,-22.5,,x,,,,
454953,-0.13039517,6.585554,-2.4045348,0.426832,-13.879662,0.655492,158.70001,-141.3,-26.7,,x,,,,
454974,0.35170805,6.856513,-1.6155841,2.141782,-14.588508,1.3643379,153.90001,-138.90001,-27.900002,,x,,,,
455014,0.37683007,5.7457614,-1.1011813,2.949714,-11.372024,1.310984,156.3,-148.5,-29.1,,x,,,,
455034,0.42109266,4.8688836,-1.3320644,3.422278,-10.152504,2.164648,158.70001,-141.3,-29.7,,x,,,,
455057,1.0880221,5.8510346,-2.0719674,4.0777698,-8.391822,4.702774,149.1,-150.90001,-29.1,,x,,,,
455077,2.0067697,9.612756,-3.5302398,3.46801,-4.336918,5.22107,149.1,-150.90001,-29.1,,x,,,,
455097,2.192194,10.270713,-4.1355605,3.147886,-2.97258,4.641798,141.90001,-148.5,-30.300001,,x,,,,
455137,1.866206,13.605958,-7.5509567,3.513742,2.538126,3.2774599,137.1,-146.1,-27.900002,,x,,,,
455160,1.8985058,13.236904,-8.496621,3.079288,-0.15244,-0.830798,134.70001,-146.1,-27.300001,,x,,,,
455181,2.1126409,12.912112,-7.3481865,0.80793196,0.320124,-2.431418,137.1,-146.1,-26.1,,x,,,,
455201,1.7202592,11.010017,-6.748249,-2.141782,3.3155699,-3.422278,139.5,-148.5,-26.1,,x,,,,
455243,0.10766573,8.026481,-5.275023,-3.96344,6.532054,-3.094532,139.5,-148.5,-27.300001,,x,,,,
455263,-0.81945586,6.4144855,-4.730713,-3.7652678,7.66011,-3.2622159,149.1,-148.5,-27.300001,,x,,,,
455303,-0.72794,6.894794,-3.5751004,-2.042696,7.400962,-2.408552,141.90001,-143.70001,-24.900002,,x,,,,
455323,-0.48928094,7.1549864,-3.0098555,-2.2561119,7.9802337,-2.843006,146.70001,-143.70001,-24.900002,,x,,,,
455345,-0.593956,6.5024123,-2.7646167,-2.484772,9.1159115,-3.551852,149.1,-143.70001,-25.500002,,x,,,,
455365,-0.9067848,6.029281,-3.213224,-1.669218,9.580853,-2.888738,161.1,-141.3,-24.300001,,x,,,,
455385,-0.96001947,6.2595663,-3.2401404,-1.006104,9.207376,-2.530504,158.70001,-143.70001,-23.7,,x,,,,
455405,-1.1651825,6.9510193,-3.2114296,-0.358234,8.3842,-1.8292799,158.70001,-141.3,-22.5,,x,,,,
455425,-1.3344569,7.146612,-3.1863077,-0.312502,7.4238276,-1.821658,149.1,-141.3,-24.300001,,x,,,,
455488,-1.3488123,9.796386,-3.919631,0.426832,4.565578,-1.539644,158.70001,-136.5,-22.5,,x,,,,
455508,-1.2991666,11.370698,-3.8681905,0.106708,3.155508,-1.18141,153.90001,-141.3,-21.300001,,x,,,,
455568,-2.385394,8.778346,-3.9483418,-0.373478,3.559474,-3.01069,161.1,-136.5,-20.7,,x,,,,
455609,-3.0774455,9.387854,-4.511194,-0.243904,3.2774599,-2.065562,161.1,-131.70001,-20.1,,x,,,,
455629,-2.96978,9.232337,-4.5596437,-0.23628199,2.073184,-1.25763,165.90001,-131.70001,-18.300001,,x,,,,
455671,-1.870393,8.838758,-3.7007105,-0.998482,0.121952,0.891774,161.1,-129.3,-19.5,,x,,,,
455691,-1.2226043,8.73528,-3.1282878,-1.478668,-0.28201398,1.6387299,161.1,-136.5,-19.5,,x,,,,
455711,-0.7249493,9.0002575,-2.8345995,-1.71495,-0.045732,1.577754,161.1,-136.5,-20.7,,,,,,
455731,-0.5335435,8.862086,-2.8609178,-1.554888,0.17530599,0.87653,161.1,-138.90001,-20.7,,,,,,
455754,-0.5544785,8.335122,-2.5797906,-1.204276,-0.26677,0.480186,158.70001,-134.1,-22.5,,,,,,
455775,-0.5915634,8.204129,-2.530743,-0.91463995,-0.327746,0.396344,156.3,-141.3,-20.7,,,,,,
455795,-0.5957504,8.703578,-2.7640188,-0.548784,-0.33536798,0.388722,153.90001,-134.1,-20.7,,,,,,
455815,-0.6388167,8.830384,-3.0810344,-0.3811,-0.40396598,0.060976,158.70001,-136.5,-22.5,,,,,,
455877,-0.5425157,8.871656,-3.3053381,-0.35061198,-0.33536798,0.297258,161.1,-138.90001,-21.300001,,,,,,
455912,-0.68666816,9.131848,-3.6349149,-0.28201398,-0.068598,0.327746,158.70001,-136.5,-20.7,,,,,,
455932,-0.61429286,9.401611,-3.701907,-0.221038,-0.35061198,0.03811,158.70001,-129.3,-23.1,,,,,,
455973,-0.49107537,8.99607,-3.4841828,-0.365856,-0.221038,0.030488,161.1,-138.90001,-22.5,,,,,,
456016,-0.58259124,8.942238,-3.3872836,-0.55640596,0.41921,-0.198172,153.90001,-138.90001,-20.7,,,,,,
456146,-0.4677478,8.638979,-3.2347572,-0.34298998,0.960372,-0.137196,153.90001,-138.90001,-21.900002,,,,,,
456168,-0.5120104,9.012818,-3.367545,-0.144818,1.044214,-0.03811,156.3,-138.90001,-21.900002,,,,,,
456208,-0.5012438,9.014014,-3.4752107,-0.23628199,0.891774,-0.57164997,158.70001,-136.5,-21.900002,,,,,,
456228,-0.45698124,9.009828,-3.5164826,0.106708,0.594516,-0.16768399,158.70001,-138.90001,-20.7,,,,,,
456270,-0.44322395,9.1838875,-3.5254548,-0.060976,0.655492,0.030488,161.1,-138.90001,-21.900002,,,,,,
456290,-0.47671995,9.189869,-3.4351351,-0.15244,0.731712,-0.251526,146.70001,-136.5,-20.1,,,,,,
456310,-0.50423455,9.059473,-3.3466098,-0.3811,0.868908,-0.45731997,156.3,-138.90001,-21.900002,,,,,,
456333,-0.51859,8.895582,-3.2915807,-0.632626,0.99086,-0.289636,151.5,-136.5,-21.900002,,,,,,
456353,-0.556273,8.836965,-3.1743448,-0.548784,0.975616,-0.129574,153.90001,-136.5,-21.300001,,,,,,
456373,-0.55986184,8.939845,-3.0463421,-0.56402797,0.853664,0.007622,163.5,-138.90001,-22.5,,,,,,
456393,-0.5736191,8.92848,-3.012248,-0.68597996,0.72409,-0.33536798,156.3,-141.3,-20.7,,,,,,
456453,-0.4665515,8.789113,-2.6760917,-0.449698,-0.182928,-0.28201398,153.90001,-136.5,-20.7,,,,,,
456473,-0.48090696,8.941639,-2.5720148,-0.312502,-0.19055,-0.259148,161.1,-136.5,-20.1,,,,,,
456493,-0.6364241,8.855507,-2.668316,-0.28201398,-0.144818,-0.53354,156.3,-136.5,-21.300001,,,,,,
456535,-0.9462622,8.94762,-2.912358,0.28201398,-0.45731997,0.068598,158.70001,-141.3,-20.7,,,,,,
456588,-1.8231398,9.175513,-3.405228,0.030488,-1.29574,0.41921,156.3,-131.70001,-23.1,,x,,,,
456628,-2.2705507,9.737767,-3.4303498,-0.80030996,-1.432936,1.3490939,158.70001,-141.3,-22.5,,x,,,,
456648,-2.5343318,10.014708,-4.0643816,-0.891774,-1.516778,1.463424,151.5,-141.3,-22.5,,x,,,,
456688,-2.8860397,9.191065,-4.612879,-0.373478,-3.978684,2.888738,153.90001,-138.90001,-23.1,,x,,,,
456708,-2.3626647,9.835863,-4.530335,-0.099086,-5.746988,3.3155699,146.70001,-146.1,-23.1,,x,,,,
456728,-2.0013864,9.07981,-4.5931396,-0.16768399,-7.01224,2.36282,149.1,-138.90001,-24.300001,,x,,,,
456748,0.19738717,8.753224,-4.5961304,1.288118,-9.100668,2.004586,151.5,-141.3,-23.1,,x,,,,
456808,0.000598143,6.9552064,-2.4308531,-0.182928,-9.626586,0.015244,144.3,-148.5,-26.1,,x,,,,
456871,0.82902616,6.0550013,-0.7034161,0.388722,-5.213448,1.920744,156.3,-153.3,-27.900002,,x,,,,
456893,1.116733,7.559929,-1.7100908,0.72409,-2.7362978,2.957336,146.70001,-146.1,-28.500002,,x,,,,
456914,1.4152063,10.6092615,-3.4907625,1.3872039,-0.11432999,4.184478,144.3,-150.90001,-28.500002,,x,,,,
456934,1.4038415,11.965252,-4.674487,0.891774,-0.41158798,2.355198,144.3,-148.5,-26.1,,x,,,,
456954,1.6963334,11.781024,-5.0184197,0.739334,-0.22865999,1.1128119,141.90001,-146.1,-26.7,,x,,,,
456974,1.6514727,13.474367,-6.5418897,-0.182928,1.996964,0.853664,141.90001,-148.5,-28.500002,,x,,,,
456994,0.82902616,12.747623,-7.4851613,0.15244,2.332332,-1.5929979,139.5,-146.1,-27.900002,,x,,,,
457014,0.49107537,11.76308,-7.882328,0.792688,2.675322,-2.675322,141.90001,-146.1,-27.300001,,x,,,,
457034,0.8667092,11.739154,-5.772678,-0.80030996,-1.6311079,-2.827762,144.3,-146.1,-26.1,,x,,,,
457054,0.13697474,9.038538,-4.825219,-3.0488,2.980202,-3.7652678,149.1,-148.5,-27.900002,,x,,,,
457074,-0.19080761,8.208316,-4.7175536,-3.6814258,4.634176,-3.2850819,144.3,-146.1,-27.300001,,x,,,,
457094,-0.6597517,7.1854916,-4.297657,-3.7347798,5.8613176,-1.8978779,144.3,-150.90001,-26.7,,x,,,,
457118,-1.0018895,5.5238504,-3.2251868,-2.873494,6.951264,-0.60976,151.5,-141.3,-26.7,,x,,,,
457138,-0.39836323,6.366634,-2.6425955,-1.67684,7.4695597,0.899396,158.70001,-148.5,-29.1,,x,,,,
457158,-0.07596416,6.8672795,-2.1784368,-1.455802,8.109808,0.198172,146.70001,-148.5,-24.900002,,x,,,,
457178,0.10886202,6.634602,-2.1664739,-1.074702,9.047314,-0.830798,146.70001,-150.90001,-25.500002,,x,,,,
457198,0.031103434,6.5024123,-2.1784368,-0.56402797,9.062558,-1.661596,144.3,-148.5,-25.500002,,x,,,,
457219,0.0723753,6.9468327,-2.1742496,0.083841994,8.742434,-2.179892,151.5,-146.1,-27.300001,,x,,,,
457243,-0.11424531,7.300933,-2.1383612,0.251526,8.429932,-3.071666,146.70001,-146.1,-23.7,,x,,,,
457284,-0.39058736,8.264542,-2.5618463,0.548784,7.766818,-3.7576458,151.5,-143.70001,-24.900002,,x,,,,
457344,-1.8177565,11.400605,-4.6667113,0.87653,4.123502,-2.903982,153.90001,-131.70001,-20.7,,x,,,,
457413,-2.234064,9.773058,-3.957912,-0.632626,0.983238,-0.884152,161.1,-136.5,-20.1,,x,,,,
457434,-2.3686461,10.325144,-3.953127,-1.570132,1.745438,-0.64787,161.1,-136.5,-20.1,,x,,,,
457475,-1.9020946,8.958985,-3.4907625,-1.41007,0.47256398,0.045732,156.3,-131.70001,-19.5,,x,,,,
457518,-0.7129864,8.392544,-2.4362364,-1.074702,-0.967994,1.806414,165.90001,-141.3,-21.300001,,x,,,,
457538,-0.20396675,8.361441,-2.2615786,-1.3414719,-1.051836,1.737816,153.90001,-138.90001,-20.7,,x,,,,
457600,0.18303175,8.936256,-2.7927296,-0.586894,-1.3948259,1.3795819,149.1,-148.5,-21.900002,,,,,,
457891,-0.32359535,9.1731205,-3.2389443,-0.312502,-0.434454,0.106708,153.90001,-138.90001,-22.5,,,,,,
457911,-0.3002678,9.042128,-3.1318767,-0.297258,-0.41158798,-0.19055,149.1,-141.3,-22.5,,,,,,
457951,-0.0849363,9.094166,-2.9338913,-0.327746,0.11432999,-0.67835796,153.90001,-138.90001,-23.7,,,,,,
458028,-0.43903694,8.96736,-2.799309,-0.41158798,1.227142,-1.547266,158.70001,-134.1,-23.7,,,,,,
458075,-0.723753,8.862684,-2.987724,-0.41158798,1.432936,-1.5244,163.5,-143.70001,-22.5,,x,,,,
458115,-0.8864479,8.817225,-3.1498208,0.20579399,0.80030996,-0.777444,158.70001,-141.3,-21.900002,,x,,,,
458210,-1.2889981,8.94463,-3.1683633,0.091464,-0.007622,-0.053354,161.1,-136.5,-23.7,,x,,,,
458309,-2.8848436,8.5139675,-3.5248566,-0.40396598,-3.612828,2.339954,161.1,-131.70001,-20.7,,x,,,,
458329,-2.978752,9.292151,-3.7180567,0.0,-4.34454,3.7881339,153.90001,-141.3,-23.1,,x,,,,
458369,-3.2491126,9.86577,-5.062084,-0.091464,-5.846074,4.9009457,156.3,-146.1,-24.300001,,x,,,,
458409,-2.187409,8.80287,-4.650562,-0.35061198,-9.809514,4.9619217,144.3,-143.70001,-24.300001,,x,,,,
458435,-0.7644267,8.813039,-3.9830341,0.23628199,-11.920808,4.939056,134.70001,-146.1,-27.900002,,x,,,,
458455,-0.10467502,7.3906546,-3.4339387,0.70122397,-12.69063,4.5274677,134.70001,-155.70001,-26.7,,x,,,,
458495,1.3781214,7.044928,-1.74897,1.951232,-12.667764,5.617414,132.3,-153.3,-26.7,,x,,,,
458515,1.5886678,6.30981,-1.1609955,1.699706,-10.777508,4.756128,127.50001,-155.70001,-28.500002,,x,,,,
458559,2.9362838,7.3906546,-1.338644,2.118916,-7.172302,3.84911,120.3,-160.5,-27.900002,,x,,,,
458579,3.0690715,7.255474,-2.1557074,1.8521459,-5.320156,2.957336,113.100006,-155.70001,-27.900002,,x,,,,
