time,sensor_accX,sensor_accY,sensor_accZ,sensor_gyroX,sensor_gyroY,sensor_gyroZ,sensor_magX,sensor_magY,sensor_magZ,label_Boxing_slip_left,label_Boxing_slip_right,label_Boxing_pullback,label_Boxing_roll_left,label_Boxing_roll_right,label_Boxing_recording_cut
1441919,1.5300497,9.179102,-1.4798057,1.493912,-1.272874,-0.983238,69.9,-167.70001,-30.300001,,,,,,
1441939,1.4331505,8.583352,-1.4672447,1.013726,-0.830798,-1.516778,65.100006,-177.3,-28.500002,,,,,,
1441959,1.7585404,8.91891,-1.5192832,1.539644,-0.975616,-1.173788,77.100006,-172.5,-29.7,,,,,,
1441979,1.982844,9.406396,-1.606612,1.3490939,-0.602138,-1.318606,74.700005,-172.5,-30.300001,,,,,,
1441999,1.7920363,9.066651,-1.8022047,0.625004,-0.121952,-1.8673899,69.9,-170.1,-30.300001,,,,,,
1442022,1.9325999,9.267029,-1.8805615,0.92988396,-0.20579399,-2.500016,77.100006,-167.70001,-29.1,,,,,,
1442042,1.9648997,9.110913,-1.9529368,0.746956,0.015244,-3.35368,81.9,-172.5,-28.500002,,,,,,
1442082,2.104267,8.510977,-1.8434767,1.1356779,-0.068598,-4.367406,84.3,-172.5,-29.7,,,,,,
1442102,2.003779,8.077921,-1.9834421,0.868908,0.503052,-4.664664,91.5,-167.70001,-29.1,,,,,,
1442142,1.7633255,7.4313283,-2.8250291,1.196654,1.3490939,-3.50612,93.9,-167.70001,-27.300001,,,,,,
1442204,2.355487,10.059568,-5.4676247,2.423796,2.637212,-4.657042,101.100006,-165.3,-26.1,,,,,,
1442224,2.0767524,8.589334,-5.9927945,4.9924097,0.94512796,-5.312534,105.9,-165.3,-23.7,,,,,,
1442244,2.5289485,10.121178,-5.0590935,4.375028,-2.36282,-2.454284,115.50001,-162.90001,-23.1,,,,,,
1442264,2.727532,10.487839,-4.7695923,2.01983,-0.510674,-3.2393498,113.100006,-160.5,-23.7,,,,,,
1442284,2.1347723,8.824403,-4.782751,0.80030996,-0.55640596,-4.070148,113.100006,-162.90001,-23.7,,,,,,
1442304,1.949946,7.864982,-4.146327,0.663114,-1.958854,-3.3155699,117.9,-155.70001,-21.300001,,,,,,
1442328,2.1604924,8.034855,-3.334049,-0.297258,-2.2484899,-1.707328,117.9,-160.5,-20.7,,,,,,
1442348,2.096491,8.187979,-3.0349774,-2.2256238,-1.1128119,-1.326228,122.700005,-160.5,-24.300001,,,,,,
1442368,2.192194,8.083902,-2.9542282,-2.2637339,-1.051836,-1.1356779,125.100006,-155.70001,-22.5,,,,,,
1442428,2.3614686,8.149698,-2.217316,-1.310984,-0.81555396,0.19055,125.100006,-155.70001,-24.300001,,,,,,
1442448,2.4117124,8.146708,-2.2328677,-1.204276,-0.579272,0.144818,122.700005,-155.70001,-26.7,,,,,,
1442468,2.3800108,8.224466,-2.3207948,-0.868908,-0.129574,0.182928,122.700005,-162.90001,-26.1,,,,,,
1442508,2.6719046,9.988988,-2.6635306,0.388722,-0.060976,0.716468,127.50001,-158.1,-24.300001,,,,,,
1442529,1.6849687,9.569091,-2.8591235,-0.830798,0.182928,-1.3490939,127.50001,-158.1,-26.1,,,,,,
1442549,1.6185749,9.478173,-3.0086591,-0.53354,-0.053354,-1.173788,122.700005,-162.90001,-26.7,,,,,,
1442571,0.68606997,9.512866,-2.827422,-0.221038,-0.99086,-1.204276,129.90001,-155.70001,-26.1,,,,,,
1442591,0.16807817,9.255066,-2.677886,-0.19055,-0.655492,-0.518296,129.90001,-158.1,-26.1,,,,,,
1442611,-0.5796005,10.001549,-2.577398,-0.091464,-0.33536798,-0.060976,122.700005,-160.5,-24.300001,,,,,,
1442633,-1.108359,10.288059,-2.7203543,-0.548784,0.3811,-0.396344,120.3,-155.70001,-23.7,,,,,,
1442653,-1.7435868,9.901061,-2.820244,-0.868908,0.94512796,-0.92226195,125.100006,-158.1,-25.500002,,,,,,
1442675,-1.8823559,9.786816,-3.0002851,-0.81555396,0.853664,-0.7622,129.90001,-162.90001,-24.900002,,,,,,
1442695,-2.279523,9.326245,-2.9141526,-0.45731997,0.30488,-1.02897,134.70001,-160.5,-24.900002,,,,,,
1442715,-2.493658,8.808851,-2.9045823,-0.320124,0.007622,-1.211898,127.50001,-155.70001,-25.500002,,,,,,
1442735,-2.4781063,8.332729,-2.950041,0.23628199,-0.503052,-1.02897,132.3,-155.70001,-25.500002,,,,,,
1442755,-2.2819154,8.586941,-2.6467826,0.861286,-1.1204339,-0.617382,132.3,-155.70001,-24.900002,,,,,,
1442775,-2.1975772,9.025379,-2.7873464,0.83842,-0.853664,-1.150922,132.3,-155.70001,-24.900002,,,,,,
1442815,-2.5295467,8.2777,-3.1611855,1.158544,-1.242386,-1.493912,137.1,-150.90001,-26.1,,,,,,
1442838,-2.1975772,8.228653,-2.957817,0.846042,-1.6006199,-1.021348,134.70001,-150.90001,-24.300001,,,,,,
1442858,-1.3302699,9.509277,-2.9392745,1.044214,-1.75306,-0.160062,137.1,-160.5,-24.900002,,,,,,
1442878,-1.4032434,8.554641,-2.9297042,0.129574,-1.089946,-1.3567159,139.5,-150.90001,-23.7,,,,,,
1442940,-0.6669294,9.123475,-3.1635783,0.518296,0.20579399,-0.746956,137.1,-148.5,-24.300001,,,,,,
1442990,-0.47073853,8.443984,-3.355582,0.198172,1.33385,-2.2942219,139.5,-150.90001,-23.7,,,,,,
1443030,-0.44202766,8.404507,-3.7545435,-0.56402797,2.987824,-2.423796,144.3,-148.5,-23.7,,,,,,
1443246,0.82842803,8.162259,-3.7270288,-0.28201398,0.26677,-1.493912,163.5,-138.90001,-21.300001,,,,,,
1443344,-0.10886202,9.727599,-3.0248091,-1.6311079,0.091464,0.45731997,168.3,-141.3,-22.5,,,,,,
1443365,-1.1615937,10.298227,-2.731719,-1.6539739,-0.007622,-0.480186,163.5,-134.1,-20.7,,,,,,
1443406,-2.752056,9.017604,-2.2579896,-1.288118,0.640248,-1.768304,168.3,-141.3,-23.7,,,,,,
1443428,-3.401041,8.850721,-3.015837,-0.907018,1.6082419,-1.8902559,170.70001,-138.90001,-23.7,,,,,,
1443448,-3.627139,9.139027,-3.7826562,0.121952,0.87653,-1.265252,168.3,-138.90001,-23.1,,,,,,
1443468,-3.317899,9.199439,-3.5463896,0.541162,-0.884152,-1.089946,170.70001,-141.3,-22.5,,,,,,
1443531,-2.2603822,9.212598,-3.8077781,0.975616,-1.951232,0.708846,170.70001,-138.90001,-22.5,,,,,,
1443551,-2.0869207,8.787916,-3.6534572,0.182928,-1.21952,0.327746,173.1,-141.3,-22.5,,,,,,
1443572,-1.9888253,8.440993,-3.463846,-0.28201398,-1.059458,0.525918,170.70001,-141.3,-23.1,,,,,,
1443592,-1.6867632,8.333328,-3.3442173,-0.388722,-0.68597996,1.1356779,170.70001,-136.5,-21.300001,,,,,,
1443614,-1.3422328,9.032557,-3.4118075,-0.091464,-0.099086,1.6234859,161.1,-136.5,-22.5,,,,,,
1443634,-1.0957979,9.295142,-3.3023474,-0.045732,-0.358234,0.746956,175.5,-136.5,-21.900002,,,,,,
1443656,-0.9354956,8.830983,-3.155204,-0.221038,-0.251526,0.007622,168.3,-143.70001,-21.300001,,,,,,
1443676,-0.92891604,8.559426,-3.166569,-0.259148,0.068598,-0.449698,168.3,-134.1,-21.300001,,,,,,
1443698,-0.94805664,8.75442,-3.3448155,-0.144818,0.22865999,-0.449698,170.70001,-136.5,-23.1,,,,,,
1443718,-0.8840553,8.75442,-3.3998446,-0.091464,0.22865999,-0.708846,168.3,-136.5,-23.1,,,,,,
1443741,-0.6968366,9.255664,-3.4243686,0.16768399,0.320124,-0.69360197,173.1,-138.90001,-21.900002,,,,,,
1443761,-0.99291736,8.711354,-3.489566,-0.198172,0.525918,-1.303362,170.70001,-141.3,-22.5,,,,,,
1443844,-3.4267612,8.755018,-4.685254,-0.28201398,0.739334,0.82317597,168.3,-138.90001,-21.900002,,,,,,
1443881,-6.9360657,8.040836,-4.785742,-1.303362,2.301844,0.19055,173.1,-136.5,-21.900002,,,,,,
1443901,-7.3362236,9.448865,-6.8798404,0.80793196,6.3719916,1.75306,173.1,-134.1,-21.300001,,,,,,
1443961,-6.969562,9.741357,-5.4155865,-1.8445239,-0.30488,1.8902559,168.3,-143.70001,-23.1,,,x,,,
1444000,-5.6374974,6.690229,-4.2862926,-1.768304,-0.022866,0.60976,158.70001,-143.70001,-21.300001,,,x,,,
1444020,-4.803088,6.159078,-3.6779811,-1.158544,-0.312502,1.41007,161.1,-143.70001,-22.5,,,x,,,
1444063,-2.0217233,5.157787,-2.0109568,0.129574,-2.141782,1.951232,153.90001,-153.3,-23.7,,,x,,,
1444083,-0.75126755,5.518467,-1.3984582,-0.11432999,-2.012208,2.47715,153.90001,-143.70001,-25.500002,,,x,,,
1444103,0.7315289,5.25648,-1.3691492,-0.91463995,-1.013726,2.317088,144.3,-146.1,-23.1,,,x,,,
1444126,2.3447204,5.551963,-0.9187476,-0.792688,-0.708846,4.260698,146.70001,-148.5,-23.7,,,x,,,
1444146,3.6414945,7.1179013,-0.9468603,-1.6158639,0.891774,6.158576,141.90001,-150.90001,-23.7,,,x,,,
1444166,4.883837,8.293252,-1.4875816,-1.989342,2.6829438,7.118948,134.70001,-153.3,-23.1,,,x,,,
1444186,5.6536474,8.704177,-1.430758,-2.027452,3.01069,7.309498,129.90001,-155.70001,-22.5,,,x,,,
1444206,6.700996,9.981212,-1.5366293,-2.416174,3.079288,8.300358,120.3,-160.5,-23.1,,,x,,,
1444226,6.3038287,10.056578,-2.0516305,-2.004586,3.894842,6.1204658,115.50001,-162.90001,-23.1,,,x,,,
1444250,7.1573787,10.757003,-2.8645067,-0.259148,2.6677,4.390272,110.700005,-160.5,-24.300001,,,x,,,
1444271,7.162762,12.196733,-3.3789096,-0.022866,1.6082419,3.50612,101.100006,-162.90001,-25.500002,,,x,,,
1444291,6.5042067,11.746331,-3.9686787,0.083841994,0.83842,0.358234,101.100006,-170.1,-24.900002,,,x,,,
1444311,6.714753,11.08359,-4.0009785,1.227142,-0.663114,-0.785066,98.700005,-167.70001,-24.300001,,,x,,,
1444331,6.640583,11.027962,-3.8927145,0.853664,-1.3719599,0.19055,103.50001,-165.3,-24.900002,,,x,,,
1444351,6.46772,12.29124,-3.756338,0.34298998,-1.821658,0.80793196,101.100006,-167.70001,-24.300001,,,x,,,
1444372,6.212911,11.922784,-3.4949493,-0.40396598,-1.29574,-1.1128119,105.9,-162.90001,-23.7,,,x,,,
1444392,6.0849085,10.648141,-2.9392745,-1.02897,-1.6463519,-2.012208,105.9,-162.90001,-21.900002,,,x,,,
1444412,6.3014364,9.887901,-1.9756663,-1.036592,-0.87653,-0.739334,105.9,-160.5,-22.5,,,x,,,
1444433,5.6913304,10.445969,-1.8560376,-2.599102,0.67835796,0.20579399,101.100006,-155.70001,-23.7,,,x,,,
1444453,4.9352775,10.2426,-2.280719,-2.179892,1.097568,-1.577754,103.50001,-160.5,-24.900002,,,x,,,
1444473,4.4244637,9.257459,-1.9774606,-1.1280559,0.17530599,-3.6585598,105.9,-160.5,-24.300001,,,x,,,
1444494,4.128981,8.7191305,-1.4816002,-0.503052,-1.021348,-3.8262439,113.100006,-160.5,-24.900002,,,x,,,
1444514,3.4835846,8.187381,-1.0539279,-0.480186,-1.1280559,-3.574718,115.50001,-162.90001,-25.500002,,,x,,,
1444536,2.8794603,7.9612827,-1.0951998,-0.03811,-0.830798,-3.437522,117.9,-150.90001,-24.900002,,,x,,,
1444576,1.6891557,7.6837444,-1.5156943,0.594516,-0.7622,-4.0167937,129.90001,-158.1,-24.300001,,,x,,,
1444608,0.09689916,6.965973,-2.0683784,1.204276,-0.960372,-3.612828,134.70001,-153.3,-25.500002,,,x,,,
1444648,-0.45757937,7.146014,-2.5899591,1.1356779,-1.41007,-2.843006,139.5,-150.90001,-24.300001,,,x,,,
1444668,-0.97138417,6.8014836,-2.2705507,0.34298998,-1.3643379,-2.355198,146.70001,-153.3,-23.7,,,x,,,
1444692,-1.6197711,6.7237253,-2.7203543,-0.060976,-0.091464,-1.6539739,139.5,-153.3,-27.300001,,,x,,,
1444732,-2.0492377,7.7591105,-2.89561,-0.47256398,0.289636,-0.785066,146.70001,-148.5,-24.300001,,,x,,,
1444784,-3.4943511,8.408095,-4.237843,-0.007622,1.288118,-0.41921,146.70001,-150.90001,-25.500002,,,,,,
1444804,-3.7467675,8.829786,-4.2252817,0.23628199,0.967994,-1.1280559,151.5,-146.1,-23.7,,,,,,
1444847,-4.0392594,10.014708,-4.8545284,0.548784,1.265252,-2.050318,144.3,-148.5,-23.7,,,,,,
1444887,-3.9603045,9.752123,-4.8216305,1.150922,0.785066,-1.798792,153.90001,-143.70001,-21.900002,,,,,,
1444907,-3.80718,9.575072,-4.8497434,0.46494198,0.785066,-1.310984,144.3,-146.1,-21.900002,,,,,,
1444931,-3.2921789,9.244898,-4.8258176,0.259148,0.503052,-0.81555396,151.5,-143.70001,-21.900002,,,,,,
1444971,-2.1407537,9.207813,-4.421473,-0.182928,-0.34298998,-0.617382,161.1,-141.3,-21.300001,,,,,,
1444991,-1.5832845,9.034351,-4.0715594,-0.487808,-0.87653,-0.56402797,153.90001,-148.5,-21.900002,,,,,,
1445012,-1.1980804,8.706569,-3.756936,-1.013726,-0.853664,-0.34298998,158.70001,-143.70001,-21.900002,,,,,,
1445032,-0.8206521,8.701186,-3.6911402,-1.272874,-0.49543,-0.053354,151.5,-148.5,-22.5,,,,,,
1445092,0.05084215,8.80945,-3.0696697,-1.1128119,0.20579399,0.106708,153.90001,-143.70001,-23.1,,,,,,
1445112,-0.09151588,8.474489,-3.0379682,-1.082324,0.632626,-0.160062,153.90001,-143.70001,-23.7,,,,,,
1445132,-0.08732887,8.741859,-3.0589032,-0.586894,0.640248,-0.060976,158.70001,-143.70001,-24.300001,,,,,,
1445154,-0.24284604,8.484658,-3.032585,-0.518296,0.53354,-0.388722,149.1,-148.5,-22.5,,,,,,
1445194,-0.17166704,8.8579,-3.1115398,-0.083841994,0.47256398,-0.57164997,161.1,-148.5,-23.7,,,,,,
1445216,-0.30086592,8.90276,-3.2610755,0.160062,0.41158798,-0.67073596,149.1,-148.5,-23.1,,,,,,
1445236,-0.556273,8.908143,-3.3920689,0.30488,0.365856,-0.7622,156.3,-143.70001,-24.300001,,,,,,
1445256,-0.74528617,8.8579,-3.5990262,0.251526,0.22865999,-0.716468,156.3,-143.70001,-23.7,,,,,,
1445276,-0.67410713,8.790309,-3.5045197,0.33536798,-0.16768399,-0.45731997,165.90001,-146.1,-22.5,,,,,,
1445300,-0.76622117,8.799879,-3.5105011,0.182928,-0.160062,-0.297258,161.1,-141.3,-22.5,,,,,,
1445320,-0.9606176,8.720924,-3.6014187,0.022866,0.007622,-0.274392,158.70001,-146.1,-24.900002,,,,,,
1445342,-1.4379357,9.115101,-3.840676,-0.099086,0.144818,-0.068598,151.5,-138.90001,-21.900002,,,,,,
1445362,-2.050434,8.405105,-4.065578,-0.663114,0.19055,-0.579272,156.3,-143.70001,-23.1,,,,,,
1445382,-3.4333405,9.274207,-4.3568735,-0.41158798,0.060976,0.739334,156.3,-141.3,-23.1,,,,,,
1445402,-3.8562276,9.381872,-4.3329477,-0.777444,0.129574,0.586894,149.1,-143.70001,-22.5,,,,,,
1445422,-5.2654524,9.932762,-4.685852,-1.5929979,1.3414719,0.327746,151.5,-141.3,-22.5,,,,,,
1445443,-6.204537,9.75631,-4.935876,-1.669218,2.2637339,-0.327746,151.5,-143.70001,-24.300001,,,x,,,
1445463,-7.1651545,9.91422,-6.086105,-0.655492,3.2545938,0.35061198,153.90001,-143.70001,-21.300001,,,x,,,
1445487,-7.2662406,11.143404,-5.7499485,-1.958854,-0.67835796,1.920744,153.90001,-148.5,-23.1,,,x,,,
1445507,-6.785932,9.660607,-4.849145,-1.8292799,-0.853664,0.16768399,156.3,-148.5,-21.900002,,,x,,,
1445530,-6.046029,8.218485,-4.350892,-1.036592,-0.93750596,-0.632626,151.5,-150.90001,-23.1,,,x,,,
1445550,-4.865893,5.878549,-3.3244786,-0.091464,-0.7622,-1.1432999,156.3,-150.90001,-23.1,,,x,,,
1445570,-4.306031,5.419175,-2.9943037,0.213416,-0.41921,-0.625004,153.90001,-153.3,-23.7,,,x,,,
1445590,-3.138456,5.2570786,-2.5301447,0.35061198,0.22865999,0.92988396,153.90001,-148.5,-23.7,,,x,,,
1445610,-2.4260678,5.138048,-2.3530943,0.213416,0.907018,1.75306,149.1,-153.3,-23.7,,,x,,,
1445630,-1.2590909,5.1117296,-2.1539128,0.053354,0.99086,2.51526,158.70001,-148.5,-22.5,,,x,,,
1445652,0.09809545,5.6345067,-1.5575643,-0.731712,0.28201398,4.11588,146.70001,-150.90001,-22.5,,,x,,,
1445672,1.1286958,5.7972016,-1.3033535,-2.385686,1.211898,4.939056,141.90001,-150.90001,-23.7,,,x,,,
1445694,2.7646167,6.793708,-1.6383137,-2.126538,2.179892,7.339986,134.70001,-153.3,-23.1,,,x,,,
1445734,5.2229843,8.881227,-1.1633881,-3.2774599,2.637212,8.338468,120.3,-160.5,-26.1,,,x,,,
1445755,6.293062,9.605578,-1.6957353,-2.7362978,3.833866,7.9649897,105.9,-160.5,-24.900002,,,x,,,
1445776,7.019806,10.762386,-2.0773506,-2.073184,3.338436,7.286632,105.9,-160.5,-24.300001,,,x,,,
1445796,6.5119824,10.344883,-2.8513474,-1.6234859,3.407034,4.4360037,93.9,-167.70001,-26.1,,,x,,,
1445860,7.794999,11.667974,-3.5457916,0.099086,0.30488,2.408552,81.9,-167.70001,-23.7,,,x,,,
1445880,7.941544,11.659601,-3.5762968,0.975616,-1.166166,0.510674,81.9,-165.3,-23.7,,,x,,,
1445900,7.8966837,11.3055,-2.9237227,-0.35061198,-2.09605,-0.22865999,77.100006,-165.3,-23.7,,,x,,,
1445960,6.907355,10.345481,-1.9349926,-0.640248,-0.480186,-2.2713559,86.700005,-167.70001,-26.1,,,x,,,
1445984,6.3391194,9.819115,-0.9008033,-0.716468,0.602138,-0.69360197,91.5,-160.5,-24.300001,,,x,,,
1446004,5.392857,10.113999,-1.7136797,0.259148,1.8597679,-1.48629,91.5,-167.70001,-24.900002,,,x,,,
1446047,5.614768,8.226858,-2.0289009,3.7805119,-0.426832,-3.2698379,93.9,-165.3,-23.7,,,x,,,
1446067,5.617161,9.415967,-1.7411942,2.637212,-0.93750596,-1.044214,98.700005,-158.1,-23.1,,,x,,,
1446087,4.9472404,9.029567,-2.2065494,0.274392,-0.274392,-1.29574,98.700005,-162.90001,-23.7,,,x,,,
1446109,4.01653,8.4278345,-2.087519,0.22865999,-1.051836,-2.492394,98.700005,-155.70001,-23.1,,,x,,,
1446129,3.347208,7.5862474,-2.05821,0.274392,-1.463424,-3.910086,101.100006,-162.90001,-24.300001,,,x,,,
1446151,2.7113822,7.174725,-1.8536451,0.716468,-2.568614,-4.771372,105.9,-162.90001,-22.5,,,x,,,
1446172,1.9720774,6.732099,-1.7591385,0.586894,-2.568614,-5.4116197,115.50001,-160.5,-23.1,,,x,,,
1446193,1.1998748,6.7961006,-2.029499,0.26677,-2.2942219,-4.9619217,117.9,-158.1,-21.300001,,,x,,,
1446214,0.4940661,6.5466747,-2.0534248,-0.289636,-2.637212,-5.266802,120.3,-158.1,-23.1,,,x,,,
1446257,-1.9720774,6.0992637,-3.0361738,0.03811,-1.1204339,-3.346058,141.90001,-160.5,-21.900002,,,x,,,
1446285,-2.3626647,7.2447076,-3.0720623,-0.884152,-1.539644,-3.01069,141.90001,-150.90001,-23.7,,,x,,,
1446305,-2.7000175,7.266839,-3.23057,-0.82317597,-1.036592,-2.93447,139.5,-153.3,-22.5,,,x,,,
1446348,-4.3275642,8.237625,-4.3479013,-0.56402797,1.1432999,-3.01069,146.70001,-148.5,-23.1,,,x,,,
1446390,-4.8329954,9.292151,-4.989709,0.41921,-0.434454,-2.835384,151.5,-148.5,-24.300001,,,x,,,
1446410,-5.2391343,9.232935,-5.2433214,0.16768399,-0.144818,-3.056422,158.70001,-146.1,-23.7,,,x,,,
1446430,-4.878454,9.377686,-5.371324,0.56402797,-0.82317597,-2.370442,158.70001,-148.5,-23.1,,,x,,,
1446466,-4.7037964,9.317273,-4.798303,-0.182928,-0.640248,-1.692084,156.3,-146.1,-22.5,,,x,,,
1446486,-4.1026626,9.623522,-4.617664,-0.45731997,-0.541162,-1.173788,161.1,-141.3,-21.900002,,,,,,
1446526,-2.9554243,9.265833,-4.0177264,-0.708846,-0.23628199,-0.92988396,163.5,-141.3,-23.7,,,,,,
1446546,-2.5403132,8.8704605,-3.72344,-0.754578,-0.358234,-0.7622,161.1,-146.1,-24.300001,,,,,,
1446566,-2.0994818,8.764589,-3.588858,-0.525918,-0.40396598,-0.33536798,165.90001,-141.3,-23.7,,,,,,
1446586,-1.6281452,9.363928,-3.6079984,-0.312502,-0.602138,0.17530599,168.3,-141.3,-22.5,,,,,,
1446609,-1.271652,8.810048,-3.4536774,-0.70122397,-0.480186,-0.243904,165.90001,-143.70001,-23.1,,,,,,
1446629,-0.79313755,9.142615,-3.250907,-0.53354,-0.503052,0.106708,158.70001,-141.3,-24.900002,,,,,,
1446653,-0.86910176,8.85431,-3.2867956,-1.089946,-0.007622,-0.22865999,165.90001,-143.70001,-23.1,,,,,,
1446673,-0.8511574,8.281289,-3.3280675,-0.884152,0.274392,-0.03811,168.3,-143.70001,-23.7,,,,,,
1446693,-0.3397452,9.11869,-3.1241007,-0.259148,-0.091464,0.594516,165.90001,-141.3,-23.1,,,,,,
1446715,-0.35110992,8.699391,-2.9297042,-0.579272,0.312502,-0.022866,163.5,-138.90001,-23.7,,,,,,
1446735,-0.10108616,8.846535,-2.874077,-0.3811,0.33536798,0.17530599,163.5,-146.1,-24.900002,,,,,,
1446755,-0.124413736,8.664101,-2.7688038,-0.312502,0.365856,-0.182928,158.70001,-141.3,-23.1,,,,,,
1446839,-0.31701577,8.879433,-3.204252,-0.45731997,0.289636,-0.259148,158.70001,-146.1,-23.1,,,,,,
1446909,-0.71418273,9.435107,-3.7371974,0.22865999,-0.297258,-0.251526,158.70001,-138.90001,-24.900002,,,,,,
1446944,-1.0730685,8.919508,-3.543997,-0.503052,0.23628199,-0.358234,161.1,-141.3,-21.900002,,,,,,
1446965,-1.430758,8.688026,-3.6133816,-0.70122397,0.60976,-0.41921,158.70001,-143.70001,-22.5,,,,,,
1447006,-3.1689615,8.785524,-4.154701,-1.082324,1.196654,0.35061198,163.5,-146.1,-23.7,,,x,,,
1447026,-4.015932,8.56122,-4.358668,-1.173788,1.234764,0.41921,163.5,-148.5,-22.5,,,x,,,
1447048,-4.8431635,9.033155,-4.953222,-0.899396,1.920744,1.021348,158.70001,-143.70001,-23.7,,,x,,,
1447068,-5.4239607,9.719823,-5.4508767,-0.777444,1.455802,1.303362,158.70001,-143.70001,-23.1,,,x,,,
1447088,-5.5238504,9.225758,-5.2983503,-1.1051899,0.251526,1.509156,161.1,-146.1,-24.300001,,,x,,,
1447108,-5.769687,9.020595,-4.7965083,-1.4024479,-0.083841994,2.888738,161.1,-148.5,-22.5,,,x,,,
1447128,-5.61417,9.374695,-4.4202766,-2.01983,0.57164997,3.39179,146.70001,-143.70001,-23.7,,,x,,,
1447148,-5.63989,9.596007,-4.205543,-2.13416,1.3719599,2.461906,151.5,-150.90001,-24.300001,,,x,,,
1447170,-5.7056856,9.446472,-3.9722674,-1.6082419,1.722572,0.312502,149.1,-153.3,-24.300001,,,x,,,
1447212,-4.940661,6.358858,-3.4399202,-0.442076,0.182928,-0.67835796,146.70001,-150.90001,-24.900002,,,x,,,
1447302,0.870298,5.8887177,-1.7453812,-2.942092,0.785066,5.114362,132.3,-160.5,-26.1,,,x,,,
1447364,3.9543233,8.1688385,-2.262775,-1.288118,2.13416,4.4055157,108.3,-160.5,-26.7,,,x,,,
1447404,4.4244637,9.479968,-2.3919737,-1.013726,-0.22865999,3.8033779,103.50001,-160.5,-26.7,,,x,,,
1447448,5.529832,9.886107,-2.5923517,0.3811,-1.189032,1.6311079,98.700005,-165.3,-27.300001,,,x,,,
1447544,7.8039713,10.500998,-2.2938783,-0.40396598,1.021348,1.3872039,89.100006,-170.1,-27.900002,,,x,,,
1447564,7.702885,10.371799,-1.8799634,-0.07622,1.089946,0.20579399,86.700005,-174.90001,-27.900002,,,x,,,
1447604,7.015021,11.016597,-2.354889,0.442076,1.318606,-2.7134318,84.3,-167.70001,-28.500002,,,x,,,
1447624,6.788923,9.976427,-2.1862125,0.49543,0.708846,-3.650938,89.100006,-162.90001,-24.900002,,,x,,,
1447644,6.8511295,10.266526,-2.0767524,1.021348,0.67073596,-2.652456,86.700005,-170.1,-27.300001,,,x,,,
1447664,5.9551115,10.370603,-2.104865,0.518296,1.265252,-2.141782,89.100006,-165.3,-25.500002,,,x,,,
1447684,5.1900864,10.081101,-2.6264458,0.121952,1.417692,-3.54423,91.5,-162.90001,-26.7,,,x,,,
1447704,5.06328,9.523034,-2.546893,0.091464,0.213416,-5.25918,105.9,-167.70001,-24.300001,,,x,,,
1447724,5.053112,8.448172,-2.141352,0.7622,-0.083841994,-5.480218,101.100006,-160.5,-24.300001,,,x,,,
1447747,4.1852064,7.9050574,-1.9977975,0.70122397,-0.091464,-4.321674,105.9,-158.1,-25.500002,,,x,,,
1447767,3.4961457,7.765092,-2.2962708,0.754578,0.11432999,-3.2622159,110.700005,-160.5,-28.500002,,,x,,,
1447787,3.175541,8.599502,-2.4458065,1.051836,-0.525918,-2.8048959,115.50001,-158.1,-24.300001,,,x,,,
1447808,2.7951221,7.9475255,-2.1784368,0.442076,-1.06708,-3.8262439,117.9,-162.90001,-24.900002,,,x,,,
1447828,2.1694646,7.4032154,-2.0952947,0.19055,-1.06708,-4.108258,117.9,-158.1,-24.300001,,,x,,,
1447848,1.4110193,6.91872,-2.2113345,0.221038,-1.097568,-4.352162,122.700005,-158.1,-23.7,,,x,,,
1447869,0.3774282,5.928793,-2.2316713,0.373478,-1.204276,-4.4969797,122.700005,-155.70001,-25.500002,,,x,,,
1447889,-1.0240208,5.9975796,-2.7137747,0.594516,-0.586894,-3.018312,127.50001,-158.1,-24.300001,,,x,,,
1447909,-1.8249342,7.219586,-3.468631,0.426832,-0.57164997,-2.05794,137.1,-150.90001,-24.900002,,,x,,,
1447974,-3.3292637,7.7842326,-3.5751004,-0.82317597,-0.632626,-0.967994,137.1,-158.1,-23.7,,,x,,,
1448104,-4.2557874,9.91422,-4.3054333,0.594516,-0.045732,-2.027452,144.3,-158.1,-24.900002,,,x,,,
1448149,-3.9393697,9.92379,-4.421473,0.388722,-0.41158798,-2.01983,149.1,-148.5,-24.300001,,,x,,,
1448169,-3.7001123,9.448865,-4.2815075,0.083841994,-0.7622,-2.149404,146.70001,-146.1,-23.7,,,x,,,
1448211,-2.2442324,8.638381,-3.7042994,0.099086,-1.432936,-0.45731997,151.5,-143.70001,-23.7,,,,,,
1448251,-0.9181495,9.520043,-3.5673246,-0.083841994,-1.737816,-0.708846,151.5,-146.1,-23.1,,,,,,
1448291,-0.2254999,8.733485,-3.2114296,0.617382,-2.576236,-2.309466,158.70001,-143.70001,-23.7,,,,,,
1448329,-0.31223062,9.055286,-3.0929973,0.769822,-1.730194,0.099086,161.1,-138.90001,-24.900002,,,,,,
1448349,-0.42707407,8.971546,-3.06309,0.23628199,-1.089946,0.518296,158.70001,-146.1,-21.300001,,,,,,
1448390,-0.47851437,8.663503,-3.0738568,-0.777444,0.22865999,0.41158798,161.1,-146.1,-23.7,,,,,,
1448430,-0.2769402,8.649746,-3.0732586,-0.632626,0.884152,-0.160062,158.70001,-148.5,-21.900002,,,,,,
1448450,-0.018542431,8.762197,-2.8974047,-0.487808,0.884152,-0.221038,156.3,-141.3,-23.7,,,,,,
1448510,-0.22191104,9.127662,-3.3107214,-0.099086,1.150922,-0.022866,153.90001,-143.70001,-23.7,,,,,,
1448533,-0.4886828,8.953004,-3.3824985,-0.30488,1.089946,-0.30488,153.90001,-141.3,-23.7,,,,,,
1448553,-0.8601296,8.8166275,-3.6038115,-0.144818,0.754578,-0.746956,153.90001,-138.90001,-23.7,,,,,,
1448573,-0.5724228,9.052296,-3.4841828,0.03811,-0.17530599,-0.716468,156.3,-146.1,-23.7,,,,,,
1448593,-0.51559925,8.883021,-3.1199138,-0.091464,-0.28201398,-0.586894,153.90001,-141.3,-23.1,,,,,,
1448613,-0.78177285,9.215589,-2.8537402,-0.480186,-0.160062,-0.3811,156.3,-136.5,-21.900002,,,,,,
1448633,-1.2979703,9.046912,-3.167167,-1.02897,0.594516,-1.074702,161.1,-148.5,-23.1,,,,,,
1448654,-2.1144354,8.588137,-3.6085966,-0.23628199,0.93750596,-1.059458,161.1,-146.1,-23.1,,,,,,
1448674,-2.9859297,8.821412,-3.9501362,-0.3811,0.830798,-0.28201398,156.3,-150.90001,-23.7,,,,,,
1448735,-5.7038913,9.357946,-5.7385836,-0.022866,1.1204339,-0.099086,158.70001,-141.3,-23.1,,,,,,
1448795,-5.1727405,8.729299,-4.816247,-2.355198,2.012208,2.355198,149.1,-146.1,-22.5,,,x,,,
1448869,-2.9847333,7.1274714,-3.3035436,-1.250008,1.516778,-0.769822,149.1,-150.90001,-24.300001,,,x,,,
1448890,-2.3082337,6.890009,-2.802898,-1.036592,0.47256398,-1.29574,144.3,-150.90001,-23.1,,,x,,,
1448930,0.099889874,7.576079,-1.527059,-0.503052,-1.79117,-1.3567159,146.70001,-146.1,-23.7,,,x,,,
1448950,1.1095552,7.0443296,-1.2100432,-1.79117,-0.998482,-1.989342,153.90001,-148.5,-24.900002,,,x,,,
1448972,1.702913,6.1100307,-1.1466401,-1.189032,-0.015244,-1.3795819,153.90001,-146.1,-24.300001,,,x,,,
1448992,2.4619565,7.651445,-1.1095552,-0.11432999,0.106708,1.1280559,149.1,-148.5,-24.300001,,,x,,,
1449052,2.664727,9.524829,-2.5343318,0.899396,2.2180018,-0.632626,146.70001,-150.90001,-22.5,,,x,,,
1449076,2.639605,9.690515,-3.258683,0.69360197,2.492394,-0.91463995,153.90001,-150.90001,-21.900002,,,x,,,
1449096,2.56065,9.962071,-3.6456814,0.967994,2.103672,-1.021348,149.1,-150.90001,-21.900002,,,x,,,
1449116,2.3835998,9.694701,-3.7037013,0.586894,1.3719599,-1.1280559,151.5,-148.5,-22.5,,,x,,,
1449159,2.9314988,10.736068,-3.7431786,0.655492,0.57164997,0.17530599,151.5,-150.90001,-22.5,,,x,,,
1449179,2.978752,10.306602,-3.5505767,-0.137196,0.69360197,0.053354,146.70001,-148.5,-20.7,,,x,,,
1449199,2.8316088,10.223459,-3.3484044,-0.373478,0.731712,0.396344,151.5,-143.70001,-22.5,,,x,,,
1449219,3.0098555,9.968053,-3.4728181,-0.777444,1.1128119,0.586894,153.90001,-146.1,-21.900002,,,x,,,
1449239,3.2251868,10.462717,-3.7934227,-0.33536798,1.440558,1.196654,149.1,-150.90001,-23.1,,,x,,,
1449280,3.267057,10.071531,-3.9148457,-0.358234,0.22865999,1.242386,141.90001,-150.90001,-20.7,,,x,,,
1449302,3.588858,10.718123,-3.7874413,0.07622,-0.426832,1.3719599,146.70001,-148.5,-21.300001,,,x,,,
1449322,4.255189,10.904744,-3.4195833,-0.94512796,-0.891774,1.4024479,141.90001,-146.1,-19.5,,,x,,,
1449342,3.995595,10.287461,-3.1193156,-1.570132,-0.884152,1.989342,141.90001,-146.1,-21.300001,,,x,,,
1449362,3.7994041,10.435801,-3.0343792,-1.692084,-0.853664,2.2027578,141.90001,-150.90001,-22.5,,,x,,,
1449385,3.7832544,10.518942,-2.8932176,-1.554888,-0.80030996,0.586894,134.70001,-148.5,-20.1,,,x,,,
1449405,4.0338764,10.279685,-2.3578796,-1.189032,-1.532022,0.49543,139.5,-150.90001,-22.5,,,x,,,
1449425,3.5457916,9.005042,-1.8177565,-2.195136,-1.158544,0.579272,137.1,-150.90001,-23.1,,,x,,,
1449445,3.2455237,9.372302,-1.9774606,-1.8978779,-0.94512796,1.3414719,134.70001,-153.3,-24.300001,,,x,,,
1449465,2.7831593,8.802272,-1.8584303,-1.806414,-1.196654,0.3811,137.1,-148.5,-23.7,,,x,,,
1449485,2.213129,8.112015,-1.6556598,-1.768304,-1.570132,-0.17530599,129.90001,-158.1,-23.1,,,x,,,
1449505,1.644295,7.542583,-1.6604449,-1.814036,-1.570132,-0.67073596,132.3,-153.3,-24.900002,,,x,,,
1449527,0.73691213,7.187286,-1.8416822,-1.79117,-0.998482,-0.586894,144.3,-153.3,-25.500002,,,x,,,
1449548,-0.11962859,7.1729307,-2.2412417,-1.730194,-0.3811,-0.251526,141.90001,-155.70001,-24.900002,,,x,,,
1449569,-0.93848634,6.820026,-2.5181818,-1.9054999,-0.243904,-0.144818,137.1,-150.90001,-24.900002,,,x,,,
1449589,-1.3996545,6.580769,-2.6629324,-1.3643379,-0.358234,0.297258,137.1,-155.70001,-26.1,,,x,,,
1449609,-2.0576117,7.4833665,-3.1073527,-1.3872039,0.327746,1.798792,139.5,-150.90001,-25.500002,,,x,,,
1449649,-2.5032284,7.982816,-3.1695597,-1.6311079,0.426832,0.861286,129.90001,-150.90001,-26.7,,,x,,,
1449669,-2.6958303,8.272916,-3.5577543,-0.91463995,1.082324,0.655492,139.5,-158.1,-24.900002,,,x,,,
1449689,-2.827422,9.266431,-3.710879,-0.785066,0.586894,0.67835796,129.90001,-155.70001,-25.500002,,,x,,,
1449709,-2.769402,8.820216,-3.7156641,-0.579272,0.640248,-0.47256398,129.90001,-153.3,-24.900002,,,x,,,
1449771,-2.9297042,8.901564,-3.7623193,0.68597996,0.068598,-1.211898,132.3,-160.5,-24.300001,,,,,,
1449946,-1.0778537,9.259851,-3.5368195,-0.487808,-0.525918,-1.074702,151.5,-150.90001,-24.900002,,,,,,
1449966,-0.9366919,9.317871,-3.409415,-0.503052,-0.426832,-1.150922,146.70001,-158.1,-27.300001,,,,,,
1450006,-0.61847985,8.797487,-3.13726,-0.40396598,-0.099086,-1.432936,146.70001,-150.90001,-24.900002,,,,,,
1450026,-0.56165624,8.704775,-2.9386764,-0.198172,0.11432999,-1.242386,146.70001,-153.3,-24.900002,,,,,,
1450046,-0.49466425,8.955397,-3.0026777,-0.198172,0.388722,-1.318606,156.3,-148.5,-26.1,,,,,,
1450066,-0.6669294,8.576772,-3.0648847,-0.3811,0.35061198,-1.539644,151.5,-148.5,-25.500002,,,,,,
1450089,-0.698631,8.845937,-3.1031656,0.060976,-0.068598,-0.579272,149.1,-148.5,-24.300001,,,,,,
1450109,-0.4396351,9.095362,-3.024211,0.053354,-0.099086,-0.594516,149.1,-153.3,-24.300001,,,,,,
1450129,-0.36068022,9.600793,-3.1229045,0.068598,0.030488,-0.861286,151.5,-141.3,-23.1,,,,,,
1450150,-0.58079684,8.965565,-3.2449257,-0.20579399,0.213416,-1.745438,158.70001,-148.5,-25.500002,,,,,,
1450170,-0.40135393,9.058277,-3.2766273,0.068598,0.144818,-1.48629,153.90001,-148.5,-24.900002,,,,,,
1450190,-0.46954224,9.242505,-3.421378,0.23628199,0.373478,-1.6006199,153.90001,-148.5,-23.7,,,,,,
1450210,-0.8188577,9.325048,-3.7168605,0.41158798,0.33536798,-1.6158639,158.70001,-146.1,-24.900002,,,,,,
1450231,-0.93848634,9.122278,-3.652261,0.40396598,-0.068598,-1.737816,161.1,-146.1,-24.900002,,,,,,
1450251,-0.99471176,8.943434,-3.5882597,0.327746,-0.083841994,-1.692084,156.3,-150.90001,-23.7,,,,,,
1450275,-1.1849213,9.365125,-3.7365992,0.22865999,0.129574,-1.6539739,158.70001,-150.90001,-24.300001,,,,,,
1450296,-0.974973,9.370508,-3.7270288,0.137196,0.099086,-1.6158639,161.1,-146.1,-24.900002,,,,,,
1450320,-1.2261931,9.158765,-3.6660182,-0.82317597,0.55640596,-0.891774,163.5,-141.3,-24.900002,,,,,,
1450340,-0.9348975,8.640774,-3.3280675,-0.83842,0.312502,-0.55640596,168.3,-146.1,-24.900002,,,,,,
1450361,-0.38041893,8.757411,-2.7789721,-0.80793196,0.30488,0.160062,158.70001,-143.70001,-23.7,,,,,,
1450421,0.09450659,8.731093,-2.580987,-0.91463995,1.1356779,0.68597996,163.5,-141.3,-23.1,,,,,,
1450441,0.16628374,8.705971,-2.689849,-0.746956,1.013726,0.091464,156.3,-148.5,-25.500002,,,,,,
1450461,-0.09151588,8.515163,-2.6372123,-0.49543,0.64787,-0.503052,158.70001,-146.1,-25.500002,,,,,,
1450481,-0.18901318,8.399722,-2.924321,-0.160062,0.358234,-0.846042,156.3,-143.70001,-23.7,,,,,,
1450503,-0.37683007,8.515761,-3.0182295,0.160062,-0.121952,-0.045732,156.3,-148.5,-23.7,,,,,,
1450524,-0.5556748,8.649746,-3.0391645,-0.182928,-0.083841994,0.07622,161.1,-148.5,-24.300001,,,,,,
1450544,-0.51141226,8.820814,-3.1270914,0.11432999,-0.083841994,-0.160062,156.3,-141.3,-23.7,,,,,,
1450627,-0.8607277,9.135438,-3.7934227,0.289636,0.17530599,0.160062,161.1,-136.5,-23.7,,,,,,
1450667,-0.7716044,8.931471,-3.7455714,-0.19055,-0.541162,-0.396344,158.70001,-146.1,-24.300001,,,,,,
1450687,-0.70640683,8.843544,-3.7431786,-0.510674,-0.525918,-0.243904,153.90001,-138.90001,-23.7,,,,,,
1450707,-0.67171454,8.99966,-3.5774932,-0.541162,-0.72409,-0.20579399,168.3,-141.3,-25.500002,,,,,,
1450727,-0.5425157,9.122876,-3.4716218,-0.72409,-0.541162,-0.40396598,161.1,-138.90001,-24.300001,,,,,,
1450747,-0.6238631,8.71614,-3.1994667,-0.94512796,-0.17530599,-0.3811,161.1,-148.5,-23.1,,,,,,
1450767,-0.7105939,8.739467,-3.275431,-0.998482,0.23628199,0.045732,161.1,-141.3,-24.300001,,,,,,
1450787,-0.8589333,8.74485,-3.3149083,-0.785066,0.297258,0.121952,161.1,-148.5,-22.5,,,,,,
1450870,-0.71478087,9.113306,-3.2299721,-0.510674,0.015244,0.30488,156.3,-146.1,-24.300001,,,,,,
1450907,-0.66992015,8.849525,-3.2784216,-0.19055,-0.388722,-0.26677,158.70001,-150.90001,-23.7,,,,,,
1450928,-0.53414166,9.229346,-3.1151285,-0.121952,-0.434454,-0.23628199,156.3,-138.90001,-24.900002,,,,,,
1450968,-0.8756813,8.872254,-3.3478062,-0.365856,-0.030488,-0.297258,161.1,-138.90001,-23.1,,,,,,
1451047,-2.932695,8.399123,-3.7365992,-0.983238,0.708846,1.158544,153.90001,-150.90001,-23.7,,,,,,
1451102,-5.6751804,9.050501,-5.089,-1.3643379,2.446662,0.907018,156.3,-146.1,-23.7,,,x,,,
1451161,-6.434224,9.523034,-5.3001447,-1.730194,0.41158798,2.088428,149.1,-148.5,-23.7,,,x,,,
1451206,-5.033373,7.5234423,-3.9022849,-3.079288,1.1128119,3.2545938,137.1,-160.5,-24.900002,,,x,,,
1451226,-4.2031507,6.5711985,-3.1940835,-2.530504,0.365856,2.644834,134.70001,-153.3,-24.300001,,,x,,,
1451270,-2.1240058,5.051317,-2.0701728,-1.3795819,-0.312502,2.187514,141.90001,-155.70001,-24.900002,,,x,,,
1451290,-0.32479164,5.952121,-1.405636,-0.22865999,-1.089946,3.6661818,129.90001,-158.1,-27.300001,,,x,,,
1451310,1.4845909,7.72382,-0.54789895,-1.554888,-1.242386,3.932952,127.50001,-162.90001,-26.1,,,x,,,
1451352,3.2820106,6.588545,-0.9719823,-2.042696,1.3414719,4.4817357,117.9,-160.5,-26.7,,,x,,,
1451382,4.388575,9.316077,-1.2997646,-1.6463519,2.301844,6.25004,113.100006,-162.90001,-28.500002,,,x,,,
1451442,5.2953596,10.527914,-1.5503865,-0.754578,1.044214,6.341504,93.9,-167.70001,-27.900002,,,x,,,
1451482,5.973654,10.334714,-2.5421076,1.699706,0.060976,4.5579557,81.9,-172.5,-27.900002,,,x,,,
1451522,5.8229218,9.178504,-2.7544484,0.160062,-0.739334,3.551852,67.5,-167.70001,-25.500002,,,x,,,
1451564,6.8840275,10.445371,-3.2156167,0.663114,-1.775926,2.522882,67.5,-167.70001,-26.1,,,x,,,
1451584,7.062274,10.506381,-2.8130665,0.007622,-1.463424,3.079288,65.100006,-172.5,-27.300001,,,x,,,
1451627,6.6316113,10.824594,-3.3621616,-0.11432999,-0.617382,0.884152,62.7,-174.90001,-29.1,,,x,,,
1451647,6.698603,10.052989,-2.4667416,-1.044214,-1.051836,-0.213416,55.500004,-170.1,-26.7,,,x,,,
1451667,6.77696,9.871154,-2.4158995,-2.408552,-0.129574,-0.198172,60.300003,-172.5,-27.900002,,,x,,,
1451687,6.869672,10.23004,-3.334049,-1.516778,0.64787,-1.547266,57.9,-172.5,-26.1,,,x,,,
1451707,6.9928894,10.157664,-2.9177413,-1.3872039,-0.137196,-1.8521459,62.7,-172.5,-26.1,,,x,,,
1451727,7.104742,10.061363,-1.8763745,-2.957336,-0.81555396,-1.56251,67.5,-174.90001,-29.7,,,x,,,
1451747,6.6172557,9.131848,-1.3236904,-4.9619217,0.792688,-2.949714,65.100006,-177.3,-29.7,,,x,,,
1451808,5.082421,7.2488947,-0.48090696,-1.158544,0.053354,-4.672286,84.3,-167.70001,-30.900002,,,x,,,
1451828,4.395753,7.5288258,-0.9073829,-1.036592,1.44818,-3.567096,79.5,-167.70001,-29.7,,,x,,,
1451848,4.1026626,8.49363,-1.5497885,-0.251526,1.440558,-4.413138,89.100006,-165.3,-29.1,,,x,,,
1451868,3.6079984,7.1729307,-1.1233125,-0.053354,1.21952,-6.5854077,93.9,-167.70001,-29.7,,,x,,,
1451933,0.71358454,7.095172,-1.903291,0.93750596,0.92226195,-6.714982,108.3,-162.90001,-29.1,,,x,,,
1451983,-1.1442475,7.4731984,-2.4990413,0.57164997,0.739334,-5.9832697,129.90001,-153.3,-27.900002,,,x,,,
1452003,-1.6604449,6.6842475,-2.4344418,0.41921,0.0,-5.914672,134.70001,-162.90001,-27.900002,,,x,,,
1452045,-3.1611855,7.422356,-2.6079032,0.22865999,0.548784,-3.54423,139.5,-155.70001,-26.7,,,x,,,
1452065,-3.4614534,8.231644,-2.86989,0.35061198,0.57164997,-3.452766,139.5,-148.5,-27.900002,,,x,,,
1452086,-4.108046,8.250186,-2.7885425,0.365856,0.83842,-3.841488,144.3,-153.3,-27.900002,,,x,,,
1452126,-5.0393543,9.802367,-3.8634055,0.884152,1.8521459,-3.8033779,156.3,-148.5,-26.1,,,x,,,
1452226,-3.8006005,10.337107,-4.171449,1.8369019,-0.907018,-2.347576,161.1,-148.5,-23.7,,,,,,
1452245,-3.5278473,9.470398,-4.1313734,1.3414719,-1.097568,-2.7286758,165.90001,-146.1,-25.500002,,,,,,
1452285,-2.765215,9.137232,-4.099672,0.594516,-1.02897,-1.21952,165.90001,-141.3,-23.1,,,,,,
1452305,-2.4164977,9.091773,-3.9680805,0.373478,-1.021348,-0.846042,173.1,-141.3,-23.7,,,,,,
1452326,-2.141352,8.771169,-3.8275168,0.030488,-0.93750596,-0.785066,165.90001,-143.70001,-24.300001,,,,,,
1452367,-1.2088469,8.64197,-3.2832067,-0.053354,-0.891774,-0.655492,175.5,-138.90001,-22.5,,,,,,
1452405,-1.0658908,8.627614,-3.229374,-0.358234,-0.442076,-0.525918,173.1,-134.1,-24.900002,,,,,,
1452425,-0.90798104,8.574978,-3.1803262,-0.40396598,-0.251526,-0.19055,175.5,-136.5,-24.300001,,,,,,
1452465,-0.8924293,8.878236,-3.292777,-0.434454,0.34298998,0.160062,170.70001,-136.5,-23.7,,,,,,
1452487,-0.72136045,8.931471,-3.1635783,-0.22865999,0.739334,0.03811,168.3,-134.1,-23.7,,,,,,
1452507,-0.72435117,8.966762,-3.2239907,-0.40396598,1.173788,-0.022866,168.3,-136.5,-24.300001,,,,,,
1452527,-0.93370116,8.90575,-3.4159944,-0.67835796,1.288118,-0.426832,165.90001,-138.90001,-24.300001,,,,,,
1452547,-0.9378882,8.497219,-3.5511749,-0.17530599,0.884152,-0.28201398,173.1,-138.90001,-24.900002,,,,,,
1452567,-0.93370116,8.662307,-3.5703154,0.03811,0.40396598,0.083841994,173.1,-141.3,-24.300001,,,,,,
1452591,-0.81646514,9.003846,-3.547586,0.388722,0.022866,0.15244,177.90001,-141.3,-24.300001,,,,,,
1452611,-0.8182596,8.993678,-3.523062,0.221038,-0.091464,-0.099086,170.70001,-146.1,-23.1,,,,,,
1452631,-0.84996116,8.897377,-3.6301296,0.045732,-0.106708,-0.213416,175.5,-141.3,-23.1,,,,,,
1452651,-0.794932,8.966163,-3.6295316,0.129574,-0.11432999,-0.106708,175.5,-138.90001,-23.1,,,,,,
1452671,-0.76741743,8.899171,-3.560147,-0.16768399,-0.053354,0.03811,170.70001,-138.90001,-23.1,,,,,,
1452715,-0.6687238,8.80287,-3.222196,-0.579272,0.20579399,0.3811,165.90001,-138.90001,-23.1,,,,,,
1452735,-0.7123883,8.887806,-3.2604773,-0.632626,0.26677,0.373478,168.3,-134.1,-24.900002,,,,,,
1452758,-0.7596416,8.784925,-3.2485144,-0.396344,0.15244,0.19055,173.1,-143.70001,-24.300001,,,,,,
1452778,-0.78595984,8.898573,-3.217411,-0.33536798,-0.045732,0.274392,161.1,-141.3,-24.300001,,,,,,
1452801,-0.82842803,8.7933,-3.1892984,-0.480186,-0.251526,0.030488,168.3,-146.1,-23.7,,,,,,
1452822,-0.7925394,8.8256,-3.1887002,-0.274392,-0.22865999,-0.358234,168.3,-143.70001,-23.7,,,,,,
1452842,-0.5987411,9.348974,-3.128886,-0.213416,-0.30488,-0.55640596,168.3,-138.90001,-24.900002,,,,,,
1452862,-0.7716044,8.842946,-3.1725502,-0.625004,0.068598,-1.089946,163.5,-138.90001,-22.5,,,,,,
1452885,-1.0114597,8.815431,-3.250907,-0.41921,0.373478,-0.30488,168.3,-138.90001,-22.5,,,,,,
1452905,-0.8720924,9.2592535,-3.1863077,-0.396344,0.503052,-0.289636,170.70001,-143.70001,-23.7,,,,,,
1452925,-1.0030857,9.082801,-3.3621616,-0.80030996,0.754578,-0.632626,168.3,-138.90001,-22.5,,,,,,
1452945,-1.1203218,8.560024,-3.4447055,-0.731712,0.640248,-0.434454,177.90001,-138.90001,-24.300001,,,,,,
1452965,-1.1998748,8.90575,-3.4171908,-0.34298998,0.28201398,0.388722,165.90001,-138.90001,-23.1,,,,,,
1452985,-1.0772555,9.281982,-3.3208897,-0.26677,0.121952,0.274392,165.90001,-141.3,-23.7,,,,,,
1453005,-1.1047701,9.150392,-3.183317,-0.46494198,0.19055,-0.07622,170.70001,-141.3,-23.1,,,,,,
1453065,-1.0258152,8.966163,-3.1450357,-0.617382,0.708846,0.17530599,168.3,-138.90001,-24.300001,,,,,,
1453085,-1.1029756,8.871656,-3.062492,-0.40396598,0.594516,0.137196,165.90001,-131.70001,-24.900002,,,,,,
1453105,-1.0455539,8.770571,-3.0846233,-0.510674,0.53354,0.320124,165.90001,-141.3,-23.1,,,,,,
1453125,-0.9881322,8.772963,-3.1067545,-0.617382,0.449698,0.480186,165.90001,-134.1,-23.7,,,,,,
1453149,-0.98992664,8.717934,-3.275431,-0.45731997,0.3811,0.56402797,165.90001,-141.3,-21.300001,,,,,,
1453169,-1.1418549,8.728103,-3.267057,-0.221038,0.15244,0.82317597,165.90001,-136.5,-23.7,,,,,,
1453189,-1.4259728,8.945229,-3.4758089,-0.449698,0.129574,0.640248,165.90001,-143.70001,-22.5,,,,,,
1453211,-1.5073203,8.735878,-3.3669467,-0.365856,-0.15244,0.251526,161.1,-141.3,-24.300001,,,,,,
1453231,-2.2514102,9.003846,-3.5416045,-0.891774,0.57164997,0.640248,161.1,-148.5,-23.1,,,x,,,
1453251,-3.1348674,9.853807,-4.5865602,-1.1432999,1.745438,0.541162,168.3,-141.3,-23.7,,,x,,,
1453271,-4.17444,9.079212,-4.7534423,-1.234764,1.166166,-0.068598,158.70001,-146.1,-21.300001,,,x,,,
1453295,-6.14233,8.985304,-5.23076,-1.8978779,2.385686,0.426832,163.5,-141.3,-23.7,,,x,,,
1453315,-6.614265,10.070335,-6.180611,-1.478668,2.644834,1.493912,158.70001,-143.70001,-23.7,,,x,,,
1453335,-6.927094,10.776742,-6.1554894,-2.2713559,0.998482,2.035074,158.70001,-143.70001,-24.900002,,,x,,,
1453356,-6.811652,9.598998,-5.4197736,-3.16313,-0.022866,2.042696,153.90001,-146.1,-24.300001,,,x,,,
1453376,-6.1136193,8.587539,-4.561438,-3.407034,-0.274392,3.003068,153.90001,-153.3,-24.300001,,,x,,,
1453419,-4.13257,6.8008857,-2.753252,-3.2088618,0.297258,3.3079479,149.1,-150.90001,-27.300001,,,x,,,
1453441,-2.572613,6.2332478,-1.6478839,-2.2637339,0.792688,4.0472817,141.90001,-153.3,-25.500002,,,x,,,
1453461,-2.2197087,6.362447,-1.3781214,-2.157026,0.967994,4.146368,137.1,-153.3,-26.1,,,x,,,
1453481,-1.4636558,6.2123127,-0.94327146,-2.065562,1.3567159,3.368924,134.70001,-155.70001,-23.7,,,x,,,
1453545,1.1753509,7.629912,-1.2937832,-0.442076,1.303362,1.98172,117.9,-160.5,-29.1,,,x,,,
1453566,1.7244462,6.107638,-1.2220061,-0.480186,0.632626,1.18141,125.100006,-160.5,-26.1,,,x,,,
1453586,3.3184972,5.869577,-0.640013,-0.49543,0.320124,3.833866,122.700005,-162.90001,-26.7,,,x,,,
1453607,4.5949345,8.015116,-1.4319543,-0.846042,2.2484899,8.109808,115.50001,-160.5,-27.300001,,,x,,,
1453669,7.594023,10.544662,-1.7932327,-2.560992,-0.884152,10.762263,81.9,-167.70001,-28.500002,,,x,,,
1453691,8.513369,10.678646,-1.7017168,-1.996964,0.541162,6.646384,69.9,-172.5,-28.500002,,,x,,,
1453711,7.7256145,10.199534,-2.204755,-0.99086,0.602138,4.53509,62.7,-170.1,-29.1,,,x,,,
1453734,7.4696093,9.819115,-1.7842605,-1.234764,-0.243904,3.2241058,67.5,-172.5,-28.500002,,,x,,,
1453754,7.8835244,11.539374,-1.9613107,-0.480186,0.213416,2.97258,57.9,-177.3,-27.900002,,,x,,,
1453776,6.6663036,9.852013,-1.9684886,-1.318606,0.41158798,0.67835796,55.500004,-177.3,-29.1,,,x,,,
1453796,6.8726625,10.844931,-2.2771304,-0.396344,-0.586894,0.94512796,57.9,-167.70001,-29.7,,,x,,,
1453816,6.952814,9.6588125,-1.3697474,-0.83842,-1.8445239,-0.95274997,55.500004,-179.70001,-27.900002,,,x,,,
1453836,7.71425,10.228843,-1.0156468,-0.754578,-0.92226195,0.03811,55.500004,-170.1,-28.500002,,,x,,,
1453859,6.664509,9.914818,-2.1898015,-1.074702,0.28201398,-0.92226195,57.9,-172.5,-30.300001,,,x,,,
1453879,6.6579294,9.105531,-1.7962234,-0.510674,-0.975616,-2.942092,57.9,-172.5,-27.900002,,,x,,,
1453899,7.676567,10.028465,-1.7471756,0.213416,-1.417692,-2.576236,60.300003,-170.1,-30.300001,,,x,,,
1453920,7.1896787,9.0217905,-1.351205,-1.6234859,-0.632626,-2.2713559,65.100006,-172.5,-29.7,,,x,,,
1453940,6.6106763,9.984202,-1.6143879,-1.6387299,-0.358234,-2.2942219,62.7,-172.5,-28.500002,,,x,,,
1453960,5.7164526,8.894386,-1.2178191,-1.18141,-0.320124,-5.3354,65.100006,-177.3,-30.900002,,,x,,,
1454024,3.8358908,7.9588904,-0.77220255,-0.28201398,-0.015244,-4.5122237,84.3,-172.5,-30.900002,,,x,,,
1454044,3.258683,7.979227,-0.8840553,0.068598,0.015244,-3.643316,79.5,-165.3,-29.7,,,x,,,
1454064,2.873479,7.7381754,-0.98992664,0.053354,-0.144818,-3.7500238,93.9,-170.1,-30.300001,,,x,,,
1454084,2.7137747,7.215399,-0.92951417,0.137196,-0.388722,-3.8186219,98.700005,-167.70001,-29.7,,,x,,,
1454146,0.9965062,6.7422676,-1.2848111,0.442076,0.625004,-3.414656,108.3,-167.70001,-27.300001,,,x,,,
1454167,-0.22011662,6.45157,-1.9894235,0.510674,1.41007,-4.4055157,108.3,-167.70001,-30.300001,,,x,,,
1454211,-2.2813172,7.328448,-3.0923991,1.25763,0.503052,-3.955818,120.3,-155.70001,-28.500002,,,x,,,
1454274,-3.3537877,8.950611,-3.4871736,1.036592,0.015244,-3.8033779,122.700005,-158.1,-28.500002,,,x,,,
1454294,-4.1612806,8.433218,-3.6050076,1.3719599,0.3811,-4.291186,125.100006,-162.90001,-26.1,,,x,,,
1454314,-4.096083,9.576269,-4.1708508,1.730194,0.289636,-3.1936178,132.3,-153.3,-26.7,,,x,,,
1454354,-4.2228894,9.8532095,-4.079335,1.272874,-0.49543,-3.7119138,144.3,-158.1,-25.500002,,,x,,,
1454382,-3.6779811,10.219871,-3.7730858,1.3948259,-0.777444,-2.599102,144.3,-153.3,-24.900002,,,x,,,
1454402,-3.3914707,10.60328,-3.9979875,0.94512796,-0.03811,-2.568614,141.90001,-148.5,-24.900002,,,x,,,
1454445,-2.807683,9.315478,-4.0320816,1.158544,-0.365856,-1.554888,149.1,-148.5,-24.300001,,,x,,,
1454465,-2.2388492,9.288562,-3.7348046,0.785066,-0.731712,-0.830798,151.5,-150.90001,-25.500002,,,x,,,
1454485,-1.8925244,8.99966,-3.8412743,0.518296,-0.64787,-0.60976,146.70001,-153.3,-23.1,,,x,,,
1454508,-1.2662686,8.7412615,-3.9842303,0.655492,-1.432936,0.022866,156.3,-146.1,-22.5,,,x,,,
1454568,-0.08314187,8.908143,-3.2921789,-0.586894,-0.80030996,0.55640596,151.5,-148.5,-24.300001,,,,,,
1454628,-0.15432088,8.961378,-3.1133342,-0.373478,0.541162,-0.007622,149.1,-150.90001,-24.900002,,,,,,
1454648,-0.14714317,8.826198,-2.9237227,-0.312502,0.68597996,-0.388722,141.90001,-146.1,-23.1,,,,,,
1454670,-0.23327576,9.013416,-2.8262255,-0.34298998,0.655492,-0.46494198,149.1,-150.90001,-24.300001,,,,,,
1454690,-0.36008206,8.835768,-2.8519456,-0.40396598,0.548784,-0.92226195,149.1,-150.90001,-23.7,,,,,,
1454710,-0.4426258,8.836366,-2.95363,-0.259148,0.40396598,-0.81555396,151.5,-150.90001,-22.5,,,,,,
1454730,-0.39357808,9.101942,-3.117521,-0.160062,0.160062,-0.41921,149.1,-150.90001,-24.900002,,,,,,
1454750,-0.56165624,8.771767,-3.1133342,-0.426832,0.0,-0.45731997,151.5,-153.3,-23.1,,,,,,
1454770,-0.48090696,8.775355,-3.0888102,-0.26677,-0.289636,-0.22865999,151.5,-150.90001,-24.300001,,,,,,
1454832,-1.0617038,8.9679575,-3.2766273,-0.72409,-0.251526,-0.55640596,151.5,-150.90001,-24.300001,,,,,,
1454926,-6.3110065,10.472287,-5.1392446,-1.021348,3.589962,-0.35061198,144.3,-148.5,-23.1,,,,,,
1454945,-6.957599,10.926278,-6.5377026,-0.67073596,5.121984,-0.426832,149.1,-150.90001,-24.900002,,,,,,
1454986,-6.6597238,9.052296,-5.7128634,-1.3795819,-0.213416,0.503052,146.70001,-146.1,-22.5,,,,,,
1455006,-5.709275,8.01392,-4.521363,-1.250008,0.297258,0.480186,146.70001,-148.5,-24.300001,,,,,,
1455026,-4.1810193,7.4480762,-4.096681,-0.67073596,0.754578,0.480186,141.90001,-146.1,-24.300001,,,,,,
1455069,-2.5062191,5.9503264,-2.7119803,0.358234,0.640248,0.30488,141.90001,-148.5,-24.900002,,,x,,,
1455105,-0.3283805,5.9138393,-1.4606651,0.129574,-0.754578,0.022866,149.1,-146.1,-23.7,,,x,,,
1455126,1.6688188,7.448674,-1.12092,-0.182928,-0.55640596,0.891774,139.5,-153.3,-23.7,,,x,,,
1455166,3.0929973,7.534807,-0.49346796,-0.94512796,1.074702,1.432936,141.90001,-150.90001,-24.900002,,,x,,,
1455208,2.8441699,8.004948,-1.6137897,-0.49543,3.50612,1.6311079,139.5,-150.90001,-23.7,,,x,,,
1455285,4.2282724,9.323853,-2.149726,-0.160062,0.72409,3.452766,129.90001,-158.1,-21.300001,,,x,,,
1455307,3.9303975,10.108018,-2.6713066,-0.19055,0.983238,3.521364,125.100006,-155.70001,-22.5,,,x,,,
1455347,3.8801534,9.596606,-2.6096978,0.373478,-0.716468,1.006104,108.3,-162.90001,-24.300001,,,x,,,
1455369,4.848547,10.192954,-2.7705982,1.234764,-0.67835796,2.01983,120.3,-158.1,-23.1,,,x,,,
1455389,4.7713866,10.623019,-2.577398,0.20579399,-0.053354,2.385686,120.3,-155.70001,-23.7,,,x,,,
1455409,4.5542607,10.977718,-2.8716843,-0.19055,0.49543,1.951232,113.100006,-158.1,-22.5,,,x,,,
1455429,4.4992313,9.908836,-2.6306329,-0.045732,0.289636,0.34298998,110.700005,-153.3,-23.1,,,x,,,
1455449,5.221788,10.22645,-2.6491752,0.07622,0.907018,1.532022,105.9,-155.70001,-21.300001,,,x,,,
1455469,5.197264,10.530307,-3.299955,-1.21952,1.463424,2.6677,105.9,-160.5,-21.900002,,,x,,,
1455492,5.493943,10.868855,-3.1725502,-0.64787,-0.015244,2.179892,98.700005,-160.5,-23.7,,,x,,,
1455513,5.8163424,10.794686,-2.8304126,-0.53354,-0.312502,0.34298998,101.100006,-167.70001,-23.1,,,x,,,
1455533,6.380989,10.341294,-2.0695746,-1.455802,-0.632626,0.007622,98.700005,-158.1,-20.7,,,x,,,
1455553,6.1142173,10.215086,-2.2944765,-2.461906,1.250008,0.274392,98.700005,-165.3,-24.900002,,,x,,,
1455573,4.8640985,10.14929,-2.9386764,-1.821658,1.585376,-1.425314,96.3,-162.90001,-21.300001,,,x,,,
1455593,4.632019,9.810741,-3.0828288,-0.030488,0.015244,-2.881116,108.3,-167.70001,-23.1,,,x,,,
1455654,4.504615,8.851918,-2.1766422,-2.012208,-2.004586,-1.41007,108.3,-162.90001,-23.1,,,x,,,
1455704,3.1725502,7.3523736,-2.3124208,-0.80793196,-2.2637339,-4.23021,113.100006,-158.1,-25.500002,,,x,,,
1455766,1.4696373,6.906757,-1.953535,-1.432936,-1.5929979,-4.641798,129.90001,-153.3,-25.500002,,,x,,,
1455786,0.025720147,5.4323344,-1.7322221,-1.6539739,-1.760682,-4.9161897,132.3,-150.90001,-25.500002,,,x,,,
1455806,-1.5091147,5.442503,-1.8440747,-1.059458,-0.487808,-3.2850819,137.1,-153.3,-26.1,,,x,,,
1455829,-2.9554243,7.6125655,-2.9554243,-0.525918,0.17530599,-2.40093,146.70001,-153.3,-24.900002,,,x,,,
1455889,-3.6995144,7.679558,-2.6228569,-0.388722,1.440558,-1.8902559,151.5,-150.90001,-26.1,,,x,,,
1455911,-3.8514426,9.109119,-3.350797,-0.19055,2.378064,-1.3795819,141.90001,-146.1,-25.500002,,,x,,,
1455931,-4.320985,8.802272,-3.6391017,-0.007622,2.157026,-2.576236,149.1,-150.90001,-25.500002,,,x,,,
1455953,-4.375416,8.847133,-3.698318,0.640248,1.242386,-2.2637339,156.3,-153.3,-24.900002,,,x,,,
1455994,-4.514185,9.908836,-4.1708508,0.26677,0.617382,-1.94361,153.90001,-148.5,-24.900002,,,x,,,
1456055,-3.710281,10.166038,-4.0434465,0.34298998,-0.95274997,-1.006104,158.70001,-153.3,-23.1,,,,,,
1456095,-2.8800583,9.061866,-3.8550315,0.708846,-1.1356779,-1.3643379,153.90001,-141.3,-23.7,,,,,,
1456130,-1.6706133,9.420752,-3.0684733,0.327746,-0.70122397,-0.594516,163.5,-141.3,-24.300001,,,,,,
1456151,-1.5665364,9.13125,-3.0882123,-0.769822,0.083841994,-0.846042,163.5,-148.5,-24.900002,,,,,,
1456195,-1.0060765,8.808253,-2.9009933,-0.121952,-0.030488,0.030488,165.90001,-146.1,-23.1,,,,,,
1456215,-0.77938026,8.961976,-2.940471,-0.015244,0.007622,0.487808,165.90001,-141.3,-23.7,,,,,,
1456235,-0.59275967,8.833375,-2.8668993,0.099086,-0.11432999,0.251526,158.70001,-143.70001,-25.500002,,,,,,
1456255,-0.4791125,8.884217,-2.8860397,0.40396598,-0.198172,0.19055,161.1,-138.90001,-23.7,,,,,,
1456317,-0.33795077,8.825002,-3.125297,0.03811,0.17530599,-0.160062,163.5,-143.70001,-23.7,,,,,,
1456365,-0.53115094,8.87704,-3.3364415,0.274392,0.121952,-0.022866,158.70001,-143.70001,-23.7,,,,,,
1456385,-0.39776507,9.033155,-3.326273,0.22865999,0.045732,-0.053354,161.1,-143.70001,-23.1,,,,,,
1456426,-0.8631203,8.758608,-3.4692292,-0.426832,0.30488,-0.94512796,163.5,-136.5,-24.300001,,,,,,
1456446,-0.836802,8.800478,-3.4195833,-0.17530599,0.144818,-0.617382,161.1,-141.3,-23.1,,,,,,
1456484,-1.146042,8.589334,-3.509903,-0.69360197,0.26677,-0.160062,158.70001,-141.3,-23.1,,,,,,
1456504,-1.3404384,8.385366,-3.4656403,-0.67073596,0.15244,0.07622,158.70001,-143.70001,-24.900002,,,,,,
1456548,-2.807085,8.86089,-4.212721,-1.158544,0.60976,-0.060976,151.5,-138.90001,-23.1,,,,,,
1456589,-4.742676,9.58883,-4.799499,-0.785066,0.975616,0.998482,161.1,-138.90001,-24.300001,,,,,,
1456609,-5.5944314,11.018392,-5.5878515,-0.93750596,1.821658,1.1051899,153.90001,-146.1,-23.7,,,,,,
1456629,-5.9622893,10.417258,-5.8558197,-1.166166,1.1280559,0.69360197,153.90001,-143.70001,-22.5,,,,,,
1456669,-6.0938807,9.165943,-5.336632,-2.47715,0.846042,3.170752,149.1,-141.3,-24.300001,,,,,,
1456712,-4.662524,8.217288,-3.9405658,-1.570132,-0.182928,1.989342,146.70001,-148.5,-23.7,,,,,,
1456732,-3.7413843,7.4737964,-3.3244786,-1.059458,-0.320124,0.83842,146.70001,-150.90001,-26.1,,,,,,
1456752,-2.9685836,6.5562453,-2.8226366,-0.754578,-0.068598,-0.365856,146.70001,-148.5,-24.300001,,,,,,
1456792,-0.8278299,6.45157,-2.6228569,-0.41158798,0.46494198,-0.640248,146.70001,-150.90001,-23.1,,,,,,
1456812,0.13398403,7.0467224,-2.7466726,-0.129574,0.007622,-0.53354,141.90001,-155.70001,-26.1,,,x,,,
1456832,1.2513151,6.634602,-1.9320018,-0.907018,-1.29574,-0.53354,144.3,-150.90001,-25.500002,,,x,,,
1456873,2.5779963,7.4068046,-1.0772555,-2.32471,1.21952,4.314052,139.5,-153.3,-26.1,,,x,,,
1456908,3.2018592,9.86577,-1.5593587,-1.745438,1.920744,4.809482,132.3,-158.1,-27.900002,,,x,,,
1456929,3.0822308,9.159962,-1.3781214,-2.179892,1.6158639,3.437522,134.70001,-153.3,-26.1,,,x,,,
1456970,3.4411166,9.108521,-1.5737141,-1.44818,1.966476,2.89636,120.3,-155.70001,-26.1,,,x,,,
1456990,3.669009,9.264636,-1.6215656,-0.99086,2.157026,3.3003259,125.100006,-160.5,-24.900002,,,x,,,
1457010,3.6540554,10.082298,-2.1515203,-1.097568,2.835384,3.8033779,113.100006,-167.70001,-26.7,,,x,,,
1457034,4.455567,10.358042,-1.9182445,-1.669218,1.71495,3.58234,110.700005,-160.5,-26.1,,,x,,,
1457054,4.8449583,10.505783,-1.6395099,-2.2713559,1.8673899,4.03966,110.700005,-160.5,-26.7,,,x,,,
1457074,4.609888,10.179197,-1.74897,-2.47715,2.2637339,3.841488,96.3,-170.1,-27.900002,,,x,,,
1457094,4.740283,10.227647,-2.0600045,-1.554888,1.707328,3.12502,101.100006,-165.3,-28.500002,,,x,,,
1457154,5.2229843,10.26832,-1.9816476,0.137196,0.480186,1.4024479,96.3,-170.1,-27.900002,,,x,,,
1457194,5.7451634,9.960875,-2.4625547,1.227142,-0.80030996,0.47256398,86.700005,-172.5,-27.300001,,,x,,,
1457235,7.433721,10.691806,-1.619173,-1.440558,-0.22865999,2.423796,89.100006,-170.1,-27.300001,,,x,,,
1457325,4.8808465,9.003846,-1.9379833,-1.1280559,-2.187514,-1.9131219,86.700005,-170.1,-26.7,,,x,,,
1457346,4.3867807,8.847133,-1.7746902,-0.960372,-2.8048959,-2.195136,86.700005,-174.90001,-27.900002,,,x,,,
1457386,3.6115873,8.619839,-1.2441374,-0.388722,-2.865872,-3.079288,96.3,-162.90001,-28.500002,,,x,,,
1457427,2.8208423,8.3417015,-1.351205,-0.716468,-1.760682,-4.565578,101.100006,-167.70001,-29.7,,,x,,,
1457505,-0.46236452,6.0944786,-1.5593587,-0.3811,-0.64787,-4.809482,122.700005,-165.3,-27.900002,,,x,,,
1457525,-0.9390845,7.5437794,-2.0982854,0.503052,-0.083841994,-3.589962,127.50001,-155.70001,-29.1,,,x,,,
1457568,-1.9367869,7.354766,-2.065986,1.02897,-1.227142,-3.871976,137.1,-158.1,-27.900002,,,x,,,
1457608,-3.3005528,8.555239,-2.8220387,0.846042,1.082324,-2.7515419,134.70001,-158.1,-27.900002,,,x,,,
1457684,-4.497437,9.398023,-4.091896,1.8521459,0.137196,-2.6829438,146.70001,-155.70001,-26.7,,,x,,,
1457704,-4.028493,10.476474,-4.1229997,2.141782,-0.80030996,-2.36282,153.90001,-150.90001,-26.1,,,x,,,
1457747,-3.6965237,9.109119,-3.8681905,1.509156,-0.739334,-2.926848,153.90001,-148.5,-24.900002,,,x,,,
1457767,-3.4070225,9.318469,-3.9058735,1.501534,-0.320124,-2.446662,156.3,-141.3,-23.7,,,x,,,
1457807,-2.782561,9.197046,-3.9644916,1.265252,-0.129574,-1.8369019,156.3,-143.70001,-25.500002,,,x,,,
1457847,-2.1012762,9.120484,-3.8651998,0.388722,-0.19055,-1.166166,163.5,-143.70001,-25.500002,,,x,,,
1457987,-0.4396351,8.807057,-3.0720623,0.11432999,0.983238,-0.525918,165.90001,-136.5,-23.7,,,,,,
1458008,-0.64360183,8.995472,-3.3370397,0.121952,1.6234859,-0.56402797,168.3,-143.70001,-23.7,,,,,,
1458050,-0.94028074,8.598904,-3.5679228,0.26677,1.3948259,-0.602138,168.3,-143.70001,-24.900002,,,,,,
1458070,-0.9701879,8.903956,-3.5583525,0.274392,0.960372,-0.23628199,168.3,-148.5,-23.1,,,,,,
1458091,-0.799119,9.511669,-3.5128937,-0.045732,0.640248,-0.274392,173.1,-138.90001,-21.300001,,,,,,
1458111,-0.9743749,8.836965,-3.4937532,-1.1280559,0.525918,-0.983238,168.3,-143.70001,-21.900002,,,,,,
1458153,-0.7787821,8.94762,-3.2371497,-0.830798,0.426832,-0.297258,165.90001,-143.70001,-22.5,,,,,,
1458174,-0.8092874,9.018202,-3.1887002,-0.899396,0.525918,-0.160062,165.90001,-141.3,-24.300001,,,,,,
1458216,-0.80510044,8.920106,-3.1731484,-0.434454,0.327746,-0.312502,175.5,-138.90001,-23.1,,,,,,
1458236,-0.891233,8.9242935,-3.326273,-0.312502,0.144818,-0.35061198,168.3,-138.90001,-24.300001,,,,,,
1458256,-0.88046646,8.784925,-3.2993567,-0.198172,-0.16768399,-0.274392,170.70001,-138.90001,-24.300001,,,,,,
1458276,-0.8338113,8.750234,-3.241935,-0.129574,-0.320124,-0.106708,168.3,-143.70001,-23.7,,,,,,
1458296,-0.8481667,8.8166275,-3.2568884,-0.19055,-0.251526,-0.091464,165.90001,-141.3,-25.500002,,,,,,
1458319,-0.89841074,8.95121,-3.38848,-0.137196,-0.259148,-0.106708,168.3,-136.5,-23.7,,,,,,
1458339,-0.8756813,8.671279,-3.3310583,-0.30488,-0.34298998,-0.15244,165.90001,-143.70001,-21.900002,,,,,,
1458422,-3.1575968,8.966163,-4.104457,-1.310984,1.082324,0.26677,163.5,-143.70001,-23.1,,,,,,
1458468,-6.43542,9.29574,-5.2899766,-1.318606,3.483254,0.053354,163.5,-146.1,-24.900002,,,,,,
1458509,-6.756623,9.366919,-5.7176485,-2.012208,1.29574,1.67684,165.90001,-146.1,-23.7,,,x,,,
1458529,-6.3163896,9.038538,-5.4813824,-2.560992,1.021348,3.079288,158.70001,-141.3,-21.300001,,,x,,,
1458549,-5.409605,8.308206,-4.8174434,-2.7667859,0.3811,3.346058,156.3,-146.1,-23.1,,,x,,,
1458569,-4.4776983,7.3278494,-3.7264307,-2.8048959,-0.30488,2.97258,149.1,-150.90001,-24.900002,,,x,,,
1458629,-1.2130339,6.4360185,-1.9487498,-0.80793196,-0.769822,1.3948259,144.3,-153.3,-25.500002,,,x,,,
1458649,-0.67889225,6.6208444,-1.6407062,-0.777444,-0.967994,1.6539739,141.90001,-153.3,-26.1,,,x,,,
1458669,0.24464047,6.5562453,-1.067087,-1.234764,-0.503052,1.539644,144.3,-150.90001,-27.300001,,,x,,,
1458712,1.6706133,6.6704903,-0.79553014,-1.471046,1.150922,3.071666,139.5,-155.70001,-26.7,,,x,,,
1458752,2.552874,9.117494,-1.2507169,-1.425314,3.01069,4.870458,125.100006,-160.5,-27.900002,,,x,,,
1458772,2.7077932,8.872853,-1.631136,-1.501534,3.003068,3.6814258,127.50001,-162.90001,-27.900002,,,x,,,
1458796,3.673794,9.366321,-1.5838826,-0.81555396,2.62959,4.489358,120.3,-158.1,-26.1,,,x,,,
1458816,4.0607924,9.7234125,-1.8374952,-1.3719599,3.2317278,4.5579557,110.700005,-165.3,-27.300001,,,x,,,
1458836,4.1475234,8.94463,-1.9900217,-1.440558,3.1859958,3.7042918,113.100006,-162.90001,-26.1,,,x,,,
1458856,5.492149,10.0153055,-1.8853467,-0.23628199,2.370442,5.10674,98.700005,-170.1,-26.7,,,x,,,
1458876,5.778061,10.896371,-1.5850788,-0.769822,2.073184,4.253076,105.9,-162.90001,-24.900002,,,x,,,
1458898,5.544187,9.929771,-1.9284129,-0.3811,2.385686,2.355198,96.3,-167.70001,-26.7,,,x,,,
1458918,5.4042215,9.698888,-1.9140575,0.67073596,2.179892,1.8673899,91.5,-165.3,-26.7,,,x,,,
1458938,5.635105,11.363521,-2.5492854,0.83842,1.478668,2.576236,93.9,-165.3,-27.300001,,,x,,,
1458961,5.203844,10.804854,-2.7442799,-0.03811,0.617382,0.83842,91.5,-172.5,-26.7,,,x,,,
1458981,4.6673098,9.631896,-2.4822934,-0.20579399,-0.22865999,-0.198172,93.9,-162.90001,-25.500002,,,x,,,
1459001,5.480784,11.060262,-2.530743,0.960372,-1.234764,0.983238,89.100006,-170.1,-24.900002,,,x,,,
1459021,5.296556,10.386753,-2.162885,-0.625004,-1.1432999,-0.022866,91.5,-172.5,-24.300001,,,x,,,
1459041,5.020812,9.538586,-1.9684886,-0.93750596,-1.204276,-0.289636,93.9,-167.70001,-25.500002,,,x,,,
1459065,5.0549064,10.617636,-2.0647895,0.030488,-1.303362,-0.94512796,89.100006,-172.5,-24.900002,,,x,,,
1459085,5.5196633,10.009923,-1.4289635,-0.99086,-1.4024479,-1.463424,91.5,-160.5,-26.7,,,x,,,
1459105,5.1912827,9.665392,-0.8906349,-1.966476,-0.899396,-0.70122397,93.9,-165.3,-26.1,,,x,,,
1459125,4.7713866,9.764684,-1.0431614,-1.75306,0.373478,-1.18141,89.100006,-165.3,-26.7,,,x,,,
1459145,4.9388666,9.731786,-0.9743749,-0.769822,0.16768399,-2.621968,91.5,-167.70001,-26.7,,,x,,,
1459166,5.463438,9.699487,-0.7129864,-0.11432999,0.365856,-2.431418,96.3,-165.3,-26.1,,,x,,,
1459187,4.5387087,9.271814,-1.3153164,-0.81555396,1.158544,-1.974098,101.100006,-167.70001,-26.7,,,x,,,
1459207,3.8125632,9.586437,-1.8303175,-0.19055,0.20579399,-1.48629,101.100006,-165.3,-26.7,,,x,,,
1459247,3.6397,8.601894,-1.8769727,0.891774,-1.6311079,-3.948196,110.700005,-153.3,-26.1,,,x,,,
1459267,3.6851587,8.247195,-1.5127035,0.731712,-2.118916,-4.070148,110.700005,-165.3,-25.500002,,,x,,,
1459287,3.2873938,7.418169,-1.6102009,0.320124,-1.234764,-3.567096,113.100006,-160.5,-26.1,,,x,,,
1459330,0.91755134,7.4702077,-2.6168754,0.26677,0.106708,-3.589962,113.100006,-165.3,-25.500002,,,x,,,
1459364,-1.0090672,5.30493,-2.6922414,1.036592,-0.121952,-3.7881339,122.700005,-155.70001,-26.1,,,x,,,
1459384,-1.9948068,7.2614555,-3.5284455,1.33385,1.1356779,-1.798792,129.90001,-155.70001,-25.500002,,,x,,,
1459426,-2.9925094,7.8458414,-4.490259,1.18141,-0.792688,-3.833866,137.1,-155.70001,-24.300001,,,x,,,
1459466,-3.4004428,8.508584,-3.747964,-0.434454,-0.60976,-3.513742,134.70001,-150.90001,-22.5,,,x,,,
1459623,-2.6509697,9.174915,-3.4267612,0.853664,-1.189032,-2.035074,161.1,-155.70001,-24.900002,,,x,,,
1459667,-2.3411317,9.233533,-3.6594386,0.60976,-1.1204339,-1.44818,158.70001,-150.90001,-24.900002,,,x,,,
1459688,-1.91645,9.054688,-3.656448,1.044214,-1.455802,-0.92226195,161.1,-146.1,-21.900002,,,x,,,
1459708,-1.422384,9.262244,-3.5194733,0.754578,-1.4024479,-0.93750596,163.5,-141.3,-22.5,,,,,,
1459728,-1.2746427,9.478771,-3.6085966,0.373478,-1.082324,-1.051836,161.1,-143.70001,-23.7,,,,,,
1459749,-1.3063443,9.019398,-3.5858672,0.053354,-0.95274997,-1.6158639,165.90001,-141.3,-24.900002,,,,,,
1459769,-1.3667567,8.499612,-3.4171908,0.099086,-0.82317597,-1.455802,168.3,-146.1,-21.900002,,,,,,
1459789,-1.2411467,8.907545,-3.3161047,0.045732,-0.56402797,-1.06708,165.90001,-148.5,-23.7,,,,,,
1459852,-1.2704557,8.771169,-3.4375277,0.320124,0.045732,-2.454284,168.3,-141.3,-24.300001,,,,,,
1459874,-1.2459319,8.275907,-3.0505292,0.69360197,-0.487808,-2.126538,173.1,-136.5,-24.900002,,,,,,
1459894,-1.1609955,8.649147,-3.401639,0.365856,0.17530599,-1.509156,173.1,-136.5,-23.1,,,,,,
1459916,-1.1448456,9.106129,-3.6115873,0.69360197,0.365856,-1.250008,173.1,-136.5,-21.900002,,,,,,
1459976,-1.0575168,8.749037,-3.3759189,0.030488,0.068598,-0.868908,173.1,-138.90001,-22.5,,,,,,
1460023,-1.0569186,9.034949,-3.4949493,-0.87653,0.053354,-0.594516,170.70001,-134.1,-21.900002,,,,,,
1460043,-0.8433816,8.892591,-3.0720623,-1.242386,-0.060976,-0.739334,182.70001,-134.1,-23.1,,,,,,
1460084,-0.8505593,8.778346,-3.192887,-0.625004,-0.03811,-0.586894,177.90001,-131.70001,-24.300001,,,,,,
1460104,-0.75904346,8.850123,-3.054118,-0.510674,-0.129574,-0.632626,177.90001,-134.1,-22.5,,,,,,
1460144,-0.95942134,8.811842,-3.155204,-0.56402797,0.442076,-0.46494198,180.3,-129.3,-23.1,,,,,,
1460165,-1.1059663,8.638979,-3.2658606,-0.487808,0.579272,-0.34298998,185.1,-131.70001,-23.1,,,,,,
1460185,-1.2321745,8.739467,-3.3501987,-0.358234,0.49543,-0.251526,182.70001,-134.1,-25.500002,,,,,,
1460205,-1.3422328,8.811842,-3.3322544,-0.57164997,0.46494198,-0.091464,185.1,-129.3,-23.7,,,,,,
1460227,-1.6305377,8.496023,-3.3370397,-0.92988396,0.480186,-0.251526,177.90001,-129.3,-23.1,,,,,,
1460247,-2.3094301,8.415274,-3.6050076,-1.044214,0.754578,-0.068598,175.5,-134.1,-23.1,,,,,,
1460267,-2.9542282,8.455349,-3.953127,-0.99086,0.83842,0.34298998,180.3,-129.3,-23.7,,,,,,
1460287,-3.7539454,8.441592,-4.2940683,-1.29574,1.250008,0.632626,173.1,-136.5,-23.1,,,,,,
1460310,-4.8892207,8.781935,-4.974157,-1.211898,1.6387299,1.21952,182.70001,-134.1,-24.900002,,,,,,
1460330,-6.0358605,8.92848,-5.294163,-1.211898,1.783548,0.983238,177.90001,-136.5,-23.7,,,,,,
1460390,-7.439104,8.845937,-5.7475557,-2.01983,0.55640596,2.530504,173.1,-138.90001,-21.300001,,,,,,
1460444,-5.2558823,6.933075,-3.3478062,-1.48629,-1.051836,2.042696,161.1,-146.1,-23.7,,,x,,,
1460464,-4.1858044,6.404915,-2.9428635,-0.26677,-1.250008,0.80030996,165.90001,-143.70001,-24.900002,,,x,,,
1460506,-0.50184196,5.3737164,-0.6382185,-0.07622,-2.599102,1.8902559,168.3,-146.1,-24.300001,,,x,,,
1460526,0.9857396,5.9048676,-0.16329303,-1.730194,-0.182928,3.025934,158.70001,-143.70001,-24.900002,,,x,,,
1460546,1.995405,6.3373246,-0.53115094,-2.2637339,2.195136,4.489358,153.90001,-148.5,-24.900002,,,x,,,
1460586,2.5989313,8.184988,-1.4762169,-1.158544,3.917708,4.672286,144.3,-150.90001,-25.500002,,,x,,,
1460624,5.5023174,11.554926,-1.9056835,-0.60976,3.2545938,7.2409,137.1,-160.5,-26.1,,,x,,,
1460644,5.083019,12.632779,-2.036677,-1.814036,3.475632,5.274424,129.90001,-158.1,-23.1,,,x,,,
1460687,5.2080307,10.742049,-2.2526064,0.442076,0.884152,1.768304,122.700005,-155.70001,-26.7,,,x,,,
1460707,5.091991,11.2032175,-2.208942,0.34298998,0.47256398,2.050318,120.3,-155.70001,-24.300001,,,x,,,
1460727,4.9137444,10.608066,-2.569024,0.015244,0.3811,0.792688,120.3,-165.3,-23.7,,,x,,,
1460747,4.4633427,9.398621,-2.3907773,0.731712,0.015244,-0.28201398,115.50001,-160.5,-23.7,,,x,,,
1460771,4.063185,8.401516,-2.26756,0.68597996,-0.015244,-0.426832,122.700005,-158.1,-25.500002,,,x,,,
1460792,3.5493803,9.497314,-2.2526064,-0.23628199,0.594516,0.777444,117.9,-162.90001,-24.900002,,,x,,,
1460812,3.166569,9.394434,-2.4081235,-0.663114,1.036592,0.365856,115.50001,-160.5,-24.900002,,,x,,,
1460874,3.7013087,9.9848,-2.1616888,-0.548784,1.166166,0.67073596,120.3,-162.90001,-24.300001,,,x,,,
1460894,3.3926668,9.883117,-2.3991516,-0.49543,1.250008,0.49543,105.9,-158.1,-24.300001,,,x,,,
1460914,4.1852064,11.438288,-2.6049128,0.92226195,0.289636,0.82317597,110.700005,-165.3,-24.300001,,,x,,,
1460935,5.0848136,11.596198,-2.2514102,-0.07622,-0.640248,0.739334,115.50001,-160.5,-22.5,,,x,,,
1460956,4.9185295,10.776144,-1.9565257,-1.570132,-0.617382,1.06708,115.50001,-158.1,-24.900002,,,x,,,
1460977,4.6332154,10.726498,-1.9038891,-1.25763,-0.861286,0.64787,113.100006,-160.5,-25.500002,,,x,,,
1460997,4.6140747,10.737265,-2.096491,-0.22865999,-1.242386,-0.861286,113.100006,-165.3,-24.300001,,,x,,,
1461082,3.1486247,8.63539,-1.4534874,0.449698,-2.05794,-0.579272,120.3,-165.3,-26.1,,,x,,,
1461102,2.7915332,8.213101,-1.5330404,-0.503052,-1.29574,-1.326228,120.3,-155.70001,-24.300001,,,x,,,
1461122,2.2514102,7.373308,-1.4140099,-0.99086,-0.785066,-1.9054999,122.700005,-160.5,-23.1,,,x,,,
1461165,-0.5108141,5.9981775,-1.9936105,-1.8902559,1.783548,-2.012208,127.50001,-160.5,-24.300001,,,x,,,
1461185,-1.1304902,7.2100153,-3.0606976,-1.234764,1.94361,-1.554888,127.50001,-160.5,-25.500002,,,x,,,
1461206,-1.6975298,7.6496506,-3.133671,-0.396344,0.426832,-1.951232,129.90001,-158.1,-24.300001,,,x,,,
1461246,-2.8375902,8.336917,-3.9124532,-0.518296,1.806414,-2.05794,132.3,-153.3,-24.300001,,,x,,,
1461281,-3.593643,8.699989,-4.3807993,0.274392,0.137196,-2.51526,139.5,-155.70001,-24.900002,,,x,,,
1461344,-3.898696,9.795189,-4.6068974,0.015244,-0.16768399,-2.103672,146.70001,-158.1,-25.500002,,,x,,,
1461364,-3.7252345,9.639074,-4.3700323,-0.221038,-0.602138,-2.195136,139.5,-146.1,-25.500002,,,x,,,
1461384,-3.5362213,9.317871,-4.13257,-0.594516,-0.525918,-1.958854,141.90001,-146.1,-25.500002,,,x,,,
1461404,-3.0636883,9.293347,-4.1875987,-0.510674,-0.373478,-1.455802,146.70001,-146.1,-23.7,,,x,,,
1461424,-2.769402,8.882423,-3.7180567,-0.35061198,-0.82317597,-1.501534,144.3,-153.3,-24.900002,,,x,,,
1461444,-2.0905097,9.506885,-3.7025049,-0.137196,-0.541162,-0.72409,151.5,-153.3,-25.500002,,,x,,,
1461488,-1.3266811,8.866872,-3.262272,-0.007622,-0.46494198,-2.431418,156.3,-153.3,-26.1,,,x,,,
1461584,-0.51978624,9.390246,-2.89561,-0.53354,-0.365856,-1.585376,153.90001,-148.5,-24.900002,,,,,,
1461605,-0.6519758,8.646755,-2.7418873,-1.18141,-0.144818,-1.798792,158.70001,-146.1,-24.900002,,,,,,
1461645,-0.8553445,8.945229,-2.97935,-0.64787,0.449698,-0.91463995,163.5,-141.3,-24.300001,,,,,,
1461665,-1.0276096,8.566006,-2.9943037,-0.34298998,0.129574,-0.7622,156.3,-146.1,-23.1,,,,,,
1461685,-0.6501814,8.982313,-3.0433514,0.129574,-0.083841994,-0.23628199,158.70001,-148.5,-25.500002,,,,,,
1461706,-0.5203844,9.206616,-3.1593912,0.297258,-0.099086,-0.053354,153.90001,-143.70001,-26.7,,,x,,,
1461766,-0.75605273,8.8579,-3.276029,0.655492,0.198172,0.106708,156.3,-143.70001,-24.300001,,,x,,,
1461827,-3.8430686,8.972743,-3.957314,-0.967994,1.3414719,0.480186,165.90001,-141.3,-24.300001,,,x,,,
1461848,-5.0644765,9.872948,-4.886828,-0.861286,2.545748,0.53354,156.3,-148.5,-24.300001,,,x,,,
1461889,-5.9670744,9.418359,-5.3402205,-1.303362,0.769822,0.53354,151.5,-148.5,-24.900002,,,x,,,
1461931,-5.6255345,8.653933,-4.8898187,-2.500016,0.853664,2.469528,153.90001,-150.90001,-24.300001,,,x,,,
1461951,-4.770788,8.219681,-4.280311,-1.989342,-0.434454,1.8521459,149.1,-150.90001,-24.900002,,,x,,,
1461975,-3.8358908,7.192071,-3.8801534,-1.265252,-1.150922,0.49543,144.3,-153.3,-24.900002,,,x,,,
1461995,-2.0946968,6.6196485,-2.8537402,0.99086,-2.652456,0.708846,144.3,-153.3,-24.900002,,,x,,,
1462017,-1.4594688,6.802082,-2.263373,1.234764,-2.36282,0.632626,146.70001,-153.3,-24.900002,,,x,,,
1462038,-1.3201015,5.96528,-2.321991,1.3795819,-1.745438,0.20579399,149.1,-150.90001,-27.300001,,,x,,,
1462058,-0.5963485,5.925802,-2.254999,2.2408679,-2.339954,0.769822,139.5,-150.90001,-25.500002,,,x,,,
1462140,4.3993416,10.733077,-1.6377155,-1.935988,-0.967994,5.198204,134.70001,-153.3,-26.1,,,x,,,
1462186,4.455567,10.042222,-1.535433,0.26677,1.6387299,1.699706,125.100006,-160.5,-26.7,,,x,,,
1462206,4.6583376,9.996165,-1.2034637,-0.091464,2.195136,2.179892,125.100006,-153.3,-26.1,,,x,,,
1462247,3.3244786,9.822105,-2.6707084,-0.259148,3.2164838,0.617382,117.9,-155.70001,-26.7,,,x,,,
1462267,3.317301,9.448266,-3.1235025,1.3643379,1.760682,0.289636,115.50001,-158.1,-24.900002,,,x,,,
1462289,3.8646019,9.936949,-3.0176313,1.6234859,0.632626,0.80030996,120.3,-158.1,-24.900002,,,x,,,
1462309,4.1481214,10.389145,-2.933293,0.830798,0.594516,1.265252,113.100006,-158.1,-22.5,,,x,,,
1462329,4.1068497,10.195945,-2.7335134,-0.11432999,1.1128119,1.1128119,117.9,-160.5,-23.7,,,x,,,
1462349,4.2791147,10.510569,-2.5074153,-0.579272,1.722572,0.7622,115.50001,-153.3,-23.1,,,x,,,
1462369,5.126683,10.291648,-2.3321595,-1.074702,2.7134318,0.160062,108.3,-162.90001,-23.1,,,x,,,
1462389,4.6798706,8.513369,-1.9966012,-1.996964,3.7805119,0.144818,105.9,-162.90001,-24.300001,,,x,,,
1462409,4.5105963,9.747936,-2.715569,-1.29574,3.7805119,1.585376,113.100006,-165.3,-24.300001,,,x,,,
1462433,4.752246,10.213291,-2.777776,-0.41158798,2.576236,-0.45731997,105.9,-162.90001,-23.7,,,x,,,
1462453,5.2289658,9.920799,-2.3572814,0.022866,1.745438,-2.05794,108.3,-158.1,-23.1,,,x,,,
1462473,4.91195,9.643859,-2.3698425,-0.20579399,1.585376,-2.7591639,108.3,-165.3,-22.5,,,x,,,
1462493,3.7204492,9.147999,-2.9219284,0.41921,0.739334,-2.2713559,110.700005,-160.5,-23.1,,,x,,,
1462555,3.648074,9.374097,-2.887236,-0.746956,-0.69360197,-1.326228,117.9,-155.70001,-23.7,,,x,,,
1462601,2.7783742,9.14441,-2.9817426,-0.754578,-0.160062,-0.213416,125.100006,-155.70001,-23.1,,,x,,,
1462625,2.4398253,8.8919935,-2.526556,-0.243904,-0.503052,-0.785066,122.700005,-160.5,-22.5,,,x,,,
1462665,1.7220536,8.0934725,-2.451788,-0.81555396,0.083841994,-1.204276,122.700005,-162.90001,-23.7,,,x,,,
1462685,0.71418273,7.0556946,-2.397357,-1.051836,-0.022866,-1.6234859,125.100006,-158.1,-23.1,,,x,,,
1462705,-0.25959405,7.019208,-2.773589,-0.792688,0.41158798,-1.204276,129.90001,-153.3,-23.1,,,x,,,
1462725,-1.2770352,7.2189875,-2.9721725,-1.1204339,0.091464,-1.6387299,127.50001,-150.90001,-24.300001,,,x,,,
1462789,-3.3938632,7.8243084,-3.3543859,-0.754578,-0.602138,-2.7820299,132.3,-155.70001,-24.300001,,,x,,,
1462809,-3.5882597,9.404004,-4.527344,-0.099086,-0.198172,-3.50612,137.1,-155.70001,-23.7,,,x,,,
1462849,-3.5218658,8.513369,-3.3310583,-0.20579399,-1.501534,-4.085392,139.5,-155.70001,-24.300001,,,x,,,
1462871,-3.7461693,9.258655,-4.0763445,0.87653,-0.830798,-2.7591639,146.70001,-155.70001,-24.300001,,,x,,,
1462892,-4.003371,9.749132,-4.129579,0.967994,-0.95274997,-2.911604,156.3,-146.1,-23.7,,,x,,,
1462912,-3.8681905,9.619335,-4.1529064,0.80793196,-1.509156,-3.2241058,151.5,-148.5,-23.1,,,x,,,
1462932,-3.4375277,8.995472,-3.7288232,0.663114,-1.920744,-3.2469718,151.5,-146.1,-24.300001,,,x,,,
1462976,-2.8597217,9.319068,-3.518277,-0.106708,-1.204276,-1.958854,153.90001,-141.3,-25.500002,,,x,,,
1462996,-2.6114922,9.073829,-3.3890781,-0.19055,-0.93750596,-1.760682,168.3,-143.70001,-24.300001,,,x,,,
1463016,-2.2358584,8.595314,-3.317899,-0.289636,-0.625004,-1.455802,165.90001,-143.70001,-24.300001,,,x,,,
1463036,-1.8769727,8.366226,-3.2413368,-0.083841994,-0.442076,-0.884152,165.90001,-138.90001,-25.500002,,,x,,,
1463077,-1.3195034,8.894984,-3.1904945,0.083841994,-0.243904,-0.26677,165.90001,-136.5,-23.1,,,x,,,
1463101,-0.9378882,9.015809,-3.0553143,0.015244,-0.182928,-0.396344,168.3,-138.90001,-26.1,,,x,,,
1463121,-0.8062967,9.217383,-3.03737,-0.3811,0.030488,-0.625004,168.3,-143.70001,-24.300001,,,x,,,
1463142,-0.77459514,8.822609,-3.0983806,-0.68597996,0.22865999,-0.708846,163.5,-143.70001,-22.5,,,,,,
1463162,-0.9277198,8.93506,-3.0433514,-0.518296,0.022866,-0.243904,163.5,-141.3,-23.7,,,,,,
1463183,-0.8433816,8.848329,-3.0828288,-0.56402797,0.11432999,-0.320124,168.3,-141.3,-24.900002,,,,,,
1463203,-0.9025977,9.1192875,-3.137858,-0.213416,0.297258,-0.34298998,165.90001,-138.90001,-24.900002,,,,,,
1463285,-0.9025977,9.045716,-3.3208897,0.289636,0.251526,0.060976,165.90001,-143.70001,-24.300001,,,,,,
1463387,-0.77280074,8.804665,-3.3478062,-0.19055,0.068598,0.312502,165.90001,-143.70001,-23.7,,,,,,
1463407,-1.0048802,9.069044,-3.636111,-0.30488,0.007622,0.106708,163.5,-138.90001,-23.1,,,,,,
1463427,-1.0969942,8.720924,-3.5105011,-0.388722,-0.541162,-0.137196,163.5,-141.3,-23.7,,,,,,
1463451,-0.9420752,9.014014,-3.3735263,-0.602138,-0.663114,0.060976,165.90001,-136.5,-23.1,,,,,,
1463471,-1.0306003,8.853114,-3.33046,-0.861286,-0.47256398,-0.11432999,161.1,-143.70001,-23.1,,,,,,
1463491,-1.000095,9.116895,-3.2820106,-0.70122397,-0.365856,-0.091464,163.5,-136.5,-24.900002,,,,,,
1463511,-1.2854092,8.796888,-3.359171,-1.051836,-0.16768399,-0.396344,163.5,-141.3,-23.7,,,,,,
1463531,-1.6706133,8.746645,-3.4644442,-0.975616,-0.007622,0.053354,165.90001,-143.70001,-24.900002,,,,,,
1463555,-2.0324898,9.051698,-3.5571563,-0.853664,-0.022866,0.34298998,165.90001,-141.3,-23.1,,,,,,
1463575,-2.7717946,8.890797,-3.5547638,-1.173788,0.30488,0.487808,165.90001,-141.3,-23.7,,,,,,
1463595,-3.9501362,9.360339,-3.9812396,-1.3567159,0.94512796,0.907018,163.5,-143.70001,-23.7,,,,,,
1463617,-5.841464,9.466809,-5.065673,-1.227142,2.835384,0.19055,156.3,-141.3,-24.300001,,,,,,
1463637,-5.8187346,9.71444,-5.4694195,-0.87653,2.36282,0.625004,163.5,-150.90001,-24.900002,,,,,,
1463657,-6.4904494,9.634289,-4.76062,-1.768304,1.432936,1.3719599,158.70001,-143.70001,-24.300001,,,,,,
1463677,-6.40013,9.103138,-4.8000975,-2.446662,2.042696,1.493912,161.1,-146.1,-24.900002,,,x,,,
1463697,-5.6871433,8.38417,-4.192982,-2.164648,1.33385,1.227142,156.3,-146.1,-25.500002,,,x,,,
1463720,-4.902978,7.3326344,-3.4943511,-2.088428,1.082324,0.891774,163.5,-146.1,-25.500002,,,x,,,
1463740,-3.9040792,6.498823,-2.9984908,-1.722572,0.754578,1.25763,158.70001,-146.1,-25.500002,,,x,,,
1463760,-2.890825,6.0310755,-2.2561953,-1.288118,0.510674,2.042696,149.1,-146.1,-24.900002,,,x,,,
1463780,-1.9571238,6.135751,-1.9200389,-1.1280559,0.861286,2.7286758,151.5,-143.70001,-25.500002,,,x,,,
1463800,-0.46296266,6.369026,-1.5115073,-0.67835796,0.327746,3.155508,156.3,-150.90001,-24.900002,,,x,,,
1463821,1.1227144,6.93487,-1.0389743,-0.91463995,0.3811,3.917708,144.3,-155.70001,-27.300001,,,x,,,
1463841,1.7423905,6.6453686,-1.4421227,-1.547266,1.974098,4.169234,144.3,-153.3,-26.7,,,x,,,
1463861,2.8674974,6.602302,-1.1789398,-1.234764,1.3719599,5.251558,134.70001,-153.3,-25.500002,,,x,,,
1463926,3.794021,10.057176,-1.870393,-2.431418,3.330814,4.070148,113.100006,-162.90001,-27.300001,,,x,,,
1463946,4.1092424,10.380772,-1.5545735,-0.975616,1.730194,2.812518,110.700005,-167.70001,-29.7,,,x,,,
1463966,4.036867,10.662497,-1.5904622,-0.49543,1.173788,1.8597679,108.3,-162.90001,-28.500002,,,x,,,
1463987,4.131972,10.331723,-1.9026928,0.053354,1.082324,1.074702,103.50001,-165.3,-26.7,,,x,,,
1464007,3.761123,9.299927,-2.243036,0.846042,1.1356779,0.640248,103.50001,-170.1,-27.300001,,,x,,,
1464027,3.8550315,10.257554,-2.8920212,1.6387299,0.20579399,1.326228,108.3,-160.5,-27.900002,,,x,,,
1464047,3.9220235,10.054784,-2.6372123,1.173788,-0.541162,0.358234,98.700005,-170.1,-25.500002,,,x,,,
1464067,4.1983657,9.930369,-2.5492854,0.7622,-0.3811,0.602138,101.100006,-160.5,-27.300001,,,x,,,
1464110,4.334144,9.93336,-2.0043771,-1.75306,0.87653,1.547266,101.100006,-165.3,-26.7,,,x,,,
1464130,3.6163723,9.597802,-2.1622868,-1.539644,0.91463995,0.442076,101.100006,-170.1,-27.300001,,,x,,,
1464153,4.2396374,8.868666,-1.6173786,-0.327746,0.015244,-0.47256398,98.700005,-172.5,-26.1,,,x,,,
1464173,4.636206,9.881322,-1.2866055,-0.365856,0.099086,0.625004,98.700005,-165.3,-26.1,,,x,,,
1464197,4.471119,9.728197,-1.5623494,-0.785066,0.853664,-0.121952,93.9,-165.3,-26.7,,,x,,,
1464217,4.4442024,9.554736,-1.7023149,0.503052,0.81555396,-0.998482,96.3,-165.3,-27.900002,,,x,,,
1464239,5.1721425,10.621224,-1.7352128,1.1128119,0.373478,-0.64787,98.700005,-170.1,-24.900002,,,x,,,
1464279,5.054308,10.420847,-1.2238005,-0.617382,0.739334,-0.28201398,96.3,-160.5,-27.300001,,,x,,,
1464301,4.268946,9.832274,-2.359674,-0.060976,1.013726,-1.509156,96.3,-158.1,-27.300001,,,x,,,
1464381,4.0302873,9.072035,-2.8555346,0.46494198,-3.452766,-1.570132,103.50001,-165.3,-24.900002,,,x,,,
1464404,3.8640037,8.50021,-2.4123106,0.030488,-3.612828,-2.301844,110.700005,-165.3,-23.7,,,x,,,
1464424,3.276029,7.84943,-2.1515203,-0.625004,-2.995446,-2.507638,110.700005,-160.5,-24.900002,,,x,,,
1464464,1.7722976,7.6376877,-2.0390694,-1.29574,-0.80793196,-2.500016,115.50001,-158.1,-24.900002,,,x,,,
1464484,0.34273592,6.687238,-2.14195,-1.684462,-0.33536798,-3.414656,122.700005,-165.3,-25.500002,,,x,,,
1464504,-0.5449082,6.3163896,-2.3794127,-0.95274997,0.274392,-3.1783738,122.700005,-158.1,-26.7,,,x,,,
1464527,-1.2704557,7.686137,-2.849553,-0.297258,0.426832,-1.989342,125.100006,-155.70001,-25.500002,,,x,,,
1464547,-2.3698425,7.9253945,-3.1019695,-0.434454,0.289636,-1.920744,134.70001,-160.5,-25.500002,,,x,,,
1464569,-2.4816952,8.171829,-3.0846233,-0.617382,-0.030488,-1.768304,129.90001,-155.70001,-27.900002,,,x,,,
1464589,-2.6461844,8.454751,-2.9344895,-0.434454,0.068598,-1.783548,127.50001,-150.90001,-25.500002,,,x,,,
1464609,-3.2275794,8.814235,-3.434537,-0.45731997,1.044214,-1.798792,134.70001,-158.1,-26.1,,,x,,,
1464629,-3.4369295,8.699989,-3.664224,0.0,0.640248,-2.073184,132.3,-160.5,-26.1,,,x,,,
1464649,-3.4369295,8.839356,-3.371732,0.022866,-0.007622,-2.088428,137.1,-158.1,-26.1,,,x,,,
1464709,-3.6414945,9.23114,-3.9770527,0.289636,-0.15244,-2.431418,144.3,-153.3,-24.900002,,,x,,,
1464753,-2.7263358,9.817919,-3.459061,-0.022866,-0.312502,-2.332332,139.5,-148.5,-26.7,,,x,,,
1464773,-2.4362364,9.162354,-3.2532997,-0.358234,-0.137196,-2.416174,151.5,-150.90001,-26.1,,,x,,,
1464793,-2.1395574,8.768178,-3.1396525,-0.487808,-0.007622,-1.67684,151.5,-150.90001,-25.500002,,,x,,,
1464813,-1.7633255,8.823805,-3.0589032,-0.320124,-0.068598,-0.81555396,151.5,-146.1,-26.1,,,x,,,
1464876,-1.0629001,9.261047,-3.099577,0.007622,-0.983238,-0.26677,151.5,-153.3,-26.1,,,,,,
1464896,-0.8798683,8.83517,-2.9542282,-0.15244,-1.1051899,-0.45731997,149.1,-146.1,-27.300001,,,,,,
1464916,-0.7506694,9.256263,-2.857329,-0.213416,-1.1204339,0.07622,153.90001,-143.70001,-26.7,,,,,,
1464936,-0.73511773,9.357946,-2.899199,-0.640248,-0.82317597,-0.106708,149.1,-148.5,-26.1,,,,,,
1464956,-0.6723127,9.177906,-2.8022997,-0.830798,-0.602138,-0.160062,149.1,-153.3,-24.900002,,,,,,
1464976,-0.573021,8.889003,-2.7048025,-0.81555396,-0.274392,0.129574,153.90001,-148.5,-26.7,,,,,,
1464996,-0.573021,8.97035,-2.7688038,-0.80793196,-0.121952,0.297258,153.90001,-146.1,-26.7,,,,,,
1465016,-0.59216154,9.006837,-2.8501513,-0.746956,-0.030488,0.07622,149.1,-150.90001,-27.300001,,,,,,
1465036,-0.47731808,8.961378,-2.8250291,-0.297258,-0.28201398,0.022866,153.90001,-148.5,-25.500002,,,,,,
1465056,-0.2619866,8.9787245,-2.8549364,-0.137196,-0.106708,0.03811,156.3,-153.3,-26.7,,,,,,
1465076,-0.21473333,9.14441,-3.016435,0.099086,-0.015244,0.69360197,149.1,-155.70001,-26.7,,,,,,
1465096,-0.23207948,9.064259,-3.0032759,0.03811,-0.07622,0.640248,144.3,-150.90001,-24.900002,,,,,,
1465116,-0.067590155,9.197046,-3.06309,0.34298998,-0.11432999,0.579272,151.5,-148.5,-24.900002,,,,,,
1465140,-0.12082488,9.1192875,-3.015837,0.327746,0.106708,0.15244,141.90001,-146.1,-27.300001,,,,,,
1465160,-0.15611531,9.177906,-3.1181192,0.07622,0.320124,-0.144818,146.70001,-148.5,-26.1,,,,,,
1465180,-0.27095875,8.856105,-3.2198036,0.022866,0.327746,-0.358234,146.70001,-150.90001,-27.900002,,,,,,
1465200,-0.2841179,8.709559,-3.0260053,-0.137196,0.20579399,-0.07622,149.1,-148.5,-26.1,,,,,,
1465244,-0.50842154,9.223963,-3.221,-0.731712,0.518296,-0.091464,149.1,-148.5,-25.500002,,,,,,
1465265,-0.8170633,8.997865,-3.2969642,-0.80793196,0.35061198,-0.56402797,149.1,-155.70001,-24.900002,,,,,,
1465285,-1.2160246,8.859694,-3.2724402,-0.792688,0.449698,-0.144818,144.3,-146.1,-25.500002,,,,,,
1465305,-3.5619414,9.123475,-4.0063615,-1.920744,2.042696,-0.274392,146.70001,-153.3,-25.500002,,,,,,
1465325,-5.0345693,9.455444,-4.527344,-2.05794,2.873494,-0.602138,151.5,-143.70001,-26.7,,,,,,
1465345,-6.6788645,10.027867,-6.1267786,-1.8673899,5.18296,-1.4024479,151.5,-150.90001,-25.500002,,,,,,
1465365,-6.330745,10.412473,-6.6740794,-1.98172,0.998482,-1.173788,141.90001,-148.5,-26.7,,,,,,
1465425,-5.6333103,8.001359,-4.5662236,-2.7058098,-1.33385,0.625004,153.90001,-148.5,-29.1,,,x,,,
1465445,-4.476502,7.590434,-3.0870159,-2.530504,-3.2164838,0.716468,146.70001,-153.3,-29.1,,,x,,,
1465467,-3.2921789,6.656135,-2.3405335,-1.455802,-2.347576,0.60976,146.70001,-150.90001,-29.7,,,x,,,
1465508,-0.59694666,7.3314385,-0.61190027,-0.365856,-0.03811,2.660078,149.1,-158.1,-28.500002,,,x,,,
1465540,0.5263658,6.903766,-0.60651696,-0.99086,0.548784,2.6981878,139.5,-155.70001,-27.900002,,,x,,,
1465560,1.4068322,7.7698774,-0.38640037,-1.204276,0.846042,3.986306,132.3,-160.5,-29.7,,,x,,,
1465601,2.497845,9.019996,-1.1699677,-0.663114,1.722572,4.740884,127.50001,-160.5,-29.1,,,x,,,
1465621,3.1898966,8.908741,-0.94327146,-0.182928,1.3490939,4.778994,129.90001,-165.3,-28.500002,,,x,,,
1465641,4.221095,10.122972,-0.8601296,-0.15244,2.111294,6.6158957,117.9,-160.5,-30.900002,,,x,,,
1465661,4.1092424,10.657113,-1.5055258,-0.746956,3.7195358,6.1052217,113.100006,-162.90001,-29.1,,,x,,,
1465681,3.7671044,9.291553,-2.121015,-0.373478,3.650938,4.5731997,113.100006,-160.5,-30.300001,,,x,,,
1465701,4.393958,9.364527,-2.159296,0.80030996,2.332332,4.855214,108.3,-167.70001,-29.1,,,x,,,
1465721,5.4981303,10.759396,-2.0558174,0.525918,1.6311079,5.777476,93.9,-165.3,-29.7,,,x,,,
1465745,5.1936755,9.521838,-1.577303,-1.1204339,1.6158639,3.7881339,98.700005,-172.5,-29.1,,,x,,,
1465765,4.9645867,9.210205,-1.9206371,-0.67073596,1.67684,2.957336,84.3,-170.1,-24.900002,,,x,,,
1465785,6.0729456,10.446567,-1.8853467,0.625004,1.097568,2.7667859,86.700005,-172.5,-28.500002,,,x,,,
1465805,6.133358,10.274302,-1.2776334,-0.586894,0.7622,2.050318,84.3,-170.1,-29.1,,,x,,,
1465825,5.824118,10.288657,-1.6155841,-1.06708,1.5929979,1.8369019,77.100006,-167.70001,-29.1,,,x,,,
1465847,5.2762194,8.884217,-2.020527,-0.053354,0.861286,-0.213416,79.5,-172.5,-27.900002,,,x,,,
1465867,6.124386,10.508176,-1.7304276,0.94512796,-0.830798,1.318606,72.3,-177.3,-27.900002,,,x,,,
1465887,6.062179,10.372995,-1.8925244,-0.83842,-0.297258,0.67835796,79.5,-172.5,-28.500002,,,x,,,
1465907,5.300743,9.596007,-2.0396676,-0.503052,-0.64787,-0.60976,74.700005,-167.70001,-27.900002,,,x,,,
1465927,5.4556623,9.451856,-2.3590758,0.655492,-0.91463995,-1.974098,79.5,-172.5,-26.7,,,x,,,
1465951,6.1674523,10.372397,-2.104267,0.868908,-1.935988,-1.516778,79.5,-170.1,-27.900002,,,x,,,
1465971,6.3953447,10.398716,-1.748372,-0.853664,-1.471046,-1.440558,81.9,-162.90001,-29.1,,,x,,,
1465991,6.1184044,10.330527,-1.5581625,-1.478668,-0.640248,-2.2637339,84.3,-172.5,-29.7,,,x,,,
1466011,5.4275494,8.920704,-1.7986159,-1.21952,0.41921,-4.024416,89.100006,-172.5,-28.500002,,,x,,,
1466031,5.342613,8.863881,-1.6628375,0.655492,0.19055,-2.7591639,89.100006,-170.1,-29.1,,,x,,,
1466051,4.5165777,8.585744,-1.1980804,-0.975616,0.632626,-2.027452,96.3,-162.90001,-30.900002,,,x,,,
1466071,4.2115245,9.060072,-1.5934529,-1.463424,0.94512796,-1.3795819,96.3,-165.3,-29.1,,,x,,,
1466091,3.9471455,9.041529,-1.4445152,-1.3490939,0.81555396,-1.745438,98.700005,-167.70001,-26.7,,,x,,,
1466111,3.5846708,8.437405,-1.238156,-1.554888,0.777444,-2.89636,98.700005,-165.3,-28.500002,,,x,,,
1466131,3.1067545,7.9463296,-0.88226086,-1.432936,0.56402797,-3.7347798,98.700005,-167.70001,-30.300001,,,x,,,
1466151,2.317206,7.174725,-0.5963485,-0.853664,1.013726,-4.596066,103.50001,-162.90001,-29.1,,,x,,,
1466172,1.74897,6.986908,-0.68547183,-0.792688,1.3643379,-4.72564,113.100006,-160.5,-28.500002,,,x,,,
1466192,0.046655152,6.849335,-1.2710538,-0.053354,2.118916,-5.3354,108.3,-158.1,-27.300001,,,x,,,
1466212,-1.5677327,7.2488947,-2.3237855,1.082324,1.989342,-5.8918056,115.50001,-162.90001,-28.500002,,,x,,,
1466234,-2.7891407,7.513872,-3.0032759,2.408552,-0.754578,-5.853696,129.90001,-158.1,-28.500002,,,x,,,
1466254,-3.4423127,7.943339,-3.1737466,2.317088,-1.577754,-4.5731997,125.100006,-155.70001,-30.300001,,,x,,,
1466274,-3.7371974,8.425442,-3.4991364,1.798792,-1.730194,-3.6966698,132.3,-160.5,-27.900002,,,x,,,
1466294,-3.4883697,8.869863,-3.4698274,1.1356779,-2.32471,-3.094532,134.70001,-155.70001,-27.900002,,,x,,,
1466317,-3.6391017,8.504995,-3.438724,0.586894,-1.760682,-2.7210538,141.90001,-150.90001,-27.900002,,,x,,,
1466378,-3.5445952,8.939247,-3.777871,0.182928,0.33536798,-0.72409,141.90001,-155.70001,-25.500002,,,x,,,
1466398,-3.3914707,9.576867,-4.0057635,0.891774,0.243904,-0.67073596,144.3,-153.3,-25.500002,,,x,,,
1466418,-2.986528,10.05598,-3.8879292,1.021348,-0.731712,-0.93750596,141.90001,-158.1,-26.1,,,x,,,
1466438,-2.8896286,9.620531,-3.3579745,0.449698,-1.21952,-1.478668,151.5,-153.3,-27.300001,,,,,,
1466500,-1.9977975,9.424939,-3.602615,0.617382,-0.80793196,-1.44818,149.1,-155.70001,-25.500002,,,,,,
1466520,-1.9924142,8.57438,-3.752749,1.318606,-1.18141,-1.310984,146.70001,-153.3,-27.900002,,,,,,
1466540,-1.3452235,9.133643,-3.381302,2.042696,-2.370442,0.015244,149.1,-148.5,-26.1,,,,,,
1466560,-0.83141875,9.478173,-3.0391645,1.3948259,-1.6539739,-0.068598,146.70001,-150.90001,-26.7,,,,,,
1466580,-0.8134744,9.262842,-3.4106112,0.541162,-0.259148,-0.53354,153.90001,-148.5,-25.500002,,,,,,
1466600,-0.7973246,9.143213,-3.5703154,0.525918,0.19055,-0.67073596,149.1,-148.5,-25.500002,,,,,,
1466620,-0.75784713,8.762197,-3.4572663,0.221038,0.365856,-0.68597996,153.90001,-150.90001,-26.7,,,,,,
1466640,-0.3229972,9.312488,-3.3561802,0.365856,0.503052,-0.884152,153.90001,-150.90001,-24.900002,,,,,,
1466660,-0.4521961,8.768776,-2.95363,0.15244,0.449698,-1.272874,156.3,-143.70001,-24.300001,,,,,,
1466680,-0.28890306,9.322059,-3.0600994,0.099086,0.93750596,-0.80030996,158.70001,-146.1,-26.1,,,,,,
1466700,-0.4827014,8.685634,-2.8609178,-0.388722,1.211898,-1.21952,151.5,-150.90001,-24.300001,,,,,,
1466741,-0.55986184,9.058277,-3.2658606,-0.106708,0.602138,-0.442076,158.70001,-143.70001,-23.7,,,,,,
1466762,-0.63941485,9.224561,-3.1438394,-0.213416,0.03811,-0.11432999,156.3,-146.1,-24.300001,,,,,,
1466782,-0.31163248,9.347778,-3.116923,-0.586894,-0.26677,-0.35061198,151.5,-146.1,-22.5,,,,,,
1466805,-0.5610581,8.75442,-2.7717946,-0.81555396,-0.243904,-0.358234,158.70001,-146.1,-25.500002,,,,,,
1466867,-0.47133666,9.033155,-2.940471,-0.426832,0.106708,-0.46494198,158.70001,-143.70001,-25.500002,,,x,,,
1466891,-1.1059663,8.798085,-3.1318767,-0.602138,0.525918,-0.213416,161.1,-146.1,-26.1,,,x,,,
1466911,-1.5653402,8.733485,-3.3938632,-0.510674,0.655492,-0.083841994,156.3,-146.1,-24.300001,,,x,,,
1466931,-2.3752258,8.640774,-3.4799957,-0.68597996,0.80030996,0.20579399,153.90001,-143.70001,-24.300001,,,x,,,
1466951,-3.5487823,8.942836,-3.957912,-0.92988396,1.5244,0.83842,158.70001,-150.90001,-25.500002,,,x,,,
1466971,-5.4867654,8.857301,-4.4274545,-1.204276,2.339954,-0.07622,158.70001,-148.5,-24.900002,,,x,,,
1466991,-6.5909376,9.1192875,-5.5208597,-0.045732,3.597584,-0.449698,163.5,-148.5,-24.900002,,,x,,,
1467011,-6.681855,9.710253,-6.187789,0.11432999,1.8826339,0.442076,156.3,-150.90001,-24.300001,,,x,,,
1467031,-6.937262,9.243103,-5.6255345,-0.68597996,0.449698,0.80030996,153.90001,-150.90001,-24.900002,,,x,,,
1467051,-6.2493978,8.538491,-5.333641,-0.579272,0.20579399,1.41007,153.90001,-153.3,-26.1,,,x,,,
1467071,-5.1649647,8.357852,-4.6583376,-0.16768399,-0.891774,1.6463519,149.1,-148.5,-24.300001,,,x,,,
1467113,-2.8770678,7.0939755,-3.3986483,0.144818,-2.149404,0.785066,146.70001,-155.70001,-24.300001,,,x,,,
1467135,-1.7178667,6.0567956,-2.4069273,0.007622,-2.7210538,1.1204339,146.70001,-148.5,-24.300001,,,x,,,
1467155,-0.2924919,6.5442824,-1.6580523,-0.541162,-2.2027578,3.2317278,149.1,-150.90001,-24.300001,,,x,,,
1467175,0.90319586,7.835075,-1.1071626,-1.814036,-1.288118,4.5122237,144.3,-155.70001,-24.900002,,,x,,,
1467195,1.3852991,7.597612,-0.8685036,-2.660078,0.198172,3.559474,139.5,-155.70001,-26.1,,,x,,,
1467215,1.7130815,7.629912,-1.0874239,-2.149404,0.640248,3.6585598,129.90001,-158.1,-26.7,,,x,,,
1467235,2.1006782,8.092277,-0.9450659,-1.3948259,0.518296,3.7728899,127.50001,-155.70001,-25.500002,,,x,,,
1467295,3.1061563,9.310096,-1.869795,-0.022866,1.455802,3.7500238,117.9,-162.90001,-26.1,,,x,,,
1467345,4.045839,9.057679,-2.05821,0.899396,1.3643379,4.0320377,103.50001,-165.3,-26.1,,,x,,,
1467365,4.421473,9.482959,-2.5038264,0.868908,2.2256238,4.817104,101.100006,-162.90001,-25.500002,,,x,,,
1467408,5.3282576,10.035045,-3.0840251,0.365856,0.853664,2.995446,96.3,-170.1,-23.7,,,x,,,
1467450,5.0668693,10.096055,-3.116923,-0.03811,0.82317597,2.6829438,89.100006,-165.3,-24.300001,,,x,,,
1467470,5.1775255,10.341892,-3.33046,0.091464,0.053354,1.463424,84.3,-160.5,-24.900002,,,x,,,
1467492,5.598618,9.860387,-2.7329152,-0.20579399,-1.33385,0.47256398,86.700005,-165.3,-23.7,,,x,,,
1467533,5.6285253,9.339404,-1.9320018,-1.48629,0.434454,-0.548784,89.100006,-165.3,-24.900002,,,x,,,
1467553,5.376109,9.54696,-2.3118227,-0.55640596,1.1432999,-0.94512796,89.100006,-162.90001,-27.300001,,,x,,,
1467573,5.284593,9.275403,-2.171259,-0.41921,1.204276,-1.265252,84.3,-170.1,-23.7,,,x,,,
1467597,5.089,9.501501,-2.2585878,-0.480186,1.280496,-0.87653,89.100006,-165.3,-24.900002,,,x,,,
1467617,4.6990113,9.1192875,-2.392572,-0.49543,1.1204339,-1.75306,91.5,-162.90001,-24.900002,,,x,,,
1467637,4.472315,9.0540905,-2.5995293,0.0,0.625004,-2.17227,93.9,-158.1,-26.7,,,x,,,
1467657,4.711572,9.516455,-2.6198661,0.426832,-0.45731997,-1.6387299,96.3,-165.3,-25.500002,,,x,,,
1467677,4.581177,8.899769,-2.3584778,-0.53354,-0.754578,-1.4024479,91.5,-170.1,-23.7,,,x,,,
1467697,4.3275642,9.299329,-2.5738091,-0.625004,-0.92226195,-1.3490939,93.9,-160.5,-25.500002,,,x,,,
1467717,4.0560074,9.323255,-2.68626,-0.274392,-1.33385,-2.637212,98.700005,-162.90001,-25.500002,,,x,,,
1467737,3.8855367,8.920704,-2.5080135,0.16768399,-1.798792,-3.521364,101.100006,-162.90001,-24.900002,,,x,,,
1467757,3.7180567,8.85431,-2.3267763,0.060976,-2.111294,-3.475632,103.50001,-162.90001,-24.300001,,,x,,,
1467839,2.2185123,8.097061,-1.9152538,-0.891774,-1.3719599,-4.0625257,117.9,-165.3,-25.500002,,,x,,,
1467885,-1.0928072,6.904364,-1.8045974,-1.250008,0.907018,-3.879598,122.700005,-158.1,-26.1,,,x,,,
1467906,-2.1551092,7.0443296,-2.1347723,-1.1128119,1.326228,-3.993928,125.100006,-158.1,-25.500002,,,x,,,
1467947,-4.0727553,7.2967463,-2.9984908,-0.67073596,1.280496,-2.926848,134.70001,-158.1,-25.500002,,,x,,,
1467967,-4.547083,8.03306,-3.8556297,-0.03811,1.29574,-2.431418,134.70001,-155.70001,-23.1,,,x,,,
1467987,-4.2904797,8.66111,-4.2276745,0.83842,-0.007622,-2.500016,137.1,-150.90001,-26.7,,,x,,,
1468027,-4.4866705,8.924891,-4.2856946,1.326228,-0.045732,-2.500016,146.70001,-153.3,-23.7,,,x,,,
1468064,-4.2270765,9.698888,-4.7091794,0.82317597,-0.81555396,-2.13416,149.1,-150.90001,-24.900002,,,x,,,
1468085,-3.6552517,9.49552,-4.2725353,0.480186,-1.1356779,-1.8902559,151.5,-146.1,-23.7,,,x,,,
1468126,-2.761028,9.423742,-4.003371,-0.35061198,-0.3811,-1.326228,158.70001,-150.90001,-26.1,,,x,,,
1468146,-2.3578796,9.2269535,-3.6492703,-0.19055,-0.388722,-1.3414719,151.5,-153.3,-24.300001,,,x,,,
1468186,-1.8141676,8.251382,-3.6283352,0.22865999,0.022866,-1.1128119,156.3,-150.90001,-23.7,,,x,,,
1468209,-1.493563,8.872254,-3.4273593,0.663114,-0.289636,0.22865999,151.5,-143.70001,-23.7,,,x,,,
1468229,-1.113144,9.31488,-3.4303498,0.312502,0.144818,0.23628199,158.70001,-148.5,-24.300001,,,x,,,
1468249,-0.85833514,9.2443,-3.3759189,0.106708,0.198172,-0.007622,151.5,-146.1,-23.1,,,x,,,
1468269,-0.7393047,9.100147,-3.2251868,-0.16768399,0.160062,-0.068598,158.70001,-138.90001,-22.5,,,x,,,
1468289,-0.6764997,8.881227,-3.1988685,-0.541162,0.434454,-0.068598,149.1,-148.5,-23.7,,,x,,,
1468309,-0.49047723,8.955995,-3.0128462,-0.57164997,0.213416,0.0,158.70001,-146.1,-24.300001,,,x,,,
1468333,-0.16329303,8.893787,-2.840581,-0.846042,0.16768399,-0.160062,158.70001,-148.5,-24.900002,,,,,,
1468353,-0.07835673,8.695205,-2.7502613,-0.83842,0.20579399,-0.23628199,151.5,-146.1,-23.7,,,,,,
1468373,0.043664437,8.889601,-2.9554243,-0.358234,0.068598,0.19055,158.70001,-146.1,-24.300001,,,,,,
1468393,-0.09689916,8.594716,-2.8555346,-0.213416,-0.20579399,0.099086,163.5,-148.5,-24.300001,,,,,,
1468433,0.051440295,9.046912,-3.1229045,0.57164997,-0.41158798,0.23628199,151.5,-148.5,-24.900002,,,,,,
1468453,-0.05682358,9.399219,-3.4112093,0.49543,-0.320124,0.16768399,153.90001,-143.70001,-24.900002,,,,,,
1468473,-0.061608724,9.311292,-3.4106112,0.41158798,-0.525918,-0.20579399,156.3,-148.5,-24.900002,,,,,,
1468493,-0.18303175,9.193458,-3.3310583,0.099086,-0.312502,-0.45731997,153.90001,-150.90001,-23.7,,,,,,
1468553,-0.61369467,8.635988,-3.1946816,-0.64787,0.55640596,-0.49543,156.3,-153.3,-24.900002,,,,,,
1468594,-1.3990564,8.886012,-3.7007105,-0.53354,0.82317597,0.46494198,158.70001,-146.1,-22.5,,,,,,
1468669,-3.8891256,8.939845,-4.186403,-1.006104,1.3795819,-0.396344,151.5,-146.1,-25.500002,,,,,,
1468690,-5.154796,9.612158,-5.173937,-0.198172,1.8521459,-0.221038,151.5,-148.5,-24.900002,,,,,,
1468710,-5.2732286,10.185777,-5.225975,-0.15244,1.288118,0.312502,153.90001,-143.70001,-23.7,,,,,,
1468730,-5.7762666,9.934557,-4.9938955,-1.8597679,1.41007,0.3811,153.90001,-150.90001,-23.7,,,,,,
1468750,-5.714658,9.197644,-4.9352775,-1.6311079,0.92226195,0.40396598,149.1,-146.1,-24.900002,,,,,,
1468770,-4.9436517,8.6114645,-4.188197,-0.94512796,-0.40396598,0.26677,151.5,-150.90001,-23.1,,,,,,
1468790,-4.066774,7.9499183,-3.3077307,-0.99086,-1.158544,-0.274392,151.5,-155.70001,-22.5,,,x,,,
1468810,-3.2192054,7.233343,-3.0008833,-0.56402797,-0.82317597,-0.20579399,146.70001,-150.90001,-24.900002,,,x,,,
1468832,-2.372235,6.8212223,-2.4858823,-0.16768399,-1.036592,0.221038,151.5,-153.3,-24.300001,,,x,,,
1468852,-1.7854568,6.718342,-2.1114447,-0.03811,-0.57164997,1.051836,151.5,-153.3,-24.900002,,,x,,,
1468872,-1.2154266,6.781745,-2.2119327,-0.091464,0.251526,1.661596,156.3,-153.3,-23.1,,,x,,,
1468892,-0.9313086,6.597517,-2.2705507,-0.07622,0.480186,2.13416,146.70001,-153.3,-25.500002,,,x,,,
1468914,-0.18362989,7.3117,-2.243036,0.030488,0.426832,3.39179,139.5,-150.90001,-24.900002,,,x,,,
1468935,0.43544808,8.359048,-2.204755,-1.02897,0.434454,3.948196,137.1,-155.70001,-25.500002,,,x,,,
1468955,0.6447981,7.4373097,-2.2322695,-2.187514,0.70122397,3.323192,139.5,-153.3,-24.300001,,,x,,,
1468978,1.4068322,7.038348,-2.305243,-1.21952,0.7622,4.314052,132.3,-153.3,-24.300001,,,x,,,
1468999,2.5546687,9.536194,-2.3895812,-0.41158798,0.320124,6.25004,117.9,-150.90001,-26.7,,,x,,,
1469019,3.1037638,8.982911,-2.2532046,-0.548784,0.388722,4.4207597,115.50001,-158.1,-26.1,,,x,,,
1469084,4.514185,9.78203,-2.5750055,-1.196654,1.6234859,4.634176,110.700005,-160.5,-24.300001,,,x,,,
1469105,4.2988534,9.142017,-2.497247,-1.051836,1.44818,3.2698379,96.3,-162.90001,-27.300001,,,x,,,
1469125,4.883837,9.688122,-2.3740294,-0.792688,1.585376,2.85825,98.700005,-162.90001,-23.1,,,x,,,
1469146,4.895202,9.871154,-2.4446104,-0.94512796,1.8292799,2.911604,93.9,-167.70001,-25.500002,,,x,,,
1469166,4.71217,10.024278,-2.6258476,-1.440558,2.027452,2.7972739,96.3,-162.90001,-24.900002,,,x,,,
1469186,4.716357,9.904052,-2.3578796,-1.204276,1.501534,2.012208,91.5,-165.3,-22.5,,,x,,,
1469207,5.2020493,10.186375,-2.0558174,-1.1051899,1.669218,1.707328,86.700005,-165.3,-26.1,,,x,,,
1469227,5.3856792,10.593112,-2.217914,-1.166166,1.958854,1.6539739,81.9,-167.70001,-26.1,,,x,,,
1469267,5.0596914,9.625317,-2.1862125,-1.272874,1.432936,0.60976,81.9,-167.70001,-24.900002,,,x,,,
1469287,5.150011,10.161851,-2.469134,-0.068598,0.746956,-0.586894,77.100006,-170.1,-26.7,,,x,,,
1469311,4.938268,10.022484,-2.4733212,0.068598,0.198172,-1.8750119,86.700005,-174.90001,-24.300001,,,x,,,
1469331,4.9639883,9.969249,-2.388983,-0.022866,-0.198172,-2.408552,86.700005,-165.3,-25.500002,,,x,,,
1469353,5.024999,9.545165,-2.2585878,-0.121952,-0.099086,-2.911604,89.100006,-172.5,-26.1,,,x,,,
1469374,5.23076,9.841845,-2.0827339,-0.106708,0.099086,-2.027452,93.9,-170.1,-23.7,,,x,,,
1469397,4.580579,9.705468,-2.3369446,-0.99086,0.830798,-2.042696,96.3,-167.70001,-26.7,,,x,,,
1469417,4.544092,9.472192,-2.2944765,0.007622,0.121952,-2.949714,96.3,-162.90001,-27.900002,,,x,,,
1469438,4.6027102,8.844142,-2.121015,0.426832,-0.625004,-3.35368,96.3,-165.3,-25.500002,,,x,,,
1469458,4.660132,9.346582,-2.2573917,0.49543,-1.425314,-2.32471,98.700005,-165.3,-26.1,,,x,,,
1469478,4.5494757,9.70786,-2.3489075,0.20579399,-1.996964,-2.926848,105.9,-167.70001,-25.500002,,,x,,,
1469499,4.4232674,9.522436,-2.1287909,0.20579399,-2.484772,-4.009172,110.700005,-162.90001,-25.500002,,,x,,,
1469519,4.0362687,8.786122,-1.8524488,-0.007622,-2.43904,-4.771372,113.100006,-158.1,-25.500002,,,x,,,
1469539,3.371732,8.388955,-1.6664263,0.106708,-2.332332,-4.9543,113.100006,-162.90001,-24.900002,,,x,,,
1469559,2.8328052,7.9965734,-1.5378256,0.45731997,-1.996964,-4.83997,120.3,-167.70001,-25.500002,,,x,,,
1469621,-0.8362039,5.359959,-1.4361413,0.35061198,-1.242386,-4.83997,129.90001,-165.3,-24.900002,,,x,,,
1469683,-3.7593286,6.910944,-3.9519305,1.1432999,0.022866,-5.266802,144.3,-146.1,-24.300001,,,x,,,
1469705,-4.551868,7.6915207,-4.8048825,2.2103798,0.525918,-3.856732,149.1,-148.5,-24.300001,,,x,,,
1469725,-4.8353877,8.795692,-5.13745,2.7591639,-0.716468,-3.3003259,153.90001,-143.70001,-23.7,,,x,,,
1469747,-4.808471,8.955397,-4.752844,1.8978779,-1.532022,-3.170752,158.70001,-146.1,-22.5,,,x,,,
1469809,-4.5028205,8.941639,-4.3694344,0.060976,-0.731712,-1.8978779,163.5,-143.70001,-23.1,,,x,,,
1469829,-4.0853167,9.158765,-4.0859146,-0.327746,-0.891774,-1.75306,158.70001,-143.70001,-21.900002,,,x,,,
1469849,-3.68157,8.875245,-3.8861349,-0.57164997,-0.777444,-1.737816,163.5,-141.3,-21.300001,,,x,,,
1469869,-3.30474,8.824403,-3.6444852,-0.49543,-0.92988396,-1.265252,163.5,-141.3,-21.900002,,,x,,,
1469892,-2.8686936,8.624025,-3.343619,-0.480186,-1.1128119,-1.059458,163.5,-141.3,-22.5,,,x,,,
1469912,-2.5062191,8.552846,-3.4088168,-0.47256398,-0.708846,-0.640248,173.1,-141.3,-24.300001,,,x,,,
1469932,-2.2526064,8.666493,-3.4752107,-0.320124,-0.746956,-0.373478,165.90001,-138.90001,-23.1,,,x,,,
1469993,-1.3547938,8.849525,-3.326273,-0.121952,-0.785066,-0.53354,168.3,-143.70001,-23.7,,,x,,,
1470013,-1.1394624,8.857301,-3.2156167,-0.182928,-0.426832,-0.442076,165.90001,-143.70001,-22.5,,,x,,,
1470034,-1.1418549,8.881825,-3.4070225,-0.47256398,0.03811,-0.33536798,168.3,-141.3,-23.1,,,x,,,
1470054,-1.1861175,8.7412615,-3.4823885,-0.41158798,0.15244,-0.26677,170.70001,-136.5,-24.300001,,,x,,,
1470074,-0.96659905,9.02837,-3.5045197,-0.30488,0.068598,-0.060976,170.70001,-136.5,-23.1,,,x,,,
1470094,-0.79313755,9.101942,-3.343619,-0.33536798,-0.07622,-0.19055,170.70001,-141.3,-23.7,,,,,,
1470116,-0.7333233,9.080408,-3.359769,-0.716468,0.053354,-0.480186,163.5,-138.90001,-24.300001,,,,,,
1470158,-0.66992015,8.811842,-3.3412266,-0.541162,0.182928,-0.777444,170.70001,-141.3,-21.900002,,,,,,
1470178,-0.58558196,8.4386015,-3.1695597,-0.213416,0.15244,-0.7622,170.70001,-146.1,-25.500002,,,,,,
1470202,-0.8128763,8.9865,-3.3980503,-0.144818,0.525918,-0.160062,170.70001,-141.3,-23.7,,,,,,
1470223,-0.9313086,8.747243,-3.3651524,-0.17530599,0.396344,-0.388722,165.90001,-138.90001,-22.5,,,,,,
1470243,-1.0910128,8.67427,-3.5679228,-0.099086,0.388722,-0.198172,168.3,-131.70001,-23.1,,,,,,
1470263,-1.0359837,8.921901,-3.5745025,0.274392,-0.068598,-0.053354,175.5,-143.70001,-23.7,,,,,,
1470303,-1.2351652,8.9679575,-3.5792875,-0.46494198,-0.320124,-0.34298998,170.70001,-134.1,-24.900002,,,,,,
1470348,-1.074863,8.671877,-3.422574,-0.28201398,-0.49543,-0.426832,168.3,-134.1,-22.5,,,,,,
1470369,-1.3703456,8.6001,-3.3149083,-0.586894,-0.30488,-0.068598,173.1,-141.3,-22.5,,,,,,
1470389,-1.4295617,8.921303,-3.5595489,-0.81555396,-0.160062,-0.28201398,173.1,-138.90001,-22.5,,,,,,
1470453,-2.0055733,8.648549,-3.6624293,-0.41921,-0.327746,-0.15244,173.1,-136.5,-24.900002,,,,,,
1470585,-5.2020493,9.198242,-4.3807993,-1.227142,3.094532,0.221038,170.70001,-136.5,-24.300001,,,x,,,
1470645,-6.6459665,8.888405,-5.376707,-1.493912,2.583858,2.6905658,173.1,-136.5,-24.300001,,,x,,,
1470668,-6.1937704,8.278897,-4.6661134,-1.8521459,1.089946,2.93447,158.70001,-141.3,-23.1,,,x,,,
1470688,-5.13745,7.6448655,-4.0972795,-1.928366,0.510674,3.1936178,151.5,-146.1,-24.300001,,,x,,,
1470708,-4.1259904,6.459346,-3.250309,-1.8826339,-0.030488,3.079288,153.90001,-148.5,-23.1,,,x,,,
1470768,-0.92951417,7.1478086,-2.0408638,-1.272874,0.731712,5.37351,141.90001,-158.1,-24.900002,,,x,,,
1470788,0.30086592,7.5814624,-1.6867632,-0.960372,0.259148,5.129606,134.70001,-150.90001,-26.1,,,x,,,
1470808,2.2974672,8.353664,-0.619078,-1.280496,-0.967994,5.5793037,134.70001,-158.1,-27.900002,,,x,,,
1470828,2.958415,8.101847,0.5144029,-2.583858,0.91463995,4.923812,129.90001,-158.1,-27.300001,,,x,,,
1470890,3.1235025,9.094764,-1.9619089,-0.47256398,4.367406,4.641798,113.100006,-162.90001,-25.500002,,,x,,,
1470930,3.4734163,8.470901,-2.844768,0.045732,2.6677,4.34454,98.700005,-167.70001,-25.500002,,,x,,,
1470950,4.1690564,9.612158,-3.0774455,0.655492,1.463424,4.603688,101.100006,-165.3,-26.7,,,x,,,
1470973,4.579981,9.851415,-3.0511272,0.26677,0.53354,3.597584,93.9,-167.70001,-25.500002,,,x,,,
1471013,5.0722523,9.601391,-2.7221487,-0.327746,0.289636,3.498498,86.700005,-170.1,-25.500002,,,x,,,
1471033,5.27921,10.513559,-2.7490652,-0.640248,0.49543,3.612828,81.9,-172.5,-25.500002,,,x,,,
1471054,5.0507193,10.048203,-2.2478213,-1.272874,0.129574,2.507638,84.3,-170.1,-25.500002,,,x,,,
1471078,5.0878043,9.570886,-2.1503239,-1.173788,0.625004,1.71495,74.700005,-172.5,-26.7,,,x,,,
1471099,5.5148783,10.506381,-2.2693543,-0.998482,0.69360197,1.768304,74.700005,-174.90001,-25.500002,,,x,,,
1471120,5.411998,9.94293,-1.8452711,-1.089946,0.777444,1.074702,67.5,-167.70001,-26.1,,,x,,,
1471140,5.06986,9.261645,-2.0480416,-1.326228,1.158544,0.754578,67.5,-174.90001,-26.7,,,x,,,
1471200,5.7972016,10.390342,-1.7513626,-0.998482,0.03811,0.55640596,69.9,-170.1,-26.7,,,x,,,
1471247,4.827612,9.473987,-2.103669,1.02897,-0.3811,-2.919226,67.5,-165.3,-26.1,,,x,,,
1471267,5.6787696,10.29105,-1.7328202,1.5244,-1.158544,-2.957336,74.700005,-172.5,-26.1,,,x,,,
1471307,5.008251,9.433911,-1.4445152,-0.899396,0.67073596,-2.17227,81.9,-167.70001,-26.1,,,x,,,
1471327,4.4232674,9.3346195,-1.9517405,0.121952,0.541162,-2.7591639,81.9,-167.70001,-26.7,,,x,,,
1471367,4.6828613,8.452358,-1.5414144,0.785066,-1.227142,-3.16313,91.5,-170.1,-25.500002,,,x,,,
1471390,4.4184823,8.424844,-1.6102009,-0.03811,-1.1204339,-2.7896519,93.9,-160.5,-25.500002,,,x,,,
1471410,4.153505,8.494826,-1.6813799,0.23628199,-1.250008,-3.330814,91.5,-165.3,-24.900002,,,x,,,
1471430,3.8131614,8.363235,-1.711287,0.503052,-1.272874,-4.443626,103.50001,-165.3,-24.900002,,,x,,,
1471549,-1.8010085,7.024591,-3.5194733,1.288118,-0.358234,-3.1859958,125.100006,-160.5,-23.7,,,x,,,
1471570,-2.3471131,7.9876013,-4.1020646,1.234764,-1.463424,-2.614346,127.50001,-155.70001,-23.7,,,x,,,
1471590,-2.506817,8.391348,-3.8663962,1.006104,-2.644834,-2.7286758,120.3,-158.1,-24.900002,,,x,,,
1471613,-2.659942,8.315384,-3.7072902,0.769822,-2.416174,-2.652456,129.90001,-155.70001,-23.1,,,x,,,
1471633,-3.2568884,8.830983,-4.0201187,0.442076,-1.44818,-2.111294,132.3,-150.90001,-22.5,,,x,,,
1471653,-3.442911,9.059473,-4.0524187,0.160062,-1.211898,-2.500016,134.70001,-155.70001,-24.300001,,,x,,,
1471673,-3.4560702,8.839955,-3.8669944,0.28201398,-1.051836,-2.835384,137.1,-153.3,-24.300001,,,x,,,
1471696,-4.075746,8.781935,-4.393958,-0.11432999,-0.434454,-2.576236,144.3,-146.1,-24.900002,,,x,,,
1471716,-3.8257225,9.112708,-4.3652472,0.449698,-1.5244,-1.798792,144.3,-150.90001,-23.7,,,x,,,
1471736,-3.3711338,9.099549,-3.978847,0.083841994,-1.783548,-1.5929979,149.1,-150.90001,-23.7,,,x,,,
1471756,-3.0642865,8.74485,-3.8646019,-0.34298998,-1.6082419,-1.3490939,149.1,-150.90001,-24.900002,,,x,,,
1471776,-2.5008357,8.806459,-3.685757,0.083841994,-1.730194,-0.67073596,141.90001,-150.90001,-23.1,,,x,,,
1471796,-2.250812,8.684438,-3.5386138,-0.015244,-1.318606,-0.49543,153.90001,-148.5,-22.5,,,x,,,
1471840,-1.3763269,9.150392,-3.359171,0.396344,-1.051836,-0.55640596,146.70001,-153.3,-23.1,,,x,,,
1471902,-1.3494105,8.841749,-3.2186074,-0.67835796,1.493912,-0.663114,153.90001,-155.70001,-23.7,,,x,,,
1471922,-1.2232023,9.234131,-3.3190954,-0.274392,1.478668,-0.442076,153.90001,-143.70001,-22.5,,,,,,
1471943,-1.2118376,8.7089615,-3.2036538,-0.091464,1.089946,-0.41158798,151.5,-141.3,-23.1,,,,,,
1471964,-1.121518,8.849525,-3.3950596,-0.007622,0.83842,-0.358234,151.5,-150.90001,-23.1,,,,,,
1471984,-0.7895487,8.8579,-3.2850013,0.442076,0.327746,-0.274392,153.90001,-153.3,-24.300001,,,,,,
1472004,-0.635826,9.019398,-3.359171,0.137196,0.388722,-0.33536798,156.3,-148.5,-21.900002,,,,,,
1472067,-0.4498035,8.954799,-3.5404081,-0.03811,0.053354,-0.487808,151.5,-148.5,-21.900002,,,,,,
1472107,-0.47791624,9.024183,-3.4949493,-0.312502,-0.19055,-0.518296,156.3,-143.70001,-23.7,,,,,,
1472222,-0.715379,8.88661,-3.33046,-0.579272,0.15244,-0.731712,153.90001,-146.1,-23.7,,,,,,
1472282,-0.4216908,8.998463,-3.2975621,-0.297258,0.30488,-0.182928,153.90001,-146.1,-22.5,,,,,,
1472341,-0.4982531,8.820216,-3.3328526,-0.15244,0.67073596,-0.60976,158.70001,-148.5,-23.7,,,,,,
1472446,-0.5287584,8.799281,-3.4464998,-0.327746,0.655492,-0.320124,158.70001,-148.5,-22.5,,,,,,
1472466,-0.58558196,8.887208,-3.4787996,-0.289636,0.548784,-0.274392,153.90001,-143.70001,-21.300001,,,,,,
1472506,-0.49944937,9.0756235,-3.5158844,-0.144818,0.045732,-0.015244,153.90001,-141.3,-22.5,,,,,,
1472526,-0.50423455,8.94463,-3.4632478,-0.434454,0.053354,-0.20579399,158.70001,-141.3,-21.900002,,,,,,
1472546,-0.5538804,8.853712,-3.4165926,-0.442076,0.068598,-0.20579399,153.90001,-143.70001,-21.900002,,,,,,
1472569,-0.42707407,8.852516,-3.325675,-0.449698,0.121952,-0.144818,163.5,-141.3,-21.900002,,,,,,
1472631,-0.5467027,8.7191305,-3.3298619,-0.396344,0.510674,-0.259148,156.3,-146.1,-23.1,,,,,,
1472651,-0.5000475,8.837563,-3.2742345,-0.26677,0.365856,-0.07622,156.3,-141.3,-21.900002,,,,,,
1472672,-0.49346796,9.106727,-3.4070225,-0.320124,0.28201398,-0.007622,156.3,-138.90001,-21.900002,,,,,,
1472692,-0.5305528,8.774159,-3.3896763,-0.3811,0.068598,-0.22865999,153.90001,-146.1,-21.900002,,,,,,
1472754,-0.35948393,8.871656,-3.338834,-0.198172,0.0,0.137196,161.1,-143.70001,-21.900002,,,,,,
1472866,-0.3774282,9.183289,-3.501529,-0.221038,0.26677,-0.182928,156.3,-138.90001,-22.5,,,,,,
1472886,-0.44621465,8.883021,-3.5619414,-0.358234,0.144818,-0.55640596,158.70001,-143.70001,-23.7,,,,,,
1472926,-0.49107537,8.652138,-3.3537877,-0.45731997,0.274392,-0.099086,158.70001,-141.3,-23.7,,,,,,
1472949,-0.4970568,8.936256,-3.4064243,-0.41158798,0.34298998,0.03811,151.5,-148.5,-22.5,,,x,,,
1472969,-0.5120104,8.94463,-3.3167028,-0.518296,0.320124,0.022866,156.3,-148.5,-21.900002,,,x,,,
1472989,-0.5144029,8.972144,-3.3699374,-0.70122397,0.33536798,0.16768399,158.70001,-146.1,-21.900002,,,x,,,
1473049,-0.55328226,9.049305,-3.3561802,-0.07622,-0.068598,0.144818,156.3,-146.1,-21.300001,,,x,,,
1473108,-0.39716694,8.93506,-3.4680328,0.251526,-0.80793196,0.07622,151.5,-146.1,-23.1,,,x,,,
1473128,-0.33316565,8.961378,-3.5027251,-0.053354,-0.754578,0.045732,151.5,-143.70001,-22.5,,,x,,,
1473170,-0.54371196,8.592922,-3.4883697,-0.55640596,-0.56402797,-0.083841994,156.3,-143.70001,-22.5,,,x,,,
1473190,-0.71478087,8.49363,-3.3986483,-0.55640596,-0.373478,0.251526,156.3,-141.3,-20.7,,,x,,,
1473210,-1.522872,8.729897,-3.7419825,-1.1356779,0.3811,0.70122397,144.3,-143.70001,-20.1,,,x,,,
1473230,-2.3883848,8.70298,-4.1523085,-1.6311079,0.80793196,1.013726,146.70001,-150.90001,-23.1,,,x,,,
1473250,-3.4883697,8.05579,-4.079933,-1.989342,0.907018,0.983238,149.1,-153.3,-22.5,,,x,,,
1473271,-5.249901,8.338711,-4.258778,-2.660078,2.2865999,1.3643379,144.3,-146.1,-23.1,,,x,,,
1473291,-6.5580397,9.601391,-5.6333103,-2.2408679,5.419242,1.539644,149.1,-155.70001,-22.5,,,x,,,
1473353,-5.9598966,8.673073,-5.0722523,-2.850628,0.274392,6.067112,141.90001,-153.3,-23.1,,,x,,,
1473373,-4.2019544,8.016911,-4.6798706,-3.635694,2.423796,7.20279,132.3,-153.3,-23.7,,,x,,,
1473393,-3.6295316,7.924796,-4.381995,-3.559474,2.157026,7.225656,132.3,-160.5,-24.900002,,,x,,,
1473413,-2.3602722,7.976835,-3.6839626,-3.2545938,2.13416,6.318638,115.50001,-155.70001,-25.500002,,,x,,,
1473437,-0.8673073,7.320672,-2.7670095,-2.660078,1.966476,3.6814258,113.100006,-160.5,-27.900002,,,x,,,
1473457,-0.12321745,6.618452,-1.7322221,-3.2241058,1.303362,2.7515419,110.700005,-162.90001,-28.500002,,,x,,,
1473479,0.53234726,6.661518,-0.75904346,-4.1921,1.463424,3.147886,108.3,-158.1,-28.500002,,,x,,,
1473543,2.7018118,6.2978473,0.64180744,-3.932952,3.140264,5.44973,93.9,-162.90001,-28.500002,,,x,,,
1473643,5.751743,10.217478,-1.3021573,-0.53354,2.378064,6.17382,67.5,-174.90001,-29.7,,,x,,,
1473663,5.513084,9.544567,-1.8177565,-0.541162,1.570132,4.519846,55.500004,-177.3,-30.900002,,,x,,,
1473703,6.6088815,9.269422,-1.9553294,0.746956,-1.3795819,3.955818,53.100002,-172.5,-30.900002,,,x,,,
1473723,7.522246,10.535092,-1.1137422,-0.663114,-1.18141,4.664664,41.100002,-182.1,-29.1,,,x,,,
1473743,7.196856,10.292246,-0.9420752,-1.3719599,-0.358234,3.8109999,43.5,-172.5,-30.900002,,,x,,,
1473763,6.681257,9.355555,-1.2943814,-1.570132,0.68597996,2.416174,36.300003,-172.5,-30.300001,,,x,,,
1473783,6.506001,8.485854,-1.0898165,-0.92226195,0.396344,1.928366,33.9,-177.3,-29.7,,,x,,,
1473806,6.811054,9.686926,-0.70221984,-0.602138,0.47256398,2.6905658,24.300001,-172.5,-30.300001,,,x,,,
1473826,6.1889853,9.040931,-1.3649622,-0.708846,0.80030996,1.33385,29.1,-174.90001,-30.300001,,,x,,,
1473846,5.718845,9.447668,-1.5127035,0.586894,-0.503052,0.11432999,31.500002,-174.90001,-30.300001,,,x,,,
1473866,6.927692,10.024278,-1.1681732,0.510674,-1.5244,-0.617382,21.900002,-177.3,-30.300001,,,x,,,
1473886,6.9193177,8.985902,-0.57840425,-1.089946,-1.089946,-0.87653,38.7,-177.3,-29.7,,,x,,,
1473906,6.865485,9.72102,-0.9953099,-0.899396,-0.434454,-0.41921,26.7,-177.3,-29.7,,,x,,,
1473926,6.4695144,9.186279,-0.98215073,-0.26677,-0.434454,-2.32471,29.1,-179.70001,-29.1,,,x,,,
1473946,7.2327447,9.178504,-0.51859,0.121952,-0.87653,-2.6677,33.9,-179.70001,-29.7,,,x,,,
1473966,7.8362713,9.332227,-0.1489376,-0.49543,-0.34298998,-1.539644,31.500002,-174.90001,-29.7,,,x,,,
1474006,6.485066,9.462024,-1.5904622,0.754578,0.0,-3.58234,38.7,-174.90001,-31.500002,,,x,,,
1474026,6.2691364,8.69341,-1.0718722,1.25763,-1.67684,-6.0594897,48.300003,-179.70001,-31.500002,,,x,,,
1474049,6.458748,8.76758,-0.5467027,0.92988396,-2.378064,-5.9832697,43.5,-170.1,-29.1,,,x,,,
1474069,5.3097153,7.5706954,-1.2477262,-0.289636,-1.166166,-5.914672,53.100002,-172.5,-28.500002,,,x,,,
1474089,4.527942,8.868068,-1.9290111,1.6311079,-2.2713559,-4.519846,53.100002,-174.90001,-28.500002,,,x,,,
1474109,4.1427383,9.015809,-2.0606024,1.760682,-3.2012398,-5.663146,57.9,-174.90001,-28.500002,,,x,,,
1474129,3.8992941,8.544473,-1.908076,1.25763,-3.368924,-6.4939437,72.3,-170.1,-26.7,,,x,,,
1474193,2.0007882,8.076725,-1.7005205,0.792688,-2.09605,-6.9131536,93.9,-165.3,-28.500002,,,x,,,
1474234,0.85235375,6.4061112,-1.1885101,0.640248,-1.75306,-6.9436417,110.700005,-165.3,-27.900002,,,x,,,
1474367,-4.2181044,8.598904,-3.9190328,1.768304,0.739334,-3.490876,146.70001,-155.70001,-25.500002,,,x,,,
1474387,-4.344312,9.278992,-4.3263683,1.737816,0.221038,-3.2317278,144.3,-146.1,-24.900002,,,x,,,
1474427,-4.5919437,8.350674,-4.360462,1.471046,-0.106708,-3.361302,161.1,-148.5,-24.900002,,,x,,,
1474450,-4.5973268,9.381274,-4.518372,1.006104,-0.243904,-2.2637339,153.90001,-143.70001,-24.300001,,,x,,,
1474470,-4.2737317,8.667689,-4.454969,0.40396598,-0.365856,-2.6905658,151.5,-143.70001,-22.5,,,x,,,
1474490,-3.7419825,8.881227,-4.1331677,0.80793196,-0.92988396,-1.684462,161.1,-148.5,-24.300001,,,x,,,
1474510,-3.2347572,9.232337,-4.0302873,0.617382,-0.320124,-1.509156,161.1,-143.70001,-23.1,,,x,,,
1474530,-2.8507495,9.194056,-3.8634055,0.64787,-0.274392,-1.554888,165.90001,-136.5,-23.1,,,x,,,
1474554,-2.3423278,8.698793,-3.6211576,0.586894,0.17530599,-1.471046,170.70001,-141.3,-25.500002,,,x,,,
1474574,-2.0899115,9.085792,-3.6032133,0.365856,0.708846,-0.46494198,163.5,-141.3,-21.900002,,,x,,,
1474595,-1.9367869,9.307703,-3.8544333,0.182928,1.1051899,-0.11432999,163.5,-141.3,-22.5,,,x,,,
1474615,-1.5838826,9.54696,-3.9052753,0.388722,0.68597996,0.060976,163.5,-141.3,-23.1,,,x,,,
1474656,-1.192697,9.042726,-3.5069122,-0.579272,0.053354,-0.022866,163.5,-141.3,-22.5,,,x,,,
1474676,-0.9217383,9.023585,-3.4835846,-0.716468,-0.099086,-0.007622,161.1,-143.70001,-23.1,,,x,,,
1474759,-0.4007558,8.662307,-2.9590132,-0.868908,0.03811,-0.07622,163.5,-143.70001,-23.1,,,x,,,
1474848,-0.23088318,9.094166,-3.0768476,-0.045732,0.487808,-0.396344,163.5,-141.3,-21.300001,,,,,,
1474869,-0.4067372,8.475686,-3.204252,-0.121952,0.548784,-0.541162,168.3,-141.3,-23.7,,,,,,
1474889,-0.33496007,8.8919935,-3.183317,0.442076,0.030488,-0.160062,163.5,-143.70001,-23.1,,,,,,
1474951,-1.7214555,9.063063,-4.017128,0.022866,-0.129574,-0.7622,168.3,-141.3,-23.7,,,x,,,
1475110,-5.1613755,7.219586,-4.4286504,-1.48629,-0.64787,3.635694,153.90001,-148.5,-23.7,,,x,,,
1475145,-3.5278473,6.906159,-3.6959255,-1.288118,-1.722572,3.7271578,149.1,-150.90001,-23.7,,,x,,,
1475166,-1.7376053,6.215902,-2.4912655,-1.18141,-2.40093,4.0625257,146.70001,-153.3,-23.7,,,x,,,
1475206,0.42527965,7.321868,-1.4032434,-1.707328,-0.716468,4.61131,137.1,-153.3,-23.1,,,x,,,
1475228,1.6018269,8.245999,-1.1980804,-2.919226,0.884152,4.0320377,132.3,-158.1,-27.900002,,,x,,,
1475248,2.1909976,8.129959,-1.2357634,-3.902464,1.4024479,2.446662,127.50001,-155.70001,-26.1,,,x,,,
1475268,2.028303,5.9060636,-1.033591,-3.879598,1.989342,1.8292799,129.90001,-160.5,-28.500002,,,x,,,
1475331,3.647476,10.374191,-1.564742,-1.958854,1.006104,3.917708,108.3,-167.70001,-28.500002,,,x,,,
1475351,3.920229,9.77246,-1.4469079,-1.5929979,0.998482,3.041178,105.9,-165.3,-29.1,,,x,,,
1475371,3.9064717,9.438696,-1.3900843,-1.158544,1.173788,2.652456,103.50001,-170.1,-27.900002,,,x,,,
1475395,4.145729,9.876536,-1.7711014,-0.213416,1.6311079,2.827762,105.9,-165.3,-29.7,,,x,,,
1475415,4.122401,9.974034,-2.0019846,-0.015244,1.75306,2.461906,103.50001,-167.70001,-28.500002,,,x,,,
1475437,3.9417622,9.756908,-2.4529843,0.655492,1.493912,2.446662,96.3,-165.3,-27.300001,,,x,,,
1475457,4.285096,10.3173685,-2.308832,0.57164997,0.34298998,2.911604,89.100006,-165.3,-26.7,,,x,,,
1475481,4.8126583,10.190562,-1.83271,0.045732,0.365856,2.370442,89.100006,-167.70001,-27.900002,,,x,,,
1475501,4.626636,9.719823,-2.292084,-0.11432999,1.6463519,2.309466,81.9,-170.1,-26.1,,,x,,,
1475522,4.6140747,9.804161,-2.4272642,-0.022866,1.585376,2.393308,84.3,-167.70001,-27.300001,,,x,,,
1475542,4.6798706,9.743749,-2.1927922,-0.388722,1.227142,1.996964,81.9,-170.1,-27.300001,,,x,,,
1475606,4.460352,9.7993765,-2.216718,-0.46494198,0.259148,-0.106708,81.9,-170.1,-26.7,,,x,,,
1475685,4.6092896,10.466306,-2.4224792,0.106708,0.16768399,-0.487808,84.3,-172.5,-27.300001,,,x,,,
1475705,5.044738,9.999156,-1.9702829,-0.449698,-0.518296,-0.579272,86.700005,-167.70001,-27.300001,,,x,,,
1475747,4.492652,10.698385,-2.363263,-1.806414,0.297258,0.373478,84.3,-172.5,-29.1,,,x,,,
1475767,4.832397,10.378379,-2.4499936,-1.3719599,-0.846042,-1.288118,77.100006,-170.1,-27.900002,,,x,,,
1475787,5.117113,9.826293,-1.7017168,-1.432936,-1.9054999,-1.265252,74.700005,-174.90001,-28.500002,,,x,,,
1475807,4.872473,9.182691,-1.6096027,-2.827762,-1.280496,-0.67073596,84.3,-170.1,-29.1,,,x,,,
1475827,4.7600217,9.707262,-1.472628,-2.36282,-1.3414719,-1.1204339,84.3,-167.70001,-30.300001,,,x,,,
1475870,4.0350723,8.656325,-0.9785619,-1.089946,-1.303362,-3.894842,84.3,-162.90001,-29.7,,,x,,,
1475890,3.465042,8.0827055,-0.9354956,-0.625004,-1.1128119,-5.37351,93.9,-165.3,-29.7,,,x,,,
1475910,2.9673872,7.4749928,-0.9145606,0.388722,-1.18141,-6.0976,103.50001,-167.70001,-31.500002,,,x,,,
1475930,2.372235,7.8003826,-0.912168,1.1128119,-0.975616,-5.739366,108.3,-165.3,-30.300001,,,x,,,
1475950,1.6419024,8.256765,-1.2752408,0.67073596,-0.548784,-5.617414,110.700005,-165.3,-29.7,,,x,,,
1475993,0.05203844,6.272725,-1.0605075,0.487808,0.129574,-6.318638,122.700005,-165.3,-28.500002,,,x,,,
1476013,-1.0114597,6.517964,-1.8351027,0.655492,1.1051899,-5.60217,127.50001,-158.1,-29.7,,,x,,,
1476037,-1.1944915,7.7250166,-2.372235,1.6158639,0.632626,-5.175338,132.3,-155.70001,-29.7,,,x,,,
1476057,-1.7292314,7.8039713,-2.4081235,1.5244,0.022866,-5.5793037,137.1,-158.1,-26.7,,,x,,,
1476099,-2.8082812,7.6053877,-3.16298,1.722572,-0.11432999,-4.474114,153.90001,-150.90001,-27.900002,,,x,,,
1476119,-3.1815224,7.870365,-3.383695,2.2332458,-0.327746,-3.528986,151.5,-146.1,-26.1,,,x,,,
1476139,-3.7007105,8.725112,-3.8765645,2.17227,-0.22865999,-2.7286758,153.90001,-146.1,-27.300001,,,x,,,
1476159,-4.1020646,8.743654,-4.2037487,1.806414,-0.632626,-2.888738,149.1,-148.5,-26.7,,,x,,,
1476239,-4.3496957,9.557727,-4.2821054,0.602138,-1.3795819,-2.446662,163.5,-143.70001,-22.5,,,x,,,
1476307,-3.2945714,8.941639,-3.5876615,0.17530599,-0.617382,-1.5244,173.1,-138.90001,-26.1,,,x,,,
1476345,-2.2872987,8.545071,-3.2186074,0.022866,0.15244,0.312502,168.3,-136.5,-26.1,,,x,,,
1476365,-1.8410841,8.885414,-3.7120752,0.121952,0.41921,0.47256398,165.90001,-141.3,-24.300001,,,,,,
1476407,-1.4534874,8.667091,-3.6289334,-0.099086,-0.30488,0.746956,165.90001,-138.90001,-25.500002,,,,,,
1476447,-1.1723602,9.024781,-3.477005,-1.501534,0.46494198,1.044214,168.3,-138.90001,-23.7,,,,,,
1476489,-1.2100432,8.795692,-3.2443275,-1.425314,0.099086,0.35061198,165.90001,-141.3,-27.300001,,,,,,
1476529,-1.1639862,9.106727,-3.0672772,-0.739334,0.16768399,0.19055,165.90001,-146.1,-26.7,,,,,,
1476549,-1.5886678,8.787916,-3.2215981,-0.899396,0.358234,-0.320124,168.3,-146.1,-26.1,,,,,,
1476589,-2.5050228,8.622829,-3.250309,-0.60976,0.68597996,0.67073596,163.5,-143.70001,-26.7,,,,,,
1476613,-3.7240381,9.100745,-3.614578,-0.82317597,1.310984,1.097568,161.1,-148.5,-26.1,,,,,,
1476633,-4.7677975,10.098448,-4.3790045,-0.792688,2.164648,0.67073596,158.70001,-146.1,-25.500002,,,,,,
1476653,-5.6279273,9.705468,-4.4244637,-0.95274997,1.699706,0.007622,153.90001,-143.70001,-25.500002,,,,,,
1476673,-6.6692944,9.667785,-4.294667,-2.36282,2.7744079,2.080806,161.1,-146.1,-26.1,,,,,,
1476693,-6.567012,10.07512,-4.343714,-2.911604,3.056422,2.903982,161.1,-143.70001,-26.1,,,,,,
1476713,-6.5203567,9.881322,-3.5996244,-3.856732,3.3079479,2.492394,156.3,-148.5,-27.300001,,,x,,,
1476773,-4.4208746,5.6919284,-2.9093673,-1.471046,1.1356779,-0.40396598,149.1,-148.5,-26.1,,,x,,,
1476837,0.9354956,5.9969816,-1.8159621,-0.30488,1.02897,4.740884,144.3,-153.3,-27.900002,,,x,,,
1476857,2.046247,6.97016,-2.255597,-0.426832,1.1432999,6.36437,137.1,-150.90001,-25.500002,,,x,,,
1476877,3.1025677,7.7884197,-2.385394,-0.28201398,0.617382,7.3933396,132.3,-155.70001,-26.1,,,x,,,
1476900,4.384388,9.590625,-2.125202,-0.891774,-0.548784,8.544262,127.50001,-155.70001,-27.300001,,,x,,,
1476940,4.664917,9.652831,-1.915852,-1.9054999,0.99086,7.3323636,110.700005,-162.90001,-27.900002,,,x,,,
1476962,4.2103286,10.059568,-2.2370548,-1.18141,0.92988396,6.234796,108.3,-167.70001,-29.1,,,x,,,
1476982,4.6822634,10.108616,-1.8291212,-1.211898,-0.251526,5.114362,98.700005,-167.70001,-26.7,,,x,,,
1477004,5.308519,9.898668,-1.3117275,-1.974098,0.083841994,4.5884438,89.100006,-170.1,-28.500002,,,x,,,
1477024,4.8222284,9.37649,-1.2405485,-2.492394,1.5244,3.330814,84.3,-170.1,-29.1,,,x,,,
1477044,4.8174434,9.377088,-1.196884,-1.310984,1.75306,2.484772,84.3,-167.70001,-30.300001,,,x,,,
1477066,5.1805162,9.684533,-1.0617038,-1.547266,2.7744079,2.050318,84.3,-172.5,-28.500002,,,x,,,
1477086,5.1565905,10.137327,-1.0784518,-2.111294,3.422278,2.301844,74.700005,-172.5,-29.7,,,x,,,
1477106,4.5147834,10.131944,-1.6700152,-2.187514,3.323192,2.2408679,74.700005,-177.3,-30.300001,,,x,,,
1477146,5.183507,10.128953,-0.9785619,-1.4024479,-0.106708,1.463424,77.100006,-177.3,-32.100002,,,x,,,
1477188,5.51428,9.681542,-0.61309654,-1.6387299,0.81555396,0.11432999,74.700005,-172.5,-30.900002,,,x,,,
1477230,5.509495,9.770665,-0.6471907,0.068598,0.259148,-0.81555396,65.100006,-174.90001,-30.900002,,,x,,,
1477250,5.5501685,9.528418,-0.794932,-0.19055,0.480186,-0.663114,67.5,-172.5,-28.500002,,,x,,,
1477270,4.9968863,9.532006,-1.3374476,0.144818,0.541162,-0.49543,67.5,-172.5,-29.1,,,x,,,
1477290,5.0638785,10.200132,-2.0360787,1.189032,-0.663114,-2.073184,72.3,-174.90001,-30.900002,,,x,,,
1477354,5.5238504,10.0583725,-2.51878,0.160062,-1.1280559,-0.17530599,72.3,-177.3,-30.300001,,,x,,,
1477427,4.4160895,8.018704,-0.36965236,-0.67073596,-2.919226,-3.879598,86.700005,-167.70001,-29.7,,,x,,,
