time,sensor_accX,sensor_accY,sensor_accZ,sensor_gyroX,sensor_gyroY,sensor_gyroZ,sensor_magX,sensor_magY,sensor_magZ,label_Boxing_slip_left,label_Boxing_slip_right,label_Boxing_pullback,label_Boxing_roll_left,label_Boxing_roll_right,label_Boxing_recording_cut
195742,3.439322,10.455539,-1.6670245,0.129574,-1.6082419,-0.92988396,86.700005,-167.70001,-29.1,,,,,,
195762,2.8088794,8.046818,-1.6598468,0.655492,-1.166166,-2.530504,89.100006,-162.90001,-29.7,,,,,,
195825,0.3271842,11.911419,-2.7723927,0.07622,-2.309466,0.983238,91.5,-160.5,-28.500002,,,,,,
195887,-2.7598317,10.372397,-3.8969014,0.388722,-1.425314,0.022866,91.5,-158.1,-28.500002,,,,,,
195986,-1.5491903,10.151084,-3.0445478,1.196654,-0.487808,-4.87808,105.9,-158.1,-27.300001,,,,,,
196007,-1.3757288,9.088184,-2.987724,1.79117,-0.891774,-4.76375,110.700005,-162.90001,-28.500002,,,,,,
196049,-0.8015116,8.24899,-1.940974,0.60976,-0.106708,-1.951232,117.9,-155.70001,-26.7,,,,,,
196070,-0.6178817,8.380581,-1.9559275,0.243904,0.28201398,-1.211898,113.100006,-155.70001,-28.500002,,,,,,
196090,-0.6214706,7.948124,-1.8452711,0.129574,0.28201398,-1.501534,125.100006,-160.5,-26.1,,,,,,
196112,-0.019140575,8.460732,-1.9242259,0.289636,-0.182928,-1.4024479,113.100006,-153.3,-26.1,,,,,,
196132,0.4533924,8.2777,-1.7651199,0.121952,-0.55640596,-1.75306,129.90001,-153.3,-26.1,,,,,,
196152,0.723753,7.9265904,-1.7705032,0.213416,-0.64787,-1.669218,122.700005,-158.1,-25.500002,,,,,,
196172,0.67590153,8.299832,-2.2442324,0.487808,-0.579272,-1.1128119,125.100006,-158.1,-26.1,,,,,,
196192,0.6447981,8.781337,-2.5002377,0.221038,-0.868908,-0.884152,125.100006,-155.70001,-26.1,,,,,,
196212,1.0030857,9.409986,-2.640203,-0.091464,-0.94512796,-1.265252,122.700005,-150.90001,-25.500002,,,,,,
196233,1.2411467,9.475183,-3.2688513,-0.289636,0.144818,-1.6539739,127.50001,-158.1,-27.300001,,,,,,
196295,1.8620191,11.23492,-3.811367,0.022866,0.67835796,-1.3719599,132.3,-150.90001,-27.300001,,,,,,
196343,1.3811121,9.179102,-3.6881495,0.846042,0.015244,-1.8597679,129.90001,-146.1,-23.7,,,,,,
196363,1.2889981,8.992481,-3.4279573,0.449698,-0.274392,-0.754578,132.3,-150.90001,-26.1,,,,,,
196406,1.2166228,7.408599,-2.669512,-0.327746,-0.754578,0.091464,139.5,-146.1,-24.300001,,,,,,
196428,1.7382035,7.537798,-2.6031182,-0.20579399,-0.17530599,0.94512796,134.70001,-155.70001,-26.1,x,,,,,
196448,2.0564156,8.728103,-2.9883223,0.022866,-0.045732,1.425314,137.1,-148.5,-25.500002,x,,,,,
196469,2.4158995,8.322561,-2.7251394,-0.3811,-0.358234,0.80793196,134.70001,-146.1,-24.300001,x,,,,,
196510,2.5289485,7.087396,-3.7970116,-1.059458,2.881116,-1.547266,132.3,-148.5,-25.500002,x,,,,,
196530,2.254999,7.177716,-5.4030256,0.55640596,3.597584,-1.3948259,137.1,-150.90001,-24.300001,x,,,,,
196552,2.5971367,9.387256,-6.501216,0.442076,1.41007,-0.83842,134.70001,-146.1,-24.900002,x,,,,,
196572,2.9757612,9.451856,-6.6573315,-0.503052,1.67684,-3.079288,137.1,-150.90001,-24.300001,x,,,,,
196614,2.7215505,8.685036,-6.4491777,-0.92988396,5.304912,-6.44059,141.90001,-141.3,-24.900002,x,,,,,
196644,1.2955776,7.358355,-6.4414015,-1.67684,9.329328,-8.247004,149.1,-138.90001,-23.7,x,,,,,
196664,0.20935003,6.6453686,-5.9126434,-1.493912,9.984819,-8.57475,156.3,-134.1,-21.300001,x,,,,,
196704,-0.9241309,5.5944314,-3.3615634,-2.347576,10.152504,-9.748538,168.3,-129.3,-21.300001,x,,,,,
196726,-1.2572966,4.501624,-2.489471,-2.942092,11.836966,-10.525982,177.90001,-134.1,-21.900002,x,,,,,
196747,-1.2417448,5.062084,-1.7968215,-3.513742,12.782094,-9.352194,177.90001,-129.3,-18.900002,x,,,,,
196767,-2.2035587,6.140536,-1.4618614,-4.237832,14.489422,-9.542744,187.5,-119.700005,-18.900002,x,,,,,
196788,-2.129389,7.564116,-0.9420752,-5.510706,14.207408,-9.405548,189.90001,-122.100006,-18.300001,x,,,,,
196808,-2.9883223,9.406995,0.9002052,-7.6067557,14.97723,-9.519877,194.70001,-114.9,-17.7,x,,,,,
196829,-4.751648,7.837467,-1.8985058,-4.603688,15.8004055,-8.376577,197.1,-112.50001,-17.1,x,,,,,
196849,-6.1524987,9.860387,-1.4540856,-2.614346,13.864418,-7.3476076,199.50002,-107.700005,-14.700001,x,,,,,
196869,-7.1998467,11.625506,-1.79084,-2.187514,10.045795,-6.4786997,201.90001,-110.100006,-15.900001,x,,,,,
196889,-7.1854916,13.537171,-1.3649622,-1.6234859,7.195168,-4.9009457,204.3,-102.9,-14.1,x,,,,,
196909,-7.7579145,11.762482,-1.62336,-1.1280559,4.0320377,-3.871976,209.1,-110.100006,-15.3,x,,,,,
196929,-7.9044595,12.834353,-1.7836623,-0.15244,0.640248,-1.02897,206.70001,-105.3,-15.3,x,,,,,
196949,-7.3553643,14.616221,-1.7465775,-0.56402797,-2.873494,0.91463995,206.70001,-100.50001,-15.900001,x,,,,,
196969,-6.7291083,14.92606,-1.4576744,-0.92226195,-4.9771657,1.669218,204.3,-100.50001,-15.900001,x,,,,,
196989,-7.116107,13.75669,-2.0516305,-0.518296,-6.4024796,2.7058098,201.90001,-107.700005,-15.900001,x,,,,,
197012,-6.664509,12.926468,-1.9894235,-0.259148,-9.306461,4.679908,211.50002,-107.700005,-16.5,x,,,,,
197032,-6.008346,12.390532,-1.8470654,-0.213416,-10.868972,6.730226,206.70001,-110.100006,-17.7,x,,,,,
197054,-5.6751804,10.940633,-1.677791,-0.198172,-12.865935,8.361334,204.3,-117.3,-20.1,x,,,,,
197074,-4.3479013,10.222861,-1.53962,0.19055,-14.108322,9.824758,199.50002,-122.100006,-21.900002,x,,,,,
197094,-3.5075104,8.987697,-1.5306479,0.92226195,-14.077834,9.840002,189.90001,-119.700005,-22.5,x,,,,,
197114,-2.4272642,8.487051,-1.74897,2.027452,-13.864418,10.007686,182.70001,-131.70001,-24.300001,x,,,,,
197134,-1.6185749,8.220279,-1.5216757,2.2408679,-13.544293,9.664696,182.70001,-131.70001,-26.1,x,,,,,
197154,-1.2058562,7.8978796,-1.7914382,2.339954,-11.913186,8.757678,175.5,-131.70001,-24.900002,x,,,,,
197175,-1.2566984,7.2142024,-2.1479313,2.385686,-10.762263,7.263766,165.90001,-141.3,-25.500002,x,,,,,
197195,-0.9719823,7.3553643,-2.7723927,2.461906,-10.083906,6.333882,163.5,-136.5,-26.1,x,,,,,
197215,-0.79313755,7.000665,-2.7412891,2.088428,-10.1372595,5.243936,165.90001,-141.3,-27.900002,x,,,,,
197235,-0.15970418,7.538994,-2.7203543,2.050318,-10.358297,4.9924097,156.3,-146.1,-26.7,x,,,,,
197258,0.25122005,6.6794624,-2.2442324,2.2103798,-9.878112,4.138746,151.5,-143.70001,-28.500002,x,,,,,
197278,0.31223062,6.6411815,-2.133576,2.012208,-7.4848037,2.812518,151.5,-148.5,-28.500002,x,,,,,
197300,0.52277696,6.814045,-2.7065969,2.850628,-6.158576,2.926848,149.1,-143.70001,-26.7,x,,,,,
197362,0.87089616,6.9593935,-3.2144203,1.8750119,-2.164648,1.25763,144.3,-150.90001,-27.900002,x,,,,,
197422,1.0054784,9.364527,-4.495044,2.675322,-1.3414719,0.259148,144.3,-150.90001,-24.900002,x,,,,,
197442,1.3476161,9.869957,-4.4651375,2.492394,-1.234764,0.221038,141.90001,-148.5,-27.300001,,,,,,
197462,0.9839452,9.487743,-3.8771627,1.288118,-0.731712,-0.884152,146.70001,-141.3,-24.300001,,,,,,
197482,0.40972793,8.926685,-4.2988534,0.35061198,1.669218,-1.478668,146.70001,-146.1,-24.900002,,,,,,
197502,0.16090046,8.804067,-4.6499634,0.754578,2.13416,-1.455802,146.70001,-148.5,-24.300001,,,,,,
197524,-0.1961909,8.798683,-4.8138547,1.669218,1.570132,-0.861286,139.5,-148.5,-24.300001,,,,,,
197584,0.5054308,8.86747,-4.096681,0.853664,0.022866,1.150922,144.3,-155.70001,-25.500002,,,,,,
197606,0.88704604,8.842946,-3.8813498,0.30488,0.64787,0.899396,141.90001,-146.1,-25.500002,,,,,,
197626,0.8589333,9.294543,-4.108046,0.320124,1.051836,0.35061198,139.5,-148.5,-23.1,,,,,,
197669,0.70640683,8.766981,-3.6672146,-0.221038,1.539644,-0.7622,141.90001,-141.3,-23.1,,,,,,
197710,0.17047074,8.462526,-3.6408963,-0.7622,1.8673899,-0.68597996,146.70001,-148.5,-24.300001,,,,,,
197730,0.14175989,8.385964,-3.5374177,-0.625004,1.501534,-0.365856,146.70001,-148.5,-23.1,,,,,,
197750,0.23327576,8.553445,-3.451285,-0.47256398,1.1051899,-0.16768399,141.90001,-143.70001,-22.5,,,,,,
197790,0.573021,8.598305,-3.5493803,-0.55640596,0.586894,-0.243904,141.90001,-146.1,-21.900002,,,,,,
197810,0.8224466,8.519949,-3.6247463,-0.57164997,0.525918,-0.297258,139.5,-141.3,-24.300001,,,,,,
197830,1.23038,8.71614,-3.7330103,-0.55640596,0.586894,-0.442076,139.5,-141.3,-24.300001,,,,,,
197853,1.4798057,8.798085,-3.9417622,-1.234764,1.227142,-1.02897,139.5,-146.1,-22.5,,,,,,
197913,1.351205,6.7961006,-5.69791,-0.99086,3.155508,-2.500016,149.1,-146.1,-21.900002,,,,,,
197933,1.6305377,8.588137,-6.5700026,-0.41921,2.317088,-0.449698,139.5,-141.3,-23.1,,,,,,
197953,1.3864954,8.739467,-6.494038,-1.044214,2.6905658,-2.522882,144.3,-143.70001,-23.7,,,,,,
197973,1.238754,7.9899936,-6.6716866,-0.625004,3.551852,-4.184478,153.90001,-138.90001,-24.300001,,,,,,
197993,1.1448456,8.401516,-5.8594084,-0.60976,3.2698379,-4.4969797,156.3,-134.1,-22.5,,,,,,
198013,0.5873764,8.595314,-4.9699697,-2.050318,5.228692,-5.823208,156.3,-138.90001,-22.5,x,,,,,
198036,0.13697474,7.568303,-4.4412117,-3.2317278,7.675354,-7.5152917,158.70001,-138.90001,-23.1,x,,,,,
198056,-0.6334334,6.5185623,-3.6325223,-3.597584,8.940606,-8.772922,168.3,-138.90001,-22.5,x,,,,,
198076,-1.2513151,5.626731,-2.5259578,-3.338436,10.038174,-9.321706,173.1,-131.70001,-22.5,x,,,,,
198096,-1.3045498,6.345699,-1.7370071,-3.2469718,11.28056,-8.582372,175.5,-131.70001,-20.7,x,,,,,
198119,-1.0760592,7.196856,-1.3607752,-4.565578,13.635757,-9.123534,182.70001,-124.50001,-18.900002,x,,,,,
198139,-0.94566405,6.5257397,-1.2866055,-4.847592,15.175402,-10.06104,185.1,-122.100006,-22.5,x,,,,,
198159,-1.393075,5.86539,-0.8852516,-4.969544,16.143396,-10.030552,192.3,-117.3,-20.1,x,,,,,
198183,-2.4069273,7.6801558,-1.4923667,-4.207344,17.484867,-9.634208,197.1,-117.3,-18.300001,x,,,,,
198203,-2.807085,7.64008,-1.8297193,-3.513742,16.646448,-9.809514,199.50002,-107.700005,-14.700001,x,,,,,
198223,-4.191188,9.519445,-1.9660959,-2.2789779,15.16778,-8.864386,204.3,-110.100006,-15.3,x,,,,,
198243,-5.17932,9.618139,-2.3495057,-1.8521459,12.362884,-8.780544,209.1,-100.50001,-14.700001,x,,,,,
198263,-5.6339087,11.529804,-1.8081862,-1.41007,9.458901,-6.562542,206.70001,-102.9,-14.700001,x,,,,,
198346,-6.807465,14.019275,-0.68846256,-1.6006199,-1.1051899,-1.775926,218.70001,-93.3,-12.3,x,,,,,
198567,-1.2644743,7.5162644,-2.5092099,2.903982,-12.926911,9.474146,177.90001,-134.1,-25.500002,x,,,,,
198588,-0.9354956,6.840961,-2.7311208,2.7439198,-11.882698,7.85066,175.5,-136.5,-24.300001,x,,,,,
198631,-0.2033686,7.4020195,-2.8585253,2.317088,-9.405548,5.655524,165.90001,-141.3,-26.1,x,,,,,
198651,0.19499461,7.0802183,-2.828618,1.539644,-9.710428,6.257662,163.5,-136.5,-27.300001,x,,,,,
198671,0.6519758,7.550359,-2.2687564,0.426832,-7.4695597,4.618932,161.1,-143.70001,-27.300001,x,,,,,
198691,0.6477888,6.543684,-2.6748953,-0.221038,-5.000032,3.368924,156.3,-148.5,-27.300001,x,,,,,
198736,0.8553445,7.015619,-3.430948,1.8292799,-4.4055157,4.0625257,144.3,-148.5,-29.7,x,,,,,
198756,1.3392421,8.948219,-3.5206695,2.62959,-3.879598,3.2088618,146.70001,-155.70001,-27.900002,x,,,,,
198776,1.4576744,9.32146,-3.8275168,2.317088,-2.7667859,0.480186,141.90001,-146.1,-26.1,x,,,,,
198796,1.1885101,8.763392,-3.9339864,1.951232,-2.195136,-0.94512796,149.1,-146.1,-27.300001,x,,,,,
198818,0.23267761,7.7286053,-4.7127686,1.707328,-0.434454,-0.426832,146.70001,-153.3,-26.7,x,,,,,
198879,-0.006579573,8.608474,-4.869482,1.6463519,0.81555396,-1.1128119,151.5,-150.90001,-24.900002,x,,,,,
198925,0.3828115,8.930275,-4.808471,2.522882,0.053354,-0.846042,151.5,-143.70001,-24.900002,,,,,,
198945,0.6543684,8.949415,-4.4448004,1.928366,0.327746,-0.91463995,153.90001,-143.70001,-23.7,,,,,,
198987,0.8810646,8.613857,-4.581775,0.35061198,1.989342,-1.097568,156.3,-141.3,-23.1,,,,,,
199007,1.2082489,9.520641,-4.468726,1.21952,1.4024479,-0.35061198,151.5,-141.3,-21.900002,,,,,,
199027,1.2698575,8.396731,-3.711477,0.083841994,1.516778,-0.967994,153.90001,-141.3,-22.5,,,,,,
199049,1.3374476,8.277102,-3.3268712,0.030488,1.699706,-0.769822,153.90001,-138.90001,-22.5,,,,,,
199069,0.89661634,8.452358,-3.6038115,-0.46494198,2.51526,-0.64787,156.3,-138.90001,-23.1,,,,,,
199089,0.53653425,9.109119,-4.0601945,0.091464,2.2561119,-0.49543,153.90001,-138.90001,-23.1,,,,,,
199109,0.41690564,9.604382,-3.9698749,0.548784,1.440558,-0.655492,146.70001,-136.5,-22.5,,,,,,
199133,0.014953574,9.848424,-3.7431786,0.129574,1.1356779,-0.67835796,151.5,-134.1,-21.300001,,,,,,
199153,-0.6495833,10.510569,-3.761123,-0.198172,1.4024479,-0.487808,149.1,-143.70001,-21.300001,,,,,,
199173,-1.4528893,10.936446,-4.1517105,-0.731712,1.75306,-1.18141,153.90001,-136.5,-21.900002,,,,,,
199237,-1.6508746,7.6693892,-2.941667,0.20579399,-1.227142,1.577754,158.70001,-138.90001,-22.5,,,,,,
199287,-1.4343468,6.5442824,-2.4224792,-1.044214,0.396344,-0.030488,153.90001,-134.1,-20.7,,,,,,
199329,-2.329767,6.366634,-3.2658606,-0.365856,0.70122397,-0.297258,158.70001,-141.3,-21.300001,,,,,,
199408,0.573021,11.4987,-4.138551,0.015244,0.853664,0.861286,141.90001,-143.70001,-22.5,,,,,,
199448,0.38879293,10.029063,-4.1636734,0.060976,-0.327746,-2.317088,153.90001,-141.3,-22.5,,,,,,
199468,0.1752559,8.8166275,-4.254591,0.022866,-0.983238,-1.71495,158.70001,-150.90001,-22.5,,,,,,
199492,0.2895012,9.106129,-4.1941786,-0.182928,-1.29574,-0.312502,158.70001,-136.5,-20.7,,,,,,
199532,0.84697044,8.218485,-4.157692,-1.951232,-0.388722,-1.189032,156.3,-143.70001,-20.1,,,,,,
199574,1.430758,7.234539,-5.1697497,-2.911604,2.2637339,-2.179892,153.90001,-136.5,-21.900002,,,,,,
199650,1.4373375,7.592229,-7.613164,0.503052,3.460388,-4.771372,156.3,-136.5,-23.7,,,,,,
199670,1.9308056,7.8296914,-6.4061112,0.708846,3.018312,-5.205826,168.3,-129.3,-23.1,,,,,,
199710,0.50064564,6.58376,-5.459251,-1.8292799,9.161644,-6.486322,170.70001,-131.70001,-20.7,,,,,,
199750,-0.55986184,5.4987283,-3.2652624,-2.621968,10.343054,-7.8887696,180.3,-124.50001,-20.7,x,,,,,
199770,-1.1179292,4.6613283,-1.8255323,-3.54423,11.859832,-9.024447,185.1,-119.700005,-18.900002,x,,,,,
199814,-1.0072727,4.811462,-0.36068022,-4.108258,17.301939,-8.826276,197.1,-114.9,-16.5,x,,,,,
199834,-2.5791924,7.815934,-1.594051,-4.298808,19.573296,-7.69822,192.3,-110.100006,-14.1,x,,,,,
199854,-3.2945714,9.445275,-1.49775,-4.23021,17.80499,-9.489389,197.1,-112.50001,-14.1,x,,,,,
199874,-4.113429,7.902665,-0.92951417,-3.422278,17.61444,-11.707392,199.50002,-110.100006,-12.900001,x,,,,,
199895,-5.5202613,10.4579315,-2.012153,-2.393308,18.483349,-9.024447,204.3,-100.50001,-11.1,x,,,,,
199915,-6.8702703,13.860168,-3.7712915,-3.064044,15.960467,-7.35523,206.70001,-102.9,-9.3,x,,,,,
199935,-6.651948,12.126152,-2.3309631,-3.978684,7.9954777,-8.376577,201.90001,-98.100006,-8.1,x,,,,,
199956,-7.003058,11.955682,-1.6227618,-3.3079479,6.951264,-5.37351,211.50002,-95.700005,-8.1,x,,,,,
199976,-6.5921335,14.855479,-2.0719674,-4.0320377,2.423796,-2.873494,204.3,-98.100006,-8.1,x,,,,,
199998,-7.3619437,13.667567,-0.76622117,-4.123502,-0.47256398,-3.589962,209.1,-88.5,-9.3,x,,,,,
200018,-8.30043,14.122754,-1.7716994,-1.775926,-2.012208,-1.41007,216.3,-93.3,-9.900001,x,,,,,
200038,-8.878835,14.397302,-2.7508595,-0.17530599,-7.8735256,1.8597679,218.70001,-93.3,-10.5,x,,,,,
200058,-8.571389,13.525807,-2.5983331,0.17530599,-10.350676,3.140264,216.3,-98.100006,-11.1,x,,,,,
200102,-5.550767,11.444269,-2.1437445,1.3795819,-16.516874,9.824758,211.50002,-102.9,-15.900001,x,,,,,
200128,-4.8497434,10.195347,-2.1933904,1.554888,-17.423891,9.931466,204.3,-107.700005,-17.7,x,,,,,
200148,-4.0739517,8.440993,-2.1646795,2.179892,-18.399508,8.887252,209.1,-114.9,-19.5,x,,,,,
200188,-2.049836,7.400823,-0.8978126,4.5579557,-16.905596,8.894874,201.90001,-119.700005,-21.900002,x,,,,,
200208,-1.8566358,7.655632,-1.5288534,4.5731997,-14.054968,8.132674,197.1,-126.9,-22.5,x,,,,,
200231,-1.9062816,6.3630447,-2.6180718,3.8186219,-11.455866,7.4390717,187.5,-124.50001,-25.500002,x,,,,,
200251,-2.2095401,6.3361287,-3.06309,2.93447,-10.823239,7.263766,187.5,-131.70001,-23.1,x,,,,,
200271,-1.627547,5.848642,-3.2610755,2.301844,-10.266833,6.5244317,180.3,-129.3,-26.1,x,,,,,
200291,-0.72315484,6.288277,-2.7927296,2.317088,-10.6631775,6.890288,180.3,-134.1,-25.500002,x,,,,,
200314,0.011364716,6.774567,-2.4368346,1.6387299,-8.841519,5.853696,165.90001,-129.3,-24.900002,x,,,,,
200334,0.08972145,6.034066,-2.661138,1.9054999,-6.6158957,4.1921,173.1,-138.90001,-26.1,x,,,,,
200354,0.43544808,5.9933925,-2.6569512,2.82014,-5.586926,4.53509,168.3,-134.1,-27.300001,x,,,,,
200374,0.19379832,6.378597,-3.4207797,2.55337,-2.843006,4.443626,161.1,-134.1,-26.7,x,,,,,
200418,0.3714468,8.378188,-3.8628073,3.940574,-3.1936178,5.0533857,151.5,-141.3,-24.300001,x,,,,,
200438,0.52457136,9.360339,-4.2910776,2.347576,-1.21952,3.16313,153.90001,-143.70001,-24.900002,,,,,,
200458,0.026318291,7.890104,-5.0399528,1.6463519,-0.358234,0.746956,149.1,-136.5,-25.500002,,,,,,
200478,0.34333408,7.952311,-4.874865,2.500016,-2.004586,2.01983,146.70001,-146.1,-23.7,,,,,,
200498,0.62027425,9.028968,-4.5907474,1.775926,-1.4024479,2.568614,149.1,-141.3,-24.300001,,,,,,
200558,0.6932477,9.370508,-4.999279,1.25763,-0.106708,-0.121952,144.3,-141.3,-23.7,,,,,,
200607,0.43664438,9.083998,-4.8569207,1.661596,0.22865999,-0.777444,146.70001,-143.70001,-22.5,,,,,,
200626,0.50363636,8.958985,-4.5333257,1.02897,1.082324,-0.81555396,144.3,-136.5,-21.300001,,,,,,
200667,0.08374002,8.64496,-4.765405,0.746956,1.8673899,-0.60976,149.1,-141.3,-20.1,,,,,,
200707,0.20935003,8.924891,-4.359864,0.213416,1.326228,-0.144818,146.70001,-141.3,-21.300001,,,,,,
200727,0.07476787,8.948219,-4.078139,-0.46494198,1.29574,-0.40396598,149.1,-138.90001,-20.7,,,,,,
200750,-0.018542431,8.73528,-3.7437768,-1.150922,1.33385,-0.67073596,144.3,-138.90001,-21.300001,,,,,,
200791,-0.2841179,8.31,-3.564932,-1.211898,1.326228,-0.60976,149.1,-143.70001,-21.900002,,,,,,
200811,-0.5161974,8.367422,-3.5194733,-0.82317597,0.94512796,-0.053354,149.1,-141.3,-21.900002,,,,,,
200834,-0.51141226,8.687428,-3.4614534,-0.57164997,0.518296,0.358234,144.3,-141.3,-20.1,,,,,,
200854,-0.26557547,8.866273,-3.284403,-0.55640596,0.33536798,0.449698,146.70001,-143.70001,-21.300001,,,,,,
200874,-0.20635933,8.878236,-3.3149083,-0.53354,0.373478,0.40396598,149.1,-143.70001,-20.7,,,,,,
200894,-0.1752559,8.9356575,-3.246122,-0.40396598,0.28201398,0.243904,151.5,-141.3,-21.300001,,,,,,
200918,-0.05084215,9.107325,-3.1575968,-0.53354,0.137196,0.091464,144.3,-136.5,-21.300001,,,,,,
200938,-0.052636582,8.411685,-3.1737466,-0.891774,0.388722,-0.099086,144.3,-141.3,-21.300001,,,,,,
200958,-0.29428634,8.413479,-3.2192054,-0.45731997,0.07622,0.56402797,137.1,-143.70001,-21.900002,,,,,,
200979,-0.0807493,9.062464,-3.4243686,0.15244,-0.297258,0.426832,141.90001,-146.1,-20.1,,,,,,
200999,-0.002392572,8.953602,-3.5027251,0.30488,-0.64787,0.0,146.70001,-146.1,-21.900002,,,,,,
201021,0.093908444,8.705971,-3.3322544,0.41921,-0.92226195,-0.121952,144.3,-141.3,-19.5,x,,,,,
201041,0.32778236,8.846535,-3.3627598,0.137196,-0.69360197,-0.060976,141.90001,-146.1,-21.300001,x,,,,,
201123,0.82603544,8.887208,-4.2815075,-1.71495,0.640248,-0.81555396,144.3,-141.3,-20.1,x,,,,,
201145,0.75126755,8.329141,-4.766003,-2.157026,1.3567159,-1.547266,149.1,-143.70001,-22.5,x,,,,,
201165,0.84278345,7.5449753,-5.5280375,-1.501534,2.339954,-1.6006199,144.3,-141.3,-21.300001,x,,,,,
201207,1.8775707,8.735878,-6.718342,-0.967994,2.7972739,-0.365856,146.70001,-138.90001,-21.300001,x,,,,,
201231,1.5444051,8.431423,-6.923505,-1.417692,5.236314,-1.3948259,153.90001,-143.70001,-21.900002,x,,,,,
201251,0.8864479,7.6693892,-7.4074025,-0.55640596,7.538158,-2.187514,151.5,-141.3,-21.300001,x,,,,,
201275,0.6101058,7.150201,-5.5364113,0.53354,5.4268637,-2.164648,149.1,-136.5,-19.5,x,,,,,
201295,0.5467027,7.480376,-4.466932,0.015244,6.66925,-2.957336,149.1,-134.1,-19.5,x,,,,,
201316,1.1179292,7.0562925,-3.777871,-0.40396598,8.551884,-4.626554,153.90001,-136.5,-19.5,x,,,,,
201336,0.68666816,6.2224813,-3.0026777,-1.089946,10.259212,-6.4177237,153.90001,-136.5,-18.900002,x,,,,,
201356,0.51141226,5.334239,-2.8974047,-1.265252,13.056486,-7.957368,156.3,-134.1,-15.900001,x,,,,,
201376,0.13458216,5.6279273,-2.623455,-1.166166,13.658624,-8.247004,156.3,-126.9,-17.1,x,,,,,
201399,0.056225438,5.325865,-1.8416822,-2.6905658,14.336982,-9.405548,161.1,-129.3,-16.5,x,,,,,
201440,-1.2399504,4.6080933,-1.3966638,-4.34454,18.833961,-10.495494,173.1,-122.100006,-12.900001,x,,,,,
201460,-3.1258953,5.8671846,-3.0463421,-2.576236,18.490973,-7.987856,180.3,-122.100006,-11.1,x,,,,,
201480,-0.9845433,10.570382,-1.0629001,-4.72564,11.410133,-5.4725957,175.5,-117.3,-11.700001,x,,,,,
201502,-2.6413994,11.469392,0.16628374,-3.323192,16.631203,-8.902495,175.5,-119.700005,-10.5,x,,,,,
201522,-5.93298,14.498387,-2.907573,-1.6234859,17.896456,-8.696702,180.3,-114.9,-10.5,x,,,,,
201542,-7.0467224,13.578444,-4.228871,-2.317088,11.173852,-9.275973,175.5,-114.9,-8.700001,x,,,,,
201565,-7.3535695,16.426203,-3.82333,-3.064044,3.140264,-4.34454,177.90001,-107.700005,-9.3,x,,,,,
201585,-6.7542305,16.086456,-3.1809244,-4.367406,-3.3155699,-2.59148,187.5,-102.9,-9.3,x,,,,,
201606,-7.019208,14.324327,-2.4493954,-3.384168,-6.9741297,-1.1280559,187.5,-110.100006,-10.5,x,,,,,
201627,-6.6363964,14.267505,-2.234064,-2.7286758,-10.510737,1.3719599,197.1,-105.3,-11.700001,x,,,,,
201647,-5.736789,13.547938,-1.2100432,-2.2103798,-13.948259,3.841488,192.3,-112.50001,-14.700001,x,,,,,
201667,-4.5339236,12.803848,-0.14654502,-2.012208,-15.144914,5.899428,187.5,-112.50001,-15.900001,x,,,,,
201687,-4.094289,10.770163,-0.52277696,-1.044214,-14.428446,6.82169,199.50002,-114.9,-17.7,x,,,,,
201707,-3.3783114,9.412976,-0.6639387,-0.259148,-15.449794,7.675354,187.5,-117.3,-17.7,x,,,,,
201728,-3.5410063,6.7883244,-1.0168431,1.1051899,-15.442172,7.461938,182.70001,-126.9,-20.1,x,,,,,
201751,-2.7209523,5.932382,-1.7926345,2.560992,-16.417788,9.573232,180.3,-129.3,-22.5,x,,,,,
201771,-1.9266185,7.38886,-2.1766422,3.12502,-17.728771,11.966539,180.3,-129.3,-23.7,x,,,,,
201793,-0.38998923,7.3416066,-1.9014965,3.2241058,-17.248585,8.971094,168.3,-134.1,-23.7,x,,,,,
201813,0.18961132,7.5228443,-1.2118376,2.644834,-15.777539,7.370474,165.90001,-138.90001,-26.1,x,,,,,
201833,-0.40374652,5.7038913,-1.8584303,1.242386,-11.372024,4.1921,165.90001,-143.70001,-27.300001,x,,,,,
201893,0.5024401,9.575671,-2.2364566,1.21952,-8.19365,3.6585598,149.1,-150.90001,-27.300001,x,,,,,
201988,-0.19918162,8.369815,-4.8431635,3.056422,-3.88722,1.051836,151.5,-148.5,-26.7,x,,,,,
202008,-0.014355431,8.327945,-4.597925,2.522882,-3.330814,0.07622,149.1,-141.3,-27.300001,x,,,,,
202048,0.2296869,7.98162,-4.6822634,1.707328,-1.310984,-0.548784,151.5,-148.5,-26.1,x,,,,,
202068,0.42946666,9.091175,-4.530335,1.455802,-1.3872039,0.26677,151.5,-148.5,-27.300001,x,,,,,
202088,0.4498035,8.445779,-4.4202766,1.158544,-0.23628199,-0.602138,149.1,-148.5,-26.7,,,,,,
202111,0.3020622,8.140128,-4.447193,1.928366,0.358234,-0.106708,149.1,-141.3,-26.1,,,,,,
202131,0.39776507,8.759804,-4.5793824,2.40093,0.53354,0.64787,146.70001,-143.70001,-24.900002,,,,,,
202152,0.36367092,9.220972,-4.6517577,2.454284,0.503052,0.69360197,149.1,-138.90001,-24.900002,,,,,,
202172,0.21234076,9.136634,-4.5662236,2.301844,0.213416,0.739334,141.90001,-138.90001,-24.300001,,,,,,
202194,0.1794429,9.35376,-4.2773204,2.080806,-0.28201398,0.777444,146.70001,-141.3,-23.7,,,,,,
202214,0.4438221,9.712048,-4.0105486,1.56251,0.045732,0.617382,144.3,-138.90001,-22.5,,,,,,
202237,0.10347874,9.41477,-4.0087543,0.510674,0.967994,-0.251526,149.1,-136.5,-21.900002,,,,,,
202257,-0.04426258,8.729299,-3.928603,0.137196,1.1051899,-0.45731997,141.90001,-141.3,-23.1,,,,,,
202277,-0.07716044,8.780141,-3.627737,-0.099086,1.166166,-0.16768399,149.1,-136.5,-22.5,,,,,,
202337,-0.23746276,8.169436,-3.4614534,-0.091464,1.71495,0.442076,151.5,-141.3,-21.900002,,,,,,
202357,-0.22011662,8.694606,-3.5625396,0.33536798,1.44818,0.7622,149.1,-146.1,-23.1,,,,,,
202377,-0.29548264,9.10254,-3.4608552,0.34298998,0.853664,0.518296,144.3,-134.1,-22.5,,,,,,
202397,-0.34153965,8.470901,-3.4142,-0.33536798,0.899396,0.03811,141.90001,-141.3,-21.300001,,,,,,
202417,-0.27394947,8.6114645,-3.5081086,-0.022866,0.49543,0.365856,144.3,-138.90001,-21.300001,,,,,,
202439,-0.19080761,8.937452,-3.6714015,0.11432999,-0.083841994,0.3811,144.3,-143.70001,-21.900002,,,,,,
202459,-0.22609805,9.214991,-3.8191428,0.289636,-0.64787,0.091464,139.5,-146.1,-21.900002,,,,,,
202481,-0.27335134,9.001453,-3.7437768,-0.106708,-1.242386,-0.259148,139.5,-141.3,-21.300001,,,,,,
202501,-0.16389118,9.100147,-3.6785793,-0.548784,-1.768304,-0.45731997,146.70001,-143.70001,-22.5,,,,,,
202521,0.0765623,8.711354,-3.5637357,-1.189032,-1.8978779,-0.731712,151.5,-143.70001,-21.900002,,,,,,
202541,0.13577846,8.412881,-3.7958152,-1.75306,-1.425314,-0.754578,149.1,-143.70001,-21.900002,,,,,,
202561,0.38759664,8.585146,-4.1654677,-1.6082419,-1.036592,-0.442076,146.70001,-143.70001,-23.1,,,,,,
202581,0.65317214,8.494826,-4.3700323,-2.149404,-0.320124,-0.70122397,144.3,-143.70001,-23.1,,,,,,
202603,0.7751933,7.8482337,-5.10515,-2.59148,1.440558,-1.173788,146.70001,-141.3,-23.1,x,,,,,
202623,0.89601815,7.537798,-6.0753384,-1.539644,2.393308,-1.059458,146.70001,-143.70001,-23.1,x,,,,,
202647,1.6102009,8.108426,-6.8014836,-0.3811,2.332332,-0.198172,149.1,-143.70001,-23.7,x,,,,,
202667,1.5091147,7.8368692,-7.1735287,-0.41921,3.071666,-0.899396,141.90001,-143.70001,-24.300001,x,,,,,
202688,1.3296719,8.1688385,-7.1717343,1.234764,2.62959,-2.2332458,146.70001,-143.70001,-24.300001,x,,,,,
202712,0.9935155,8.016312,-6.66092,1.554888,2.911604,-5.282046,156.3,-138.90001,-22.5,x,,,,,
202732,1.1005831,6.5628247,-5.6913304,1.3643379,3.376546,-7.073216,153.90001,-138.90001,-21.900002,x,,,,,
202752,1.1849213,7.4151783,-4.547083,0.045732,4.34454,-6.1052217,161.1,-129.3,-20.7,x,,,,,
202775,0.8553445,7.259661,-3.4943511,-2.492394,7.263766,-7.3171196,163.5,-129.3,-20.7,x,,,,,
202815,0.53234726,5.864194,-1.8309157,-5.6097918,12.15709,-9.138778,175.5,-122.100006,-18.300001,x,,,,,
202835,0.0891233,4.777368,-1.5485922,-6.905532,15.990955,-9.878112,180.3,-124.50001,-18.300001,x,,,,,
202855,-0.13577846,4.761218,-1.8345045,-6.6158957,18.010786,-9.618964,180.3,-119.700005,-20.1,x,,,,,
202877,-0.8696999,5.803781,-2.5917535,-5.0533857,21.03672,-8.795788,182.70001,-117.3,-18.300001,x,,,,,
202897,-2.0797431,7.920011,-2.761028,-4.146368,20.640375,-8.872007,187.5,-119.700005,-16.5,x,,,,,
202917,-2.0803413,9.666589,-2.1694646,-5.29729,18.704388,-9.245486,187.5,-114.9,-14.700001,x,,,,,
202937,-3.1695597,10.654122,-0.71418273,-5.274424,19.253172,-11.196718,192.3,-110.100006,-13.500001,x,,,,,
202959,-5.6410866,9.7916,-2.438629,-3.7119138,20.716595,-12.34764,192.3,-110.100006,-12.3,x,,,,,
202999,-6.6208444,13.51205,-1.7047075,-3.2317278,9.977198,-5.160094,201.90001,-95.700005,-11.1,x,,,,,
203022,-6.9522157,14.262121,-2.167072,-3.1783738,7.766818,-3.910086,204.3,-100.50001,-8.700001,x,,,,,
203042,-7.1980524,14.769944,-2.522967,-2.2027578,3.170752,-2.919226,206.70001,-98.100006,-8.700001,x,,,,,
203062,-7.527031,14.363806,-2.4493954,-1.310984,-1.722572,-1.935988,204.3,-95.700005,-9.3,x,,,,,
203084,-8.849525,12.818204,-2.426666,-0.19055,-5.541194,-0.87653,204.3,-90.9,-10.5,x,,,,,
203104,-9.164148,12.950394,-3.7132716,1.5244,-10.640312,3.102154,209.1,-100.50001,-11.1,x,,,,,
203126,-5.342613,13.104116,-1.2925869,-0.274392,-17.80499,8.11743,209.1,-98.100006,-12.900001,x,,,,,
203209,-2.970976,8.1796055,-1.8566358,0.67835796,-13.498562,9.397925,197.1,-124.50001,-22.5,x,,,,,
203242,-2.7215505,5.9814296,-2.5259578,1.775926,-13.048863,7.9345016,185.1,-122.100006,-20.7,x,,,,,
203262,-1.7675124,7.132855,-2.8860397,2.6905658,-13.7272215,8.986338,185.1,-134.1,-23.7,x,,,,,
203304,-0.9145606,6.8888125,-2.029499,1.234764,-10.1677475,5.0533857,170.70001,-134.1,-24.900002,x,,,,,
203324,-1.2818204,6.2386312,-2.3321595,0.67835796,-8.132674,3.8186219,170.70001,-136.5,-25.500002,x,,,,,
203344,-1.4331505,5.8211274,-3.2395422,1.173788,-6.349126,3.452766,168.3,-134.1,-26.1,x,,,,,
203366,-1.0916109,6.9875064,-3.4752107,2.51526,-7.4390717,4.596066,165.90001,-138.90001,-27.900002,x,,,,,
203387,-0.3134269,8.090482,-3.176139,2.2256238,-7.2409,4.275942,158.70001,-138.90001,-26.1,x,,,,,
203427,-0.010766573,6.7709785,-3.6319242,2.141782,-5.198204,1.920744,156.3,-141.3,-26.7,x,,,,,
203447,0.28710863,7.3027277,-3.9896135,3.2012398,-5.419242,2.7515419,161.1,-138.90001,-26.1,x,,,,,
203467,0.75605273,8.548659,-3.9292011,3.6890478,-4.9924097,2.881116,153.90001,-138.90001,-26.1,x,,,,,
203491,0.67291087,8.923097,-4.011745,3.155508,-4.0625257,1.463424,153.90001,-143.70001,-24.900002,x,,,,,
203512,0.5233751,8.243009,-4.0219135,2.40093,-3.018312,0.015244,153.90001,-148.5,-26.7,x,,,,,
203572,0.5867783,8.971546,-4.2563853,1.8369019,-1.02897,0.625004,149.1,-141.3,-24.300001,x,,,,,
203607,0.5359361,9.015809,-4.4567633,1.1051899,-0.20579399,-0.20579399,151.5,-148.5,-26.1,x,,,,,
203627,0.45757937,8.8166275,-4.2031507,1.478668,-0.106708,-0.28201398,151.5,-143.70001,-22.5,x,,,,,
203667,0.12022674,8.558827,-4.1397476,1.166166,1.1432999,-0.617382,153.90001,-141.3,-24.900002,,,,,,
203711,-0.21592961,9.158765,-4.141542,1.21952,1.006104,-0.297258,153.90001,-141.3,-22.5,,,,,,
203731,-0.2560052,8.861488,-3.9878192,0.41158798,1.036592,-0.40396598,149.1,-141.3,-22.5,,,,,,
203751,-0.15551718,8.936256,-3.9668841,0.129574,0.891774,-0.30488,153.90001,-141.3,-21.300001,,,,,,
203791,-0.10826388,8.615053,-3.786843,-0.34298998,0.320124,0.274392,153.90001,-143.70001,-21.900002,,,,,,
203811,-0.004187001,8.527126,-3.5972319,-0.221038,-0.03811,0.45731997,146.70001,-141.3,-21.300001,,,,,,
203831,0.15432088,8.877638,-3.409415,-0.053354,0.17530599,0.663114,146.70001,-141.3,-22.5,,,,,,
203851,0.08732887,9.438696,-3.3065343,-0.160062,0.548784,0.23628199,151.5,-146.1,-21.900002,,,,,,
203871,-0.2129389,8.811244,-3.4991364,-0.525918,1.242386,-0.67073596,149.1,-141.3,-21.300001,,,,,,
203911,-0.573021,8.732887,-3.4877717,0.091464,0.541162,0.0,151.5,-141.3,-22.5,,,,,,
203934,-0.44142953,8.7191305,-3.4608552,-0.106708,0.47256398,0.121952,156.3,-146.1,-22.5,,,,,,
203955,-0.29847333,8.7412615,-3.4716218,0.121952,0.41921,0.045732,153.90001,-141.3,-21.300001,,,,,,
203975,0.033496007,8.778346,-3.2873938,0.49543,0.442076,0.022866,153.90001,-138.90001,-20.7,,,,,,
203995,0.32538977,9.153382,-3.083427,0.144818,0.891774,0.160062,144.3,-138.90001,-20.7,,,,,,
204015,0.38400778,9.366321,-3.1827188,-1.272874,2.164648,-0.327746,149.1,-143.70001,-21.300001,,,,,,
204035,0.2045649,8.6652975,-3.8921163,-1.989342,3.2850819,-1.493912,153.90001,-141.3,-21.300001,,,,,,
204058,-0.39417621,7.7848306,-4.384986,-1.18141,2.6677,-1.8673899,149.1,-141.3,-21.300001,,,,,,
204078,-0.085534446,8.394339,-4.3784065,-0.731712,0.830798,-0.746956,153.90001,-136.5,-18.900002,,,,,,
204098,0.36367092,9.23473,-4.0482316,-1.158544,0.160062,-0.899396,153.90001,-136.5,-20.7,,,,,,
204159,0.9845433,8.326748,-4.65116,-2.454284,1.798792,-1.974098,151.5,-136.5,-22.5,x,,,,,
204205,1.4205896,7.382879,-6.4784865,-1.501534,5.9375377,-3.2622159,156.3,-136.5,-23.7,x,,,,,
204225,1.9780588,8.886012,-7.262054,-0.594516,8.856764,-2.583858,161.1,-134.1,-23.1,x,,,,,
204265,1.9110668,9.239514,-7.1884823,-0.55640596,10.434518,-4.794238,163.5,-129.3,-20.7,x,,,,,
204285,1.7675124,8.24241,-5.393455,-2.2332458,12.553433,-6.66925,165.90001,-131.70001,-18.900002,x,,,,,
204307,1.1406586,6.154293,-4.9460444,-3.955818,15.480282,-8.864386,163.5,-129.3,-17.1,x,,,,,
204327,1.0192356,5.0686636,-3.9866228,-3.8262439,16.265348,-9.611341,168.3,-124.50001,-16.5,x,,,,,
204390,-0.81766146,4.176832,-3.5116973,-3.4299,24.69528,-14.375092,189.90001,-112.50001,-14.1,x,,,,,
204410,-2.8148608,3.1306803,-3.3854892,-1.6158639,23.605333,-16.074799,189.90001,-110.100006,-9.900001,x,,,,,
204432,-4.1989636,2.9093673,-3.3196936,-0.541162,21.372087,-13.673867,194.70001,-93.3,-9.900001,x,,,,,
204452,-4.5925417,6.1297693,-3.017033,0.426832,17.865967,-8.57475,194.70001,-93.3,-5.1000004,x,,,,,
204472,-4.1074476,10.9837,-1.2590909,-2.2637339,16.173883,-7.614378,192.3,-93.3,-4.5,x,,,,,
204492,-6.2117147,10.166636,-1.8039992,-2.149404,19.047377,-12.019894,189.90001,-93.3,-3.3000002,x,,,,,
204515,-7.3344293,12.473075,-2.77,-2.012208,16.852242,-8.811031,197.1,-93.3,-1.5,x,,,,,
204535,-7.920609,14.764561,-3.1701577,-2.560992,13.361365,-7.5152917,192.3,-88.5,-0.3,x,,,,,
204555,-8.77715,12.546049,-2.7670095,-1.745438,7.339986,-6.74547,194.70001,-81.3,-2.1000001,x,,,,,
204575,-8.095865,15.484127,-2.5092099,-0.861286,3.39179,-2.652456,199.50002,-83.700005,0.3,x,,,,,
204595,-8.587539,15.435678,-3.535025,-0.327746,0.53354,-1.730194,192.3,-71.700005,0.3,x,,,,,
204615,-10.544662,13.961853,-5.654844,1.989342,-6.646384,1.02897,197.1,-78.9,-0.3,x,,,,,
204636,-10.154075,14.144287,-6.0520105,1.48629,-10.152504,2.881116,194.70001,-71.700005,0.3,x,,,,,
204657,-7.287774,13.095144,-4.2862926,-1.310984,-18.02603,7.522914,204.3,-83.700005,-4.5,x,,,,,
204678,-5.987411,11.401203,-4.170253,-2.560992,-18.544325,10.228724,201.90001,-90.9,-5.1000004,x,,,,,
204698,-5.438914,9.616344,-3.5164826,-3.16313,-20.274519,11.463488,204.3,-95.700005,-8.1,x,,,,,
204718,-4.777966,7.455254,-3.5996244,-2.47715,-21.158672,12.035138,197.1,-95.700005,-12.3,x,,,,,
204738,-3.3914707,6.9689636,-2.9602096,-1.173788,-23.643444,13.163194,201.90001,-105.3,-11.700001,x,,,,,
204761,-2.1598942,6.9480286,-2.3877866,-0.312502,-24.001677,13.917771,197.1,-112.50001,-16.5,x,,,,,
204781,-1.7561477,6.5843577,-2.0629952,0.396344,-23.47576,13.2317915,189.90001,-117.3,-17.1,x,,,,,
204801,-0.9348975,6.220089,-2.0737617,1.745438,-20.945255,12.416238,185.1,-126.9,-21.300001,x,,,,,
204864,0.027514577,7.5671067,-1.9822458,1.173788,-15.251621,8.140296,165.90001,-138.90001,-24.300001,x,,,,,
204885,0.34213778,7.149603,-2.1090522,1.821658,-12.469592,6.295772,165.90001,-143.70001,-25.500002,,,,,,
204905,0.77459514,7.660417,-1.79084,1.814036,-11.875075,6.234796,163.5,-136.5,-27.300001,,,,,,
204925,1.2435392,7.9212074,-1.2399504,0.541162,-6.654006,2.873494,156.3,-143.70001,-26.7,,,,,,
204945,0.49944937,6.623237,-1.9637034,0.47256398,-3.056422,0.20579399,156.3,-146.1,-27.300001,,,,,,
204965,-0.09749731,5.5567484,-2.753252,1.3948259,-1.8521459,-0.35061198,156.3,-138.90001,-27.900002,,,,,,
204985,-0.08852516,5.2618637,-3.5290434,2.675322,-1.455802,0.746956,158.70001,-146.1,-27.300001,,,,,,
205005,0.9701879,8.415274,-3.6175687,3.2012398,-2.454284,3.8186219,151.5,-143.70001,-26.7,,,,,,
205029,1.3099331,9.902257,-4.195375,2.080806,-0.72409,1.958854,144.3,-143.70001,-26.1,,,,,,
205049,0.4498035,7.9253945,-5.004662,1.669218,-0.007622,-0.792688,149.1,-146.1,-26.7,,,,,,
205090,0.58378756,8.805263,-5.13745,3.368924,-2.7515419,1.501534,149.1,-136.5,-26.7,,,,,,
205110,0.9019996,9.9507065,-4.987316,3.147886,-2.012208,1.02897,146.70001,-138.90001,-24.900002,,,,,,
205134,0.8858497,10.073326,-4.6206546,2.164648,-1.3719599,-0.891774,149.1,-138.90001,-23.7,,,,,,
205154,0.48928094,9.099549,-4.417884,1.3490939,-0.541162,-1.501534,149.1,-141.3,-24.900002,,,,,,
205176,0.35110992,8.883619,-4.253993,1.471046,-0.320124,-0.754578,146.70001,-146.1,-20.7,,,,,,
205196,0.21054633,9.00265,-4.192982,1.21952,0.060976,-0.091464,153.90001,-138.90001,-21.900002,,,,,,
205259,0.056225438,8.650344,-3.4357333,0.030488,0.221038,0.716468,151.5,-141.3,-21.900002,,,,,,
205289,-0.14415246,8.771169,-3.354984,-0.19055,0.861286,0.731712,146.70001,-143.70001,-24.900002,,,,,,
205330,-0.2865105,8.973939,-3.3687413,-0.20579399,0.503052,0.586894,149.1,-143.70001,-21.300001,,,,,,
205350,-0.13757288,8.627614,-3.271842,-0.35061198,0.3811,0.56402797,146.70001,-143.70001,-21.900002,,,,,,
205410,0.044860724,9.020595,-3.095988,-0.46494198,0.060976,0.548784,141.90001,-141.3,-23.7,,,,,,
205432,0.21772404,9.033155,-3.0894084,-0.503052,0.068598,0.289636,141.90001,-146.1,-23.1,,,,,,
205452,0.2548089,8.685634,-3.112736,-0.594516,0.198172,0.030488,141.90001,-143.70001,-23.7,,,,,,
205476,0.32359535,9.301722,-3.4040318,-0.777444,0.182928,0.091464,146.70001,-138.90001,-22.5,,,,,,
205496,0.6071151,9.522436,-3.5416045,-1.3948259,0.045732,-0.57164997,139.5,-148.5,-23.7,,,,,,
205516,0.640013,9.032557,-3.2335608,-1.783548,-0.099086,-1.189032,141.90001,-146.1,-21.900002,,,,,,
205536,0.57122654,8.522341,-3.1677651,-2.423796,0.23628199,-1.234764,151.5,-146.1,-24.900002,,,,,,
205556,0.66214424,8.409292,-3.3292637,-2.309466,0.442076,-1.097568,149.1,-143.70001,-23.1,,,,,,
205576,0.81048375,8.743654,-3.4919586,-2.027452,0.60976,-1.166166,146.70001,-146.1,-23.1,,,,,,
205596,0.80749303,8.44219,-4.214515,-2.179892,1.3643379,-1.585376,146.70001,-148.5,-24.900002,,,,,,
205616,0.72315484,7.9008703,-4.639197,-1.692084,1.417692,-1.699706,146.70001,-141.3,-24.300001,x,,,,,
205640,1.1155367,8.236428,-4.87008,-1.516778,1.8445239,-1.6311079,153.90001,-146.1,-24.300001,x,,,,,
205660,1.3380458,8.804665,-5.4700174,-1.250008,3.338436,-2.17227,144.3,-143.70001,-24.900002,x,,,,,
205683,1.9092723,9.13783,-5.966476,-1.1204339,4.809482,-3.102154,158.70001,-138.90001,-24.300001,x,,,,,
205703,1.5826863,7.943937,-5.4317365,-1.272874,5.5945477,-4.0472817,161.1,-143.70001,-23.7,x,,,,,
205723,1.422384,7.476787,-4.8042846,-0.93750596,6.547298,-4.222588,153.90001,-136.5,-23.7,x,,,,,
205743,1.31412,7.3063164,-4.1361585,-0.56402797,7.942124,-4.855214,163.5,-136.5,-24.900002,x,,,,,
205763,1.1263032,7.0305724,-3.342423,-0.777444,9.786648,-5.701256,161.1,-138.90001,-23.7,x,,,,,
205783,0.7219586,6.922907,-3.2784216,-1.189032,12.507702,-6.730226,163.5,-126.9,-20.1,x,,,,,
205807,0.049047723,6.199154,-3.033781,-0.72409,13.887283,-8.399444,170.70001,-131.70001,-22.5,x,,,,,
205827,-0.53892684,5.497532,-2.6796806,-0.41158798,15.221133,-9.725672,177.90001,-124.50001,-17.7,x,,,,,
205850,-2.175446,5.393455,-2.8920212,-0.03811,15.8308935,-10.74702,182.70001,-119.700005,-15.900001,x,,,,,
205870,-1.1867156,6.1483116,-1.8943188,-1.3567159,14.2226515,-9.436036,182.70001,-119.700005,-14.1,x,,,,,
205892,-1.9762644,5.8300996,-1.7591385,-1.94361,16.288214,-9.382682,187.5,-117.3,-14.1,x,,,,,
205956,-1.8111769,9.37948,-1.6520709,-4.76375,18.117493,-8.300358,189.90001,-107.700005,-11.1,x,,,,,
205996,-5.133263,12.226641,-2.6754935,-3.170752,15.838515,-9.047314,199.50002,-100.50001,-7.5000005,x,,,,,
206016,-7.8787394,13.958264,-4.0087543,-1.493912,13.849174,-7.568646,192.3,-98.100006,-8.1,x,,,,,
206037,-7.610173,16.465082,-4.5877566,-2.484772,6.8826656,-5.228692,194.70001,-95.700005,-5.7000003,x,,,,,
206077,-9.890294,14.100024,-4.20973,0.015244,-2.47715,-4.199722,199.50002,-93.3,-7.5000005,x,,,,,
206124,-6.9683657,13.268605,-1.7633255,-0.34298998,-12.340017,2.7744079,211.50002,-90.9,-8.700001,x,,,,,
206144,-6.4814773,11.169124,-1.7310258,-0.083841994,-13.856795,4.8857017,213.90001,-88.5,-11.700001,x,,,,,
206184,-4.7755733,8.009732,-1.1574067,0.67073596,-14.878143,7.3933396,206.70001,-98.100006,-13.500001,x,,,,,
206204,-4.308424,6.6716866,-1.8949169,2.035074,-14.885766,8.582372,209.1,-107.700005,-16.5,x,,,,,
206224,-3.5846708,5.86539,-1.9260204,3.2622159,-16.112907,9.6418295,206.70001,-112.50001,-18.300001,x,,,,,
206244,-2.9566207,6.232052,-2.3166077,4.123502,-15.89187,10.609824,204.3,-117.3,-17.7,x,,,,,
206267,-2.129389,6.5795727,-2.5289485,3.902464,-17.03517,11.029034,199.50002,-119.700005,-18.900002,x,,,,,
206287,-1.2459319,7.661015,-1.5695271,3.2545938,-16.951328,10.243968,197.1,-117.3,-21.900002,x,,,,,
206307,-1.7609329,5.8085666,-2.18382,1.996964,-12.035138,6.006136,189.90001,-126.9,-21.900002,x,,,,,
206369,-0.5233751,7.705278,-3.1432414,2.454284,-10.152504,6.905532,175.5,-136.5,-24.300001,x,,,,,
206390,-0.89900887,7.2393246,-3.4046297,2.17227,-9.1768875,5.358266,170.70001,-134.1,-23.7,x,,,,,
206410,-0.3911855,7.493535,-3.7742822,2.8048959,-9.10829,5.167716,165.90001,-136.5,-24.300001,x,,,,,
206430,0.49526238,8.335122,-3.3077307,2.964958,-9.253108,4.80186,165.90001,-134.1,-25.500002,x,,,,,
206450,0.8212503,8.320766,-3.1904945,2.621968,-7.477182,3.597584,168.3,-136.5,-24.900002,x,,,,,
206470,0.46595338,7.869767,-3.1145306,2.355198,-6.150954,2.7362978,168.3,-136.5,-25.500002,x,,,,,
206490,0.44621465,7.856608,-3.2329628,2.2789779,-4.778994,2.484772,158.70001,-141.3,-27.900002,x,,,,,
206510,0.40853164,8.5468645,-3.6965237,2.301844,-3.7271578,2.522882,153.90001,-146.1,-24.900002,x,,,,,
206530,0.29309005,8.1796055,-4.002175,1.6082419,-2.576236,1.6082419,158.70001,-143.70001,-24.900002,x,,,,,
206550,0.10946016,8.206522,-4.640991,1.455802,-1.8369019,1.71495,158.70001,-136.5,-24.900002,x,,,,,
206614,0.43664438,9.212,-5.4508767,0.365856,-0.198172,1.775926,151.5,-141.3,-22.5,x,,,,,
206634,0.803306,9.755114,-5.1446276,0.602138,0.49543,1.570132,153.90001,-138.90001,-26.1,x,,,,,
206654,0.28770676,9.031361,-4.8335934,0.015244,1.8292799,0.746956,153.90001,-146.1,-24.900002,x,,,,,
206674,0.15372275,9.622924,-4.400538,0.434454,1.669218,0.94512796,146.70001,-136.5,-22.5,,,,,,
206697,-0.19738717,9.336413,-4.065578,0.129574,2.01983,-0.617382,146.70001,-146.1,-23.1,,,,,,
206717,-0.18901318,8.733485,-3.6367092,0.373478,1.33385,-1.250008,146.70001,-148.5,-23.7,,,,,,
206737,-0.16448931,8.412283,-3.514688,0.41921,1.6158639,-1.059458,144.3,-148.5,-24.300001,,,,,,
206757,-0.035290435,8.497817,-3.6115873,0.34298998,1.5929979,-0.15244,149.1,-141.3,-23.7,,,,,,
206777,0.14953575,8.769972,-3.4351351,0.144818,1.5929979,0.487808,151.5,-141.3,-22.5,,,,,,
206797,0.2536126,9.240711,-3.447098,-0.45731997,1.8673899,0.92226195,149.1,-143.70001,-22.5,,,,,,
206817,0.30565107,9.116297,-3.4040318,-0.87653,1.928366,0.617382,146.70001,-138.90001,-23.1,,,,,,
206837,0.2536126,8.698195,-3.4070225,-1.166166,1.783548,0.45731997,141.90001,-141.3,-23.1,,,,,,
206857,0.10347874,8.259158,-3.3872836,-0.868908,1.1356779,0.625004,139.5,-143.70001,-23.7,,,,,,
206877,0.32180092,8.756215,-3.2299721,-0.213416,0.297258,1.150922,141.90001,-148.5,-21.900002,,,,,,
206897,0.47073853,8.980518,-2.9003952,-0.182928,-0.182928,0.94512796,139.5,-148.5,-23.7,,,,,,
206917,0.44860724,8.854909,-2.8842454,-0.40396598,0.03811,0.373478,141.90001,-150.90001,-21.900002,,,,,,
206980,-0.03469229,8.926685,-3.343619,0.45731997,-0.045732,0.548784,139.5,-148.5,-23.1,,,,,,
207025,-0.12501188,9.229346,-3.3531895,-0.182928,-0.16768399,0.93750596,137.1,-143.70001,-22.5,,,,,,
207047,-0.067590155,8.911732,-3.359171,-0.426832,-0.11432999,0.739334,137.1,-146.1,-22.5,,,,,,
207089,0.08792701,8.652138,-3.6139798,-0.617382,-0.274392,0.80793196,132.3,-148.5,-25.500002,,,,,,
207109,0.21652776,8.439199,-3.5463896,-0.388722,-0.716468,0.884152,139.5,-143.70001,-23.7,,,,,,
207130,0.52457136,8.799879,-3.4883697,-0.327746,-0.80030996,0.998482,132.3,-148.5,-23.1,,,,,,
207152,0.6304427,8.906947,-3.6068022,-0.68597996,-0.47256398,0.388722,132.3,-150.90001,-24.300001,x,,,,,
207214,1.2489225,8.369815,-4.4585576,-1.821658,1.1128119,-2.042696,139.5,-150.90001,-23.1,x,,,,,
207256,1.422384,7.6293135,-6.9384584,0.137196,4.184478,-0.907018,137.1,-146.1,-23.1,x,,,,,
207327,2.2209048,7.7890177,-5.1446276,-0.487808,4.4207597,-3.6814258,139.5,-143.70001,-23.7,x,,,,,
207347,1.987629,7.2429132,-4.1146255,-1.5244,6.455834,-4.657042,144.3,-141.3,-23.7,x,,,,,
207387,1.8829541,6.45157,-2.388983,-2.7820299,10.754642,-6.28815,149.1,-143.70001,-21.900002,x,,,,,
207407,1.4971519,5.7290134,-1.9200389,-3.2012398,14.100699,-8.04121,153.90001,-136.5,-21.300001,x,,,,,
207427,0.95284176,5.0196157,-1.7788771,-2.8048959,15.686075,-9.039692,151.5,-138.90001,-20.1,x,,,,,
207449,0.68427557,5.774472,-1.3242885,-2.2408679,17.22572,-9.41317,163.5,-134.1,-18.900002,x,,,,,
207470,1.31412,6.5036087,-1.4343468,-1.806414,19.542807,-11.433,168.3,-126.9,-17.7,x,,,,,
207490,0.83321315,6.880439,-1.0718722,-1.814036,21.997091,-12.15709,175.5,-126.9,-17.1,x,,,,,
207510,-1.0138524,6.5466747,-2.9081712,-0.87653,25.061136,-13.521428,173.1,-117.3,-14.1,x,,,,,
207574,-5.159581,12.236211,-5.200255,0.221038,19.725735,-12.012272,185.1,-107.700005,-5.7000003,x,,,,,
207594,-6.4282427,10.388547,-4.6828613,0.46494198,14.474177,-12.04276,185.1,-95.700005,-4.5,x,,,,,
207614,-7.4737964,12.7577915,-5.023205,0.785066,11.859832,-7.759196,185.1,-93.3,-3.9,x,,,,,
207634,-7.730998,14.804039,-5.8187346,-0.297258,7.85066,-5.79272,185.1,-86.100006,-1.5,x,,,,,
207657,-8.282486,14.451134,-5.777463,0.091464,2.637212,-5.556438,192.3,-93.3,-2.7,x,,,,,
207677,-9.152783,13.329018,-5.9216156,0.373478,-1.958854,-3.6661818,194.70001,-86.100006,-0.3,x,,,,,
207697,-8.170633,13.708838,-5.159581,-0.449698,-6.9893737,-0.160062,197.1,-83.700005,-0.3,x,,,,,
207721,-7.2476983,12.859476,-3.6217556,-2.118916,-10.038174,3.35368,199.50002,-90.9,-4.5,x,,,,,
207741,-6.2894735,12.175798,-3.4165926,-2.919226,-11.593061,5.4878397,206.70001,-90.9,-6.9,x,,,,,
207761,-6.007748,10.003942,-2.6874564,-3.064044,-13.925394,5.846074,199.50002,-98.100006,-5.7000003,x,,,,,
207781,-4.5285406,9.0217905,-2.229877,-2.385686,-16.265348,7.286632,201.90001,-98.100006,-9.900001,x,,,,,
207801,-3.6821682,7.631108,-1.4875816,-0.67073596,-18.201336,7.3476076,201.90001,-100.50001,-12.3,x,,,,,
207821,-3.2730384,5.2319565,-1.3518031,1.745438,-19.306526,7.629622,199.50002,-100.50001,-14.1,x,,,,,
207842,-2.16767,4.7959104,-1.225595,3.7042918,-20.327873,11.54733,197.1,-112.50001,-15.3,x,,,,,
207862,-1.9559275,6.385176,-1.3607752,3.92533,-18.94067,13.955882,197.1,-110.100006,-15.900001,x,,,,,
207882,-1.5587605,6.203939,-2.5791924,4.161612,-16.852242,12.713495,187.5,-122.100006,-18.300001,x,,,,,
207902,-0.9049903,6.6962104,-2.6096978,5.14485,-17.462002,13.254658,177.90001,-131.70001,-19.5,x,,,,,
207922,-0.2990715,7.6155562,-2.5163875,3.54423,-15.907114,12.484836,175.5,-124.50001,-20.1,x,,,,,
208002,0.71418273,7.6693892,-3.3890781,1.18141,-9.664696,6.128088,151.5,-146.1,-20.7,x,,,,,
208048,1.0120579,7.0598817,-4.5076056,1.6006199,-4.4055157,4.710396,149.1,-146.1,-23.7,x,,,,,
208068,1.3087368,8.777748,-5.392857,2.637212,-3.7119138,5.045764,141.90001,-141.3,-22.5,x,,,,,
208108,1.2142302,8.707766,-5.0567007,1.554888,-2.7972739,2.13416,144.3,-141.3,-24.300001,x,,,,,
208128,1.0150486,8.353664,-4.7133665,0.81555396,-2.01983,1.013726,137.1,-146.1,-23.1,x,,,,,
208151,0.94805664,7.5234423,-4.655347,0.20579399,-1.1432999,0.442076,139.5,-148.5,-24.900002,x,,,,,
208171,1.1155367,7.404412,-4.430445,0.602138,-0.731712,0.853664,139.5,-148.5,-21.900002,x,,,,,
208233,1.0874239,8.694606,-4.3455086,0.94512796,1.4024479,0.23628199,129.90001,-148.5,-21.900002,,,,,,
208255,0.72853816,8.872853,-4.652356,0.91463995,1.8826339,-0.129574,139.5,-150.90001,-21.900002,,,,,,
208275,0.40135393,8.508584,-4.7546387,1.059458,1.425314,-0.518296,132.3,-143.70001,-21.300001,,,,,,
208295,0.48329952,8.463723,-4.489661,1.18141,0.83842,-0.099086,137.1,-146.1,-20.7,,,,,,
208355,0.2966789,8.492434,-4.1092424,-0.80793196,1.29574,-1.036592,134.70001,-141.3,-21.300001,,,,,,
208375,0.32897863,8.557034,-4.0231094,-0.792688,1.204276,-0.785066,137.1,-143.70001,-21.300001,,,,,,
208395,0.27454764,8.573781,-3.924416,-0.754578,1.021348,-0.617382,134.70001,-136.5,-19.5,,,,,,
208415,0.53832865,8.673073,-3.7425807,-0.487808,0.68597996,-0.289636,134.70001,-138.90001,-21.300001,,,,,,
208435,0.7333233,8.974537,-3.401041,-0.480186,0.358234,-0.297258,137.1,-146.1,-20.7,,,,,,
208479,1.041965,8.790309,-3.4524813,-1.059458,0.57164997,-0.731712,137.1,-148.5,-20.7,,,,,,
208519,1.1909027,8.640175,-3.4494905,-1.1432999,0.20579399,-0.259148,134.70001,-146.1,-20.1,,,,,,
208541,1.238754,9.049903,-3.5445952,-0.960372,0.053354,-0.015244,141.90001,-143.70001,-20.7,,,,,,
208561,1.3159145,9.201233,-3.5715117,-0.891774,-0.091464,-0.007622,137.1,-141.3,-20.7,,,,,,
208581,1.1316864,9.045716,-3.6719997,-0.891774,-0.243904,0.03811,141.90001,-148.5,-20.7,,,,,,
208601,1.0072727,9.158167,-3.593643,-0.3811,-0.602138,0.586894,134.70001,-146.1,-21.900002,,,,,,
208621,0.8649147,9.766479,-3.259879,-0.144818,-1.1204339,0.754578,139.5,-143.70001,-21.900002,,,,,,
208682,-0.52935654,8.996669,-3.564932,-0.70122397,0.28201398,-1.082324,141.90001,-146.1,-21.300001,,,,,,
208707,-0.8134744,8.31658,-3.4644442,0.289636,-0.160062,0.030488,137.1,-148.5,-21.300001,,,,,,
208728,-0.8517556,8.12338,-3.0427532,0.19055,-0.49543,0.15244,132.3,-146.1,-21.900002,,,,,,
208768,-1.0114597,7.8177285,-3.4614534,0.106708,0.846042,0.548784,134.70001,-136.5,-20.7,,,,,,
208789,-1.0904146,8.343496,-3.8006005,0.053354,0.69360197,0.0,132.3,-143.70001,-23.7,,,,,,
208809,-1.0658908,8.131754,-4.0643816,0.160062,0.17530599,-1.021348,141.90001,-150.90001,-21.300001,,,,,,
208829,-1.2698575,7.943937,-3.8735738,0.213416,-0.602138,-0.998482,134.70001,-138.90001,-20.1,,,,,,
208851,-1.4875816,8.164053,-3.5667264,-0.83842,-0.541162,-0.602138,137.1,-148.5,-20.1,,,,,,
208871,-1.2046599,8.381179,-2.9847333,-2.103672,-0.068598,-0.586894,139.5,-143.70001,-23.7,,,,,,
208894,-0.44442022,9.722216,-3.2317665,-2.187514,0.975616,-0.3811,139.5,-148.5,-21.300001,,,,,,
208914,-0.32479164,9.635485,-3.4004428,-2.118916,1.25763,-1.097568,134.70001,-141.3,-20.7,,,,,,
208934,-0.26138848,9.164148,-3.383695,-1.56251,0.87653,-1.074702,141.90001,-150.90001,-22.5,,,,,,
208974,1.2626798,9.951902,-2.8357959,-1.013726,0.861286,-0.083841994,139.5,-141.3,-23.1,,,,,,
209031,1.2184173,7.958292,-5.145226,0.327746,1.25763,-1.539644,141.90001,-141.3,-21.900002,x,,,,,
209091,1.1699677,7.608977,-5.961691,-1.18141,3.079288,-2.035074,146.70001,-146.1,-23.1,x,,,,,
209185,1.1897063,7.5706954,-6.008346,0.144818,6.0137577,-4.176856,153.90001,-138.90001,-21.300001,x,,,,,
209205,1.1514252,7.731596,-5.1518054,0.17530599,7.149436,-5.0381417,156.3,-136.5,-23.1,x,,,,,
209248,0.21652776,6.2440143,-3.2084389,-0.099086,10.2897,-9.237864,158.70001,-131.70001,-20.1,x,,,,,
209290,-0.9857396,4.5829716,-2.1228094,-0.30488,14.17692,-12.103736,173.1,-119.700005,-15.900001,x,,,,,
209310,-0.33137122,5.228368,-1.2279875,-0.07622,14.885766,-10.800374,177.90001,-119.700005,-14.700001,x,,,,,
209334,-0.5096178,6.857111,-0.38998923,-3.978684,20.533667,-10.686044,187.5,-114.9,-12.3,x,,,,,
209354,-1.7393998,7.608977,-1.8482618,-4.984788,22.705938,-11.082388,185.1,-112.50001,-10.5,x,,,,,
209374,-3.7677026,8.74485,-1.2267913,-4.38265,22.29435,-11.1586075,189.90001,-105.3,-10.5,x,,,,,
209394,-5.505906,9.657617,-2.856731,-3.490876,22.721182,-11.654037,187.5,-100.50001,-8.700001,x,,,,,
209414,-6.141732,10.642757,-3.4315462,-1.6006199,17.80499,-9.916222,192.3,-98.100006,-6.9,x,,,,,
209435,-6.1441245,12.199724,-3.0260053,-0.68597996,13.048863,-7.370474,185.1,-95.700005,-5.7000003,x,,,,,
209455,-7.430132,13.614332,-3.635513,-0.67073596,10.51836,-5.975648,194.70001,-90.9,-5.1000004,x,,,,,
209475,-7.5581346,14.223242,-4.3431163,-0.830798,5.4878397,-4.847592,189.90001,-95.700005,-3.9,x,,,,,
209539,-8.403909,13.092154,-4.255189,-2.149404,-8.856764,1.3567159,192.3,-95.700005,-5.7000003,x,,,,,
209559,-6.727314,13.016788,-2.9350874,-3.041178,-13.856795,4.275942,199.50002,-98.100006,-5.7000003,x,,,,,
209581,-5.3306503,10.935249,-1.8213453,-3.84911,-15.480282,7.865904,199.50002,-100.50001,-10.5,x,,,,,
209601,-5.7619114,9.039137,-1.9601145,-3.6738038,-16.707424,9.169266,197.1,-105.3,-12.900001,x,,,,,
209621,-4.0135393,8.964369,-2.1700628,-2.7362978,-19.756224,11.951296,192.3,-112.50001,-15.900001,x,,,,,
209641,-2.8728807,8.369217,-1.0072727,-2.187514,-21.516905,12.263798,187.5,-119.700005,-17.7,x,,,,,
209661,-1.7286332,7.1029477,-1.1065645,-1.211898,-20.487936,11.821722,182.70001,-124.50001,-21.300001,x,,,,,
209681,-0.815867,7.2901664,-1.0228245,-0.160062,-20.08397,11.905563,180.3,-126.9,-21.900002,x,,,,,
209701,-0.45997193,7.705876,-1.2489225,0.23628199,-18.346153,10.510737,173.1,-126.9,-21.900002,x,,,,,
209722,-0.19858347,7.7250166,-1.4110193,0.56402797,-16.608337,8.628104,175.5,-134.1,-26.7,x,,,,,
209742,0.26677176,8.348282,-1.7208574,0.72409,-14.641862,7.477182,163.5,-136.5,-28.500002,x,,,,,
209783,0.48389766,7.8883095,-1.5557699,-0.602138,-10.739398,5.160094,156.3,-141.3,-29.7,x,,,,,
209866,0.3953725,6.8044744,-3.0230145,0.358234,-2.93447,2.2789779,149.1,-148.5,-30.900002,x,,,,,
209911,1.2961758,8.495424,-3.3621616,3.109776,-1.059458,0.868908,134.70001,-146.1,-30.300001,x,,,,,
209932,0.93729,7.814738,-4.0954847,3.437522,0.221038,-0.3811,134.70001,-158.1,-29.7,x,,,,,
209972,1.0910128,8.886012,-4.5010257,4.15399,0.15244,0.640248,137.1,-153.3,-29.1,,,,,,
209994,1.0957979,9.072633,-4.8515377,3.597584,0.442076,0.548784,141.90001,-150.90001,-27.300001,,,,,,
210015,0.9941136,8.657521,-4.643982,2.637212,-0.182928,0.22865999,137.1,-148.5,-28.500002,,,,,,
210035,1.2644743,9.113904,-4.4866705,1.98172,-0.365856,0.60976,134.70001,-150.90001,-26.7,,,,,,
210055,1.2375578,8.933864,-4.496839,1.166166,-0.083841994,-0.03811,137.1,-146.1,-27.300001,,,,,,
210075,1.2614836,8.6551285,-4.296461,1.1128119,-0.327746,0.030488,134.70001,-150.90001,-25.500002,,,,,,
210095,1.3392421,8.821412,-3.8616111,1.272874,-0.373478,0.358234,134.70001,-150.90001,-27.300001,,,,,,
210118,1.2052581,9.078614,-3.3053381,0.785066,0.40396598,0.068598,129.90001,-148.5,-26.1,,,,,,
210138,1.0132542,9.080408,-3.1073527,0.518296,0.998482,-0.56402797,137.1,-148.5,-26.7,,,,,,
210160,0.9091773,8.77715,-2.9338913,0.41158798,1.3948259,-1.1432999,139.5,-146.1,-24.300001,,,,,,
210180,1.037778,9.069044,-2.769402,0.49543,1.516778,-1.158544,137.1,-153.3,-24.300001,,,,,,
210240,0.78895056,8.22626,-3.166569,0.297258,1.75306,-1.18141,141.90001,-148.5,-23.1,,,,,,
210325,0.849363,9.937548,-3.5840726,-0.099086,0.67835796,-0.56402797,144.3,-143.70001,-22.5,,,,,,
210345,0.63283527,9.703075,-3.7216456,-0.655492,0.68597996,-0.80793196,139.5,-148.5,-24.300001,,,,,,
210388,0.56883395,10.185179,-3.2395422,0.11432999,1.18141,0.708846,132.3,-143.70001,-24.300001,,,,,,
210408,0.14953575,11.094356,-3.5565581,0.716468,1.265252,0.785066,134.70001,-148.5,-21.900002,,,,,,
210432,-0.7339214,9.146204,-3.13726,0.49543,0.70122397,-0.846042,134.70001,-143.70001,-23.7,,,,,,
210452,-1.2710538,8.183792,-3.1193156,0.55640596,0.274392,-0.19055,132.3,-148.5,-22.5,,,,,,
210474,-1.4110193,8.525929,-3.204252,0.510674,-0.28201398,0.56402797,137.1,-146.1,-21.900002,,,,,,
210494,-1.347018,8.430227,-3.0768476,0.11432999,-0.92226195,0.731712,134.70001,-141.3,-22.5,,,,,,
210514,-1.1669769,8.251981,-2.735906,-0.518296,-1.288118,0.503052,134.70001,-138.90001,-23.1,,,,,,
210534,-1.0443577,7.8362713,-2.7472706,-0.830798,-0.739334,0.327746,129.90001,-146.1,-22.5,,,,,,
210554,-0.9893285,8.100052,-2.8423755,-0.503052,-0.442076,0.510674,132.3,-148.5,-23.1,,,,,,
210576,-1.1717621,7.8972816,-2.8393848,-0.373478,-0.541162,-0.030488,134.70001,-143.70001,-23.1,,,,,,
210639,-1.5246664,7.948124,-3.4267612,0.083841994,-0.17530599,-0.259148,134.70001,-148.5,-23.7,,,,,,
210687,0.067590155,9.865172,-2.648577,1.189032,-1.4024479,0.33536798,134.70001,-141.3,-21.900002,,,,,,
210707,0.26617363,9.885509,-3.054118,0.11432999,0.213416,-0.67073596,134.70001,-141.3,-21.900002,,,,,,
210751,0.539525,9.609765,-3.4417148,0.022866,0.289636,-0.388722,137.1,-143.70001,-22.5,,,,,,
210771,0.85833514,9.759899,-3.350797,-0.129574,0.640248,-0.640248,137.1,-146.1,-22.5,,,,,,
210791,1.0521334,9.972837,-3.7132716,-0.625004,1.417692,-0.99086,139.5,-138.90001,-21.300001,,,,,,
210811,0.96420646,9.512268,-3.908266,-0.93750596,1.684462,-1.310984,134.70001,-143.70001,-23.1,,,,,,
210831,0.95284176,9.609765,-3.8293114,-0.67835796,1.1128119,-0.525918,137.1,-141.3,-21.900002,,,,,,
210854,0.92054206,9.635485,-3.4692292,-1.158544,0.94512796,-0.602138,139.5,-143.70001,-22.5,,,,,,
210874,0.66513497,9.631896,-3.5709136,-0.594516,0.365856,-0.663114,141.90001,-146.1,-22.5,,,,,,
210898,0.43903694,9.192261,-3.481192,-0.30488,-0.640248,-0.72409,139.5,-146.1,-23.1,,,,,,
210918,0.04187001,8.263944,-3.2497108,-0.11432999,-1.6234859,-0.503052,134.70001,-150.90001,-23.1,,,,,,
210938,-0.15551718,7.493535,-3.0858195,0.03811,-2.103672,0.23628199,141.90001,-148.5,-23.1,,,,,,
210961,0.1824336,8.027677,-3.1875038,-0.182928,-2.187514,1.455802,144.3,-146.1,-24.300001,,,,,,
210981,0.698631,8.09407,-3.4159944,-0.46494198,-1.966476,1.783548,137.1,-146.1,-23.7,,,,,,
211001,1.6813799,9.459631,-3.7886376,-0.15244,-1.8369019,2.301844,137.1,-143.70001,-23.1,x,,,,,
211021,1.4534874,8.598904,-3.5577543,-1.288118,-1.3872039,0.45731997,137.1,-146.1,-23.1,x,,,,,
211041,1.66523,7.8889074,-3.7665062,-2.51526,-0.45731997,-0.746956,134.70001,-146.1,-24.900002,x,,,,,
211064,0.79373574,7.629912,-5.4245586,-1.570132,2.118916,-1.303362,137.1,-143.70001,-24.300001,x,,,,,
211084,0.1268063,7.7471476,-6.6962104,-0.030488,2.393308,-1.798792,139.5,-146.1,-24.900002,x,,,,,
211104,0.69264954,9.08938,-7.5246387,1.211898,1.234764,-1.5929979,146.70001,-138.90001,-23.7,x,,,,,
211126,0.9313086,10.073326,-7.2560725,1.3567159,0.92988396,-2.408552,144.3,-143.70001,-22.5,x,,,,,
211146,1.0880221,9.776647,-6.885224,0.93750596,2.378064,-3.567096,139.5,-146.1,-22.5,x,,,,,
211167,0.76741743,8.606679,-5.8516326,-0.15244,3.978684,-4.0625257,146.70001,-143.70001,-24.900002,x,,,,,
211187,0.5359361,7.385271,-4.811462,-0.746956,5.975648,-4.108258,149.1,-141.3,-21.900002,x,,,,,
211207,0.31163248,6.178219,-4.009352,-0.81555396,8.429932,-5.076252,149.1,-141.3,-21.900002,x,,,,,
211227,-0.006579573,5.711667,-2.9297042,-0.67835796,9.314084,-5.434486,156.3,-134.1,-21.300001,x,,,,,
211249,0.1794429,5.5071025,-1.4654503,-2.050318,10.053418,-6.9436417,151.5,-131.70001,-19.5,x,,,,,
211269,1.1298921,5.3109117,-0.5736191,-2.560992,12.904046,-8.856764,158.70001,-134.1,-18.900002,x,,,,,
211289,2.1180243,4.2282724,0.19439647,-2.873494,15.975712,-10.388785,163.5,-131.70001,-18.300001,x,,,,,
211310,1.0718722,4.635608,-0.28710863,-3.041178,20.167812,-7.5762677,168.3,-122.100006,-17.7,x,,,,,
211330,0.2171259,10.012315,-2.137763,-3.330814,22.683071,-4.054904,170.70001,-126.9,-17.7,x,,,,,
211350,-1.2572966,9.804161,-1.2273893,-2.2408679,19.672382,-9.984819,170.70001,-126.9,-12.900001,x,,,,,
211370,-4.530933,7.83029,-1.9858347,1.1356779,20.099213,-10.960436,173.1,-119.700005,-11.700001,x,,,,,
211390,-5.7840424,14.308776,-3.5774932,-0.35061198,14.55802,-6.608274,175.5,-119.700005,-9.900001,x,,,,,
211410,-6.0095425,13.501882,-3.1569986,-0.663114,7.5457797,-6.4786997,177.90001,-110.100006,-11.1,x,,,,,
211473,-5.906662,15.353732,-2.6455863,0.16768399,-5.213448,-0.60976,177.90001,-112.50001,-9.900001,x,,,,,
211526,-5.9006805,12.769754,-2.8962083,-0.81555396,-12.439104,4.390272,187.5,-107.700005,-13.500001,x,,,,,
211546,-4.6212525,11.9909725,-2.0312936,-1.67684,-15.045828,6.875044,192.3,-110.100006,-14.1,x,,,,,
211589,-2.7759814,8.594118,-2.5522761,-1.18141,-14.664727,7.3780956,182.70001,-124.50001,-17.7,x,,,,,
211641,-1.0599093,7.262054,-2.0893135,0.64787,-15.190645,7.5000477,175.5,-129.3,-21.900002,x,,,,,
211661,-0.6591536,7.840458,-1.7986159,0.083841994,-13.323256,6.0747337,168.3,-134.1,-24.300001,x,,,,,
211701,-0.8852516,6.229659,-2.2932801,0.708846,-9.7028055,3.6890478,165.90001,-134.1,-25.500002,x,,,,,
211721,-0.27454764,7.973844,-2.6366143,0.388722,-8.262248,4.618932,165.90001,-138.90001,-24.900002,x,,,,,
211761,-0.14235802,6.1560874,-3.3478062,0.47256398,-4.413138,2.195136,161.1,-143.70001,-26.1,x,,,,,
211784,0.3869985,6.710566,-3.5822783,1.8292799,-3.7576458,2.964958,156.3,-138.90001,-26.7,x,,,,,
211866,0.89841074,9.27301,-4.129579,1.996964,-2.149404,2.065562,156.3,-143.70001,-26.7,x,,,,,
211886,0.32658607,8.801076,-4.4166875,1.303362,-1.6539739,0.053354,146.70001,-143.70001,-25.500002,x,,,,,
211907,0.41989636,8.943434,-4.3903694,1.8978779,-1.8292799,-0.053354,151.5,-138.90001,-24.900002,x,,,,,
211947,0.4258778,9.594811,-4.7205443,1.33385,-0.091464,-0.87653,151.5,-146.1,-23.7,x,,,,,
211987,0.5287584,9.1294565,-3.7228417,0.30488,0.754578,-0.548784,149.1,-143.70001,-24.900002,,,,,,
212029,-0.012561003,8.586941,-3.7623193,0.243904,1.455802,-1.013726,149.1,-141.3,-23.7,,,,,,
212069,0.10288059,8.936854,-3.4716218,1.1051899,0.449698,0.426832,161.1,-134.1,-23.1,,,,,,
212109,-0.38640037,8.957789,-3.2515051,0.129574,0.67835796,-0.49543,158.70001,-143.70001,-21.300001,,,,,,
212131,-0.6334334,8.376394,-3.5003326,-0.121952,0.640248,-0.41158798,151.5,-138.90001,-21.900002,,,,,,
212151,-0.6585554,8.478677,-3.4159944,0.17530599,-0.022866,0.53354,151.5,-136.5,-24.300001,,,,,,
212191,-0.42946666,8.988295,-3.1241007,-0.67835796,-0.144818,1.158544,151.5,-136.5,-21.900002,,,,,,
212235,-0.23207948,9.143811,-3.58168,-0.083841994,-0.297258,1.272874,151.5,-138.90001,-23.1,,,,,,
212255,-0.18901318,8.974537,-3.5571563,0.19055,-0.617382,1.059458,146.70001,-141.3,-22.5,,,,,,
212277,0.16030231,9.451856,-3.2024574,0.160062,-0.861286,1.1128119,149.1,-146.1,-23.1,,,,,,
212297,0.117834166,8.941639,-3.3842928,-0.373478,-0.16768399,0.510674,149.1,-146.1,-23.7,,,,,,
212319,0.019140575,8.799281,-3.4136019,-0.274392,-0.16768399,0.373478,144.3,-141.3,-23.1,,,,,,
212339,0.07536601,9.042128,-3.263468,-0.198172,-0.289636,0.33536798,139.5,-146.1,-21.900002,,,,,,
212361,0.061608724,9.209607,-3.0971844,-0.47256398,-0.121952,0.060976,146.70001,-146.1,-22.5,,,,,,
212381,-0.18063918,9.055884,-3.054118,-0.861286,0.144818,-0.434454,146.70001,-138.90001,-23.1,,,,,,
212404,-0.30864176,8.640175,-3.049931,-0.80030996,0.03811,-0.46494198,144.3,-138.90001,-24.300001,,,,,,
212425,-0.3158195,8.854909,-2.978752,-0.541162,-0.030488,0.160062,144.3,-146.1,-21.300001,,,,,,
212446,-0.26796806,8.901564,-3.0218184,-0.320124,-0.015244,0.26677,146.70001,-143.70001,-23.1,,,,,,
212466,-0.1782466,8.845338,-3.0379682,-0.121952,0.068598,0.30488,141.90001,-143.70001,-23.1,,,,,,
212486,-0.056225438,9.109119,-3.2084389,-0.060976,0.144818,0.396344,144.3,-141.3,-22.5,,,,,,
212506,-0.049047723,9.049903,-3.4189851,-0.091464,0.106708,-0.091464,149.1,-146.1,-23.1,,,,,,
212526,0.24583676,8.805263,-3.4243686,0.129574,-0.327746,-0.365856,141.90001,-141.3,-23.1,,,,,,
212546,0.8056986,9.195251,-3.3418248,-0.259148,-0.20579399,-0.243904,146.70001,-141.3,-23.1,,,,,,
212566,0.70521057,8.957191,-3.5541656,-1.417692,0.49543,-1.051836,141.90001,-146.1,-23.7,,,,,,
212586,0.56285256,8.476284,-3.703103,-1.272874,0.3811,-1.67684,144.3,-141.3,-22.5,,,,,,
212607,1.2590909,8.779543,-3.313114,-1.1280559,-0.3811,-1.8597679,144.3,-146.1,-21.900002,,,,,,
212627,1.3248867,8.153885,-3.5792875,-1.989342,0.480186,-2.949714,144.3,-141.3,-24.300001,,,,,,
212647,1.3111295,7.801579,-3.8478537,-1.8978779,0.11432999,-2.827762,146.70001,-141.3,-24.900002,,,,,,
212667,1.7065018,7.4193654,-4.1265883,-1.94361,0.137196,-2.050318,151.5,-143.70001,-24.300001,,,,,,
212728,0.9145606,7.8422527,-5.8773527,-0.41921,1.44818,-1.539644,149.1,-143.70001,-26.1,,,,,,
212749,0.80091345,8.815431,-5.7218356,-0.137196,1.189032,-1.265252,156.3,-141.3,-24.300001,x,,,,,
212769,0.5329454,8.63539,-5.447288,-0.33536798,3.414656,-2.36282,151.5,-141.3,-24.300001,x,,,,,
212789,-0.17106889,8.003153,-5.1697497,-0.640248,5.990892,-2.93447,158.70001,-138.90001,-24.300001,x,,,,,
212809,-0.5078234,7.9612827,-4.5865602,-0.068598,7.972612,-2.995446,151.5,-141.3,-21.300001,x,,,,,
212829,-0.38939106,8.036051,-3.4572663,0.55640596,10.144882,-3.7881339,161.1,-136.5,-21.900002,x,,,,,
212853,-0.19320019,7.571294,-2.4105163,1.280496,14.184542,-5.663146,165.90001,-131.70001,-20.1,x,,,,,
212914,-0.1309933,7.48875,-2.9273117,3.071666,19.51232,-9.253108,163.5,-124.50001,-14.1,x,,,,,
212969,-0.6447981,7.8344765,-3.9866228,3.460388,15.937602,-10.7241535,175.5,-114.9,-6.9,x,,,,,
212989,-0.75844526,7.516863,-2.5558648,0.92226195,15.137292,-11.600684,180.3,-98.100006,-4.5,x,,,,,
213031,-4.9173336,10.85151,-5.3491926,-0.030488,11.50922,-4.718018,180.3,-98.100006,-2.1000001,x,,,,,
213073,-7.9098425,13.486928,-5.194872,-0.57164997,1.547266,-1.1128119,177.90001,-95.700005,-2.7,x,,,,,
213093,-6.9055605,15.596578,-3.9585102,-2.43904,-4.596066,0.30488,177.90001,-100.50001,-4.5,x,,,,,
213113,-8.202334,14.49121,-4.3520885,-2.957336,-6.5854077,0.221038,182.70001,-98.100006,-2.7,x,,,,,
213133,-7.1472106,13.857179,-4.6960206,-3.612828,-11.333914,2.957336,187.5,-102.9,-6.3,x,,,,,
213153,-5.354576,13.26083,-2.9297042,-4.275942,-15.335464,5.403998,189.90001,-107.700005,-9.900001,x,,,,,
213173,-5.173937,11.377875,-2.5301447,-5.114362,-14.67235,6.5701637,189.90001,-105.3,-9.900001,x,,,,,
213197,-4.268348,9.887303,-3.0248091,-4.908568,-14.847655,7.6372437,192.3,-107.700005,-12.900001,x,,,,,
213221,-2.5445,8.436209,-2.2615786,-3.1936178,-16.981815,7.5457797,180.3,-117.3,-17.1,x,,,,,
213241,-1.6598468,7.597612,-2.150922,-2.469528,-16.81413,6.829312,180.3,-119.700005,-18.900002,x,,,,,
213261,-1.1101533,6.6997995,-2.0450509,-1.707328,-16.532118,5.86894,185.1,-126.9,-19.5,x,,,,,
213285,-1.1651825,5.36295,-2.0594063,-0.72409,-15.632722,4.984788,189.90001,-131.70001,-21.300001,x,,,,,
213305,-0.4593738,5.5262427,-2.1604924,0.49543,-15.190645,6.349126,180.3,-129.3,-24.300001,x,,,,,
213325,0.26378104,7.1292663,-1.6335285,0.967994,-14.40558,6.9893737,180.3,-129.3,-24.900002,x,,,,,
213346,0.06579573,6.9767394,-1.472628,0.221038,-11.524464,5.137228,170.70001,-134.1,-26.7,x,,,,,
213366,0.1531246,6.715351,-2.0701728,0.160062,-8.734812,4.4207597,170.70001,-136.5,-27.900002,x,,,,,
213388,-0.05443101,7.5611253,-2.4446104,0.625004,-6.82169,4.519846,168.3,-136.5,-26.7,x,,,,,
213472,1.2040617,9.528418,-5.2534895,3.6661818,-2.2713559,3.018312,161.1,-143.70001,-27.300001,x,,,,,
213531,0.66453683,9.289759,-4.422669,2.2103798,0.64787,0.11432999,149.1,-141.3,-26.1,x,,,,,
213591,-0.20516303,8.560622,-4.7546387,1.318606,1.821658,-0.68597996,156.3,-136.5,-23.1,,,,,,
213683,0.06340315,8.764589,-3.7706933,-0.060976,2.164648,0.030488,161.1,-141.3,-21.300001,,,,,,
213746,-0.092712164,8.494228,-3.3448155,-0.67835796,1.79117,-0.17530599,153.90001,-138.90001,-21.900002,,,,,,
213766,-0.20994818,8.675466,-3.4608552,-0.510674,1.661596,-0.007622,151.5,-136.5,-21.300001,,,,,,
213809,-0.16090046,8.728103,-3.397452,-0.243904,1.006104,0.007622,151.5,-141.3,-20.7,,,,,,
213829,-0.1961909,8.957789,-3.2981603,-0.434454,1.006104,0.23628199,149.1,-146.1,-23.1,,,,,,
213874,-0.27095875,8.708364,-3.3920689,-0.716468,1.044214,0.091464,149.1,-143.70001,-23.7,,,,,,
213935,-0.093908444,8.806459,-3.2054482,-0.3811,0.221038,0.16768399,149.1,-146.1,-21.900002,,,,,,
213991,-0.3271842,8.878236,-3.4363313,-0.198172,-0.106708,0.0,149.1,-143.70001,-21.900002,,,,,,
214011,-0.2895012,9.171925,-3.5069122,0.0,-0.388722,0.015244,149.1,-143.70001,-21.900002,,,,,,
214053,-0.24224791,8.8058605,-3.1863077,-0.777444,-0.53354,-0.28201398,146.70001,-141.3,-20.1,,,,,,
214095,-0.46415895,9.19286,-3.383695,-0.41158798,-0.373478,0.34298998,141.90001,-141.3,-20.7,,,,,,
214137,-0.4456165,8.770571,-3.2556922,-0.487808,-0.586894,-0.083841994,151.5,-143.70001,-23.1,,,,,,
214226,0.013159146,8.766383,-3.5655303,-0.55640596,-0.60976,0.106708,151.5,-141.3,-21.300001,,,,,,
214246,0.38939106,8.845937,-3.8418722,-1.79117,0.129574,-0.373478,149.1,-143.70001,-23.1,,,,,,
214286,0.5167955,7.948124,-4.8425655,-0.861286,0.907018,-0.525918,151.5,-141.3,-23.7,,,,,,
214306,0.65377027,8.116202,-5.794211,-0.602138,2.980202,-0.525918,151.5,-143.70001,-23.7,,,,,,
214326,0.60890955,7.3559623,-7.9708533,1.775926,6.692116,-1.478668,149.1,-141.3,-22.5,x,,,,,
214346,1.4301598,7.8428507,-9.2706175,3.35368,3.39179,-0.129574,141.90001,-138.90001,-20.1,x,,,,,
214366,2.3034487,9.634289,-6.693818,2.2637339,-1.21952,-0.289636,144.3,-134.1,-20.7,x,,,,,
214386,2.7095876,9.191065,-4.8676877,1.227142,2.2103798,-3.46801,146.70001,-138.90001,-19.5,x,,,,,
214406,2.4063292,8.760402,-3.9698749,-0.525918,5.823208,-5.0076537,151.5,-136.5,-20.7,x,,,,,
214426,1.9810495,8.607876,-2.91176,-2.32471,8.910118,-6.730226,158.70001,-136.5,-20.1,x,,,,,
214446,1.3954675,6.991693,-2.2436342,-2.82014,13.2622795,-9.154022,161.1,-131.70001,-19.5,x,,,,,
214468,1.0018895,6.191976,-1.8572339,-2.652456,16.036688,-9.352194,163.5,-131.70001,-17.7,x,,,,,
214489,0.40434465,5.6123757,-1.2279875,-2.621968,18.170847,-10.106771,165.90001,-122.100006,-16.5,x,,,,,
214509,0.38939106,5.162572,-0.8362039,-2.40093,20.518423,-11.112876,170.70001,-126.9,-15.3,x,,,,,
214529,0.19858347,4.6685057,-0.51978624,-3.1936178,22.652584,-10.777508,170.70001,-119.700005,-14.1,x,,,,,
214550,-0.30923992,5.9975796,-2.0300972,-2.7820299,25.884312,-9.550365,175.5,-114.9,-11.1,x,,,,,
214571,-1.2243986,6.8834295,-3.0858195,-1.722572,24.794365,-9.10829,170.70001,-114.9,-8.700001,x,,,,,
214591,-1.9822458,9.067847,-3.4231722,-0.07622,21.692211,-7.644866,175.5,-112.50001,-8.1,x,,,,,
214611,-2.4954524,10.830575,-3.6989162,-0.28201398,19.184574,-8.048832,173.1,-117.3,-6.3,x,,,,,
214633,-5.1488147,10.277292,-3.8604147,1.67684,15.708941,-7.057972,170.70001,-107.700005,-3.3000002,x,,,,,
214653,-6.005954,13.577846,-5.494541,0.365856,12.522945,-4.329296,170.70001,-102.9,-1.5,x,,,,,
214697,-7.16994,14.565379,-5.048925,0.69360197,2.560992,-5.152472,165.90001,-102.9,-0.3,x,,,,,
214719,-8.070744,15.092343,-5.8510346,-0.70122397,-2.179892,-2.55337,170.70001,-98.100006,-0.90000004,x,,,,,
214740,-7.0933776,13.471974,-4.4561653,-1.8597679,-8.23176,-0.93750596,177.90001,-95.700005,-2.1000001,x,,,,,
214802,-3.609793,9.788012,-2.590557,-3.46801,-17.904078,8.315601,185.1,-100.50001,-9.3,x,,,,,
214826,-2.7478688,8.088687,-2.2902894,-2.6677,-19.13122,7.9954777,182.70001,-114.9,-9.900001,x,,,,,
214846,-1.987629,6.1674523,-2.158698,-1.440558,-20.42696,7.789684,182.70001,-117.3,-11.700001,x,,,,,
214890,-0.70760316,6.1345544,-2.3094301,-0.045732,-20.800438,10.381164,182.70001,-119.700005,-15.900001,x,,,,,
214910,-0.35529694,7.036554,-2.5175838,0.861286,-20.35074,10.487872,170.70001,-124.50001,-17.1,x,,,,,
214932,0.12501188,7.8003826,-1.8141676,1.044214,-18.986403,9.077802,168.3,-129.3,-23.1,x,,,,,
214952,0.10946016,8.26514,-1.9200389,0.426832,-15.876626,7.58389,168.3,-134.1,-23.1,x,,,,,
214972,-0.099889874,8.33572,-2.5235653,-0.060976,-13.399476,5.403998,163.5,-136.5,-22.5,x,,,,,
215015,0.11005831,8.241812,-2.3106263,0.92226195,-11.707392,3.6661818,163.5,-143.70001,-25.500002,x,,,,,
215036,0.07835673,7.769279,-2.158698,0.33536798,-9.123534,1.951232,158.70001,-150.90001,-24.900002,x,,,,,
215056,0.3744375,7.71425,-2.7765796,0.47256398,-6.608274,1.3490939,161.1,-138.90001,-29.1,x,,,,,
215076,-0.13876916,7.425945,-3.673794,0.99086,-4.0777698,0.655492,153.90001,-143.70001,-24.900002,x,,,,,
215120,0.2619866,9.351367,-3.8424704,2.423796,-3.536608,0.846042,158.70001,-138.90001,-24.300001,x,,,,,
215140,0.60352623,9.450659,-3.7916284,1.166166,-1.1051899,-1.021348,161.1,-146.1,-25.500002,x,,,,,
215162,-0.12321745,8.04921,-4.2599745,0.708846,0.92226195,-1.98172,153.90001,-134.1,-27.900002,x,,,,,
215182,-0.29548264,7.537798,-4.601514,1.5244,1.265252,-0.861286,156.3,-138.90001,-26.1,x,,,,,
215202,0.030505292,8.636586,-4.8090696,2.568614,1.036592,0.55640596,156.3,-143.70001,-24.900002,,,,,,
215222,0.17705032,9.415967,-5.045934,2.7362978,1.204276,0.899396,151.5,-143.70001,-26.1,,,,,,
215246,0.21174261,9.506885,-4.9257073,2.2332458,0.739334,0.586894,158.70001,-143.70001,-24.300001,,,,,,
215306,0.32180092,8.7191305,-3.895107,0.137196,1.516778,-0.72409,156.3,-143.70001,-22.5,,,,,,
215326,0.26497734,8.46791,-3.8376853,0.068598,1.5929979,-0.777444,158.70001,-138.90001,-22.5,,,,,,
215346,0.1573116,8.3740015,-3.941164,0.297258,1.516778,-0.34298998,151.5,-136.5,-23.7,,,,,,
215367,0.08194559,8.42604,-3.8508444,0.525918,1.074702,0.20579399,151.5,-129.3,-21.900002,,,,,,
215429,0.15611531,8.661709,-3.5039215,-0.68597996,1.227142,-0.015244,156.3,-146.1,-23.1,,,,,,
215449,-0.024523862,8.6766615,-3.6624293,-0.106708,0.80793196,0.777444,156.3,-141.3,-22.5,,,,,,
215469,-0.08254373,8.735878,-3.6767848,0.33536798,0.28201398,0.899396,151.5,-136.5,-21.300001,,,,,,
215489,0.09091773,9.45664,-3.7300196,1.02897,-0.320124,1.41007,153.90001,-143.70001,-20.7,,,,,,
215554,-0.35410064,9.100147,-3.2311683,0.40396598,-0.426832,0.068598,158.70001,-143.70001,-22.5,,,,,,
215574,-0.8045023,8.496023,-3.2455237,0.16768399,0.03811,0.03811,149.1,-146.1,-22.5,,,,,,
215594,-1.0802462,8.3309355,-3.142045,0.129574,0.030488,0.182928,144.3,-141.3,-21.300001,,,,,,
215615,-0.9277198,8.46791,-2.7711964,-0.30488,-0.07622,0.182928,146.70001,-146.1,-21.300001,,,,,,
215635,-0.8762795,8.12637,-2.317206,-1.158544,0.49543,-0.35061198,149.1,-138.90001,-21.300001,,,,,,
215655,-1.0766573,7.969657,-2.7442799,-1.417692,1.8902559,-0.739334,149.1,-141.3,-21.900002,,,,,,
215695,-1.5432088,7.9720497,-3.3747227,-0.22865999,0.731712,-0.26677,146.70001,-138.90001,-20.1,,,,,,
215724,-1.3320644,8.997267,-3.5338287,0.060976,0.129574,-0.57164997,146.70001,-131.70001,-21.300001,,,,,,
215744,-1.5420126,8.496621,-3.5499785,-0.312502,0.221038,-1.250008,151.5,-146.1,-22.5,,,,,,
215791,-0.5778061,9.920799,-3.5792875,-0.69360197,0.830798,-0.579272,156.3,-143.70001,-21.900002,,,,,,
215812,-0.34692293,10.167234,-3.8131614,-0.67073596,1.1051899,-1.173788,151.5,-138.90001,-21.300001,,,,,,
215832,-0.19678904,10.009923,-3.5912504,-0.55640596,0.83842,-1.6387299,156.3,-141.3,-21.900002,,,,,,
215852,-0.019140575,9.621728,-3.6953273,-0.716468,0.99086,-1.821658,158.70001,-141.3,-20.1,,,,,,
215876,0.15551718,9.258655,-3.6331203,-0.34298998,0.899396,-1.006104,151.5,-131.70001,-23.1,,,,,,
215896,0.06938458,8.622231,-3.7168605,-0.579272,1.097568,-0.53354,153.90001,-141.3,-22.5,,,,,,
215917,0.14654502,8.27471,-3.6151762,-0.320124,0.69360197,0.129574,156.3,-138.90001,-20.7,,,,,,
215937,0.23686461,8.382974,-3.2497108,-0.525918,0.541162,0.731712,153.90001,-134.1,-21.300001,,,,,,
215957,0.715379,9.435107,-3.467435,-0.594516,0.632626,0.716468,158.70001,-134.1,-21.300001,,,,,,
216021,-0.16927446,8.509182,-3.5039215,0.007622,-0.45731997,0.091464,161.1,-136.5,-21.300001,x,,,,,
216041,-0.2781365,8.249588,-3.5116973,0.07622,-0.853664,0.434454,158.70001,-136.5,-22.5,x,,,,,
216061,-0.22490175,8.420058,-3.3101232,-0.22865999,-1.280496,0.80793196,158.70001,-134.1,-21.900002,x,,,,,
216081,0.062206868,8.731691,-3.3777134,-0.46494198,-1.18141,1.33385,151.5,-143.70001,-21.300001,x,,,,,
216101,-0.10048802,8.708364,-3.8508444,-0.503052,-0.769822,1.158544,156.3,-143.70001,-21.900002,x,,,,,
216121,-0.28052905,8.374599,-3.9830341,0.28201398,-1.417692,1.013726,151.5,-138.90001,-23.1,x,,,,,
216141,0.63941485,9.428528,-3.3107214,0.602138,-2.2865999,1.432936,146.70001,-136.5,-23.1,x,,,,,
216161,0.5215807,9.741357,-3.0026777,-0.45731997,-1.02897,-0.083841994,149.1,-136.5,-22.5,x,,,,,
216185,0.025720147,8.493032,-4.0153337,-1.532022,1.06708,-1.98172,151.5,-138.90001,-23.1,x,,,,,
216205,0.062206868,8.347683,-4.855725,-1.44818,2.2027578,-2.446662,151.5,-138.90001,-20.7,x,,,,,
216229,-0.19379832,8.091678,-6.0047574,-1.310984,3.6966698,-2.903982,153.90001,-134.1,-24.300001,x,,,,,
216269,0.055029154,7.241119,-8.792702,1.013726,3.7271578,-1.928366,156.3,-134.1,-21.300001,x,,,,,
216290,0.9378882,9.148597,-9.2484865,1.44818,1.6006199,-0.060976,151.5,-131.70001,-20.1,x,,,,,
216310,1.0916109,10.353855,-8.176016,0.92226195,-0.045732,-2.309466,153.90001,-138.90001,-20.1,x,,,,,
216330,0.85414815,8.595913,-6.489253,0.251526,1.539644,-6.486322,168.3,-129.3,-20.1,x,,,,,
216350,0.8140726,8.436209,-5.4365215,-0.3811,1.1128119,-7.1418138,170.70001,-126.9,-20.1,x,,,,,
216370,0.17705032,6.9504213,-3.0989788,-2.050318,3.071666,-8.963471,173.1,-126.9,-21.300001,x,,,,,
216390,-0.006579573,5.0722523,-1.9660959,-3.064044,9.321706,-8.010722,177.90001,-119.700005,-20.7,x,,,,,
216455,-0.34213778,4.426856,-2.9386764,-4.34454,28.094692,-6.74547,175.5,-124.50001,-15.900001,x,,,,,
216475,0.19738717,6.3989334,-2.9237227,-1.21952,25.061136,-6.70736,180.3,-117.3,-14.1,x,,,,,
216495,-0.16030231,7.113714,-1.6771929,-0.33536798,24.298935,-8.91774,177.90001,-114.9,-10.5,x,,,,,
216516,-0.6681257,8.411086,-2.0336862,-0.327746,23.803505,-8.826276,177.90001,-112.50001,-8.1,x,,,,,
216536,-2.413507,8.950611,-0.6615461,-0.785066,21.151049,-10.609824,170.70001,-110.100006,-7.5000005,x,,,,,
216556,-4.0231094,9.333423,-1.8339063,-0.586894,22.888866,-10.533604,175.5,-98.100006,-4.5,x,,,,,
216639,-7.4731984,14.640147,-5.1631703,0.830798,-0.47256398,-2.89636,170.70001,-88.5,-0.3,x,,,,,
216686,-7.2943535,12.714127,-3.6385038,-1.661596,-10.106771,0.3811,187.5,-98.100006,-2.7,x,,,,,
216707,-6.0603848,12.860672,-3.0678754,-2.179892,-13.765331,5.25918,189.90001,-90.9,-4.5,x,,,,,
216749,-5.511289,8.516958,-2.3046448,-1.29574,-14.390336,6.112844,192.3,-90.9,-9.900001,x,,,,,
216769,-3.8412743,7.171136,-2.4589658,1.3567159,-17.164743,8.6509695,189.90001,-102.9,-11.1,x,,,,,
216791,-1.4498986,8.239419,-0.22310732,1.493912,-18.643412,10.89946,189.90001,-105.3,-12.3,x,,,,,
216811,-2.5708184,6.46114,-1.3811121,0.602138,-13.018375,8.0945635,185.1,-112.50001,-14.700001,x,,,,,
216831,-2.53493,5.4999247,-3.9423604,1.79117,-11.493976,7.301876,182.70001,-117.3,-14.700001,x,,,,,
216854,-1.5348349,5.925802,-4.209132,3.079288,-16.204372,8.19365,187.5,-119.700005,-15.3,x,,,,,
216874,-0.66034985,6.8744574,-3.493155,2.637212,-17.301939,8.53664,185.1,-117.3,-15.900001,x,,,,,
216898,-0.1794429,7.736381,-3.137858,2.073184,-16.036688,7.2409,175.5,-124.50001,-17.1,x,,,,,
216918,0.10886202,8.1580715,-3.071464,0.754578,-13.193682,5.434486,177.90001,-124.50001,-18.300001,x,,,,,
216938,-0.33854893,6.942047,-3.3023474,-0.373478,-10.160126,3.08691,182.70001,-124.50001,-21.300001,x,,,,,
216962,-0.598143,6.3696246,-4.594336,0.40396598,-8.414688,4.4055157,175.5,-126.9,-20.1,x,,,,,
216982,-0.18781689,7.4923387,-4.1433363,0.46494198,-9.382682,4.8857017,168.3,-129.3,-22.5,x,,,,,
217002,0.4288685,7.8996744,-4.0440445,0.442076,-8.254626,3.7576458,168.3,-126.9,-23.1,x,,,,,
217042,0.15252645,7.9385533,-4.9837275,1.440558,-5.0381417,2.461906,170.70001,-136.5,-21.900002,x,,,,,
217064,0.099889874,8.726308,-4.9322867,2.446662,-4.832348,1.768304,161.1,-131.70001,-23.1,x,,,,,
217084,0.5072252,9.307703,-4.6918335,2.2332458,-3.46801,1.051836,165.90001,-131.70001,-23.1,x,,,,,
217104,0.1824336,9.582849,-4.6415896,1.699706,-1.25763,0.129574,165.90001,-131.70001,-22.5,x,,,,,
217164,-0.81048375,8.973939,-5.2995467,1.082324,1.18141,-0.708846,168.3,-129.3,-22.5,x,,,,,
217184,-0.849363,9.055286,-5.1470203,0.746956,0.731712,0.03811,163.5,-131.70001,-22.5,,,,,,
217204,-0.7733989,9.08938,-4.852734,0.137196,0.34298998,0.20579399,170.70001,-122.100006,-20.7,,,,,,
217225,-0.63223714,8.933266,-4.7372923,-0.16768399,0.045732,0.20579399,168.3,-124.50001,-21.900002,,,,,,
217245,-0.52696395,8.798683,-4.523755,-0.442076,-0.289636,0.525918,165.90001,-129.3,-22.5,,,,,,
217267,-0.45040166,8.7412615,-4.287489,-0.777444,-0.41921,0.663114,165.90001,-129.3,-21.900002,,,,,,
217287,-0.36008206,8.272916,-3.8275168,-0.960372,-0.480186,0.777444,163.5,-134.1,-20.7,,,,,,
217308,-0.21592961,9.0188,-3.4560702,-1.318606,0.388722,0.35061198,168.3,-131.70001,-21.900002,,,,,,
217348,-0.4509998,8.208316,-3.4375277,-0.92226195,1.669218,-0.442076,165.90001,-134.1,-21.300001,,,,,,
217372,-0.669322,8.768776,-3.652261,-0.213416,1.463424,0.17530599,165.90001,-134.1,-22.5,,,,,,
217392,-0.54371196,8.977528,-3.3777134,0.137196,0.7622,0.274392,163.5,-141.3,-21.900002,,,,,,
217412,-0.4815051,9.153382,-3.1151285,-0.243904,0.93750596,0.030488,163.5,-136.5,-20.1,,,,,,
217475,-0.84457785,8.846535,-3.731814,0.3811,0.67073596,-0.213416,163.5,-134.1,-21.900002,,,,,,
217495,-0.95284176,8.62582,-3.785647,0.594516,0.213416,-0.015244,156.3,-134.1,-21.300001,,,,,,
217515,-0.60232997,8.949415,-3.371732,0.68597996,-0.442076,0.41921,161.1,-136.5,-24.300001,,,,,,
217535,-0.5455064,8.866273,-3.376517,-0.28201398,0.160062,0.35061198,161.1,-134.1,-20.7,,,,,,
217558,-0.2727532,8.89618,-3.3926668,-0.22865999,0.358234,0.67073596,165.90001,-134.1,-21.900002,,,,,,
217578,-0.37503564,8.999061,-3.3202915,-0.548784,0.739334,0.7622,156.3,-134.1,-21.300001,,,,,,
217600,-0.619078,8.783132,-3.572708,-0.7622,1.158544,0.541162,161.1,-131.70001,-20.7,,,,,,
217620,-0.74947315,8.825002,-3.7168605,-0.426832,0.716468,0.525918,161.1,-138.90001,-20.7,,,,,,
217640,-0.70461243,9.022388,-3.530838,-0.297258,0.060976,0.426832,161.1,-134.1,-21.300001,,,,,,
217663,-0.4438221,9.08938,-3.6223538,-0.47256398,-0.091464,-0.022866,158.70001,-136.5,-18.900002,,,,,,
217683,-0.5801987,8.995472,-3.580484,-0.19055,-0.20579399,-0.35061198,158.70001,-138.90001,-21.900002,,,,,,
217703,-0.5012438,9.194056,-3.4399202,-0.426832,-0.388722,-0.274392,158.70001,-134.1,-21.900002,,,,,,
217724,-0.72853816,8.717336,-3.4506867,-0.81555396,-0.40396598,-0.64787,158.70001,-136.5,-21.300001,,,,,,
217745,-0.7034161,8.732289,-3.5122955,-1.1204339,-0.55640596,-0.17530599,161.1,-138.90001,-21.900002,,,,,,
217765,-0.61130214,8.910536,-3.2915807,-0.983238,-1.059458,-0.099086,156.3,-136.5,-21.300001,,,,,,
217785,-0.50064564,8.845338,-3.192289,-0.716468,-1.234764,-0.46494198,161.1,-131.70001,-21.300001,,,,,,
217807,-0.49107537,8.741859,-3.0295942,-0.640248,-1.250008,-0.67835796,163.5,-143.70001,-21.300001,,,,,,
217827,-0.3858022,8.720326,-3.0595014,-0.327746,-0.95274997,-0.94512796,161.1,-136.5,-23.1,,,,,,
217847,-0.4396351,8.875245,-2.996098,-0.449698,-0.884152,-0.708846,158.70001,-136.5,-21.300001,,,,,,
217868,-0.39597064,8.768776,-3.1683633,-1.021348,-0.49543,-0.777444,158.70001,-131.70001,-22.5,,,,,,
217888,-0.2464349,8.687428,-3.1306803,-1.310984,-0.289636,-0.68597996,163.5,-136.5,-23.1,,,,,,
217908,-0.4928698,8.601894,-3.5039215,-1.6311079,0.579272,-1.3872039,165.90001,-131.70001,-23.7,,,,,,
217928,-0.33914706,8.269925,-3.8969014,-1.189032,0.46494198,-1.6311079,170.70001,-138.90001,-22.5,,,,,,
217951,-0.2380609,7.9164224,-4.0685687,-0.731712,0.45731997,-1.5244,165.90001,-138.90001,-23.1,,,,,,
217972,0.09450659,8.405105,-4.5781865,-1.059458,1.051836,-1.1432999,170.70001,-134.1,-24.900002,,,,,,
217993,-0.013159146,8.482863,-4.919128,-1.18141,1.56251,-1.3414719,168.3,-136.5,-25.500002,,,,,,
218013,-0.25959405,8.202932,-6.378597,-0.594516,3.8033779,-1.75306,163.5,-131.70001,-24.300001,x,,,,,
218034,0.27095875,9.436303,-7.191473,-0.434454,1.189032,-0.72409,163.5,-131.70001,-22.5,x,,,,,
218054,0.39357808,9.30232,-6.5281324,-1.1280559,1.67684,-1.48629,163.5,-131.70001,-22.5,x,,,,,
218074,0.4743274,8.7950945,-6.852924,-0.830798,3.58234,-2.05794,168.3,-136.5,-23.7,x,,,,,
218134,0.765623,6.639985,-3.5930448,0.95274997,2.85825,-2.995446,175.5,-129.3,-21.900002,x,,,,,
218154,0.3702505,5.548374,-1.8727857,-1.272874,5.388754,-3.7500238,175.5,-122.100006,-20.7,x,,,,,
218194,-0.25002375,5.9437466,-3.828115,-2.09605,13.330877,-5.3963757,180.3,-124.50001,-20.1,x,,,,,
218242,0.1321896,6.3540726,-1.1448456,-3.879598,14.428446,-9.100668,185.1,-117.3,-17.7,x,,,,,
218262,-0.89003676,4.5500736,-1.3733363,-5.60217,17.027548,-9.436036,185.1,-117.3,-16.5,x,,,,,
218302,-3.853835,8.370413,-3.1635783,-4.397894,21.135805,-7.08846,189.90001,-114.9,-12.900001,x,,,,,
218322,-3.9764545,9.277796,-3.1408486,-2.850628,17.522978,-7.35523,187.5,-110.100006,-12.3,x,,,,,
218342,-5.7792573,12.025066,-1.0461521,-2.6905658,12.111358,-6.684494,189.90001,-107.700005,-12.3,x,,,,,
218364,-6.4097,12.64235,-2.062397,-1.798792,8.894874,-6.623518,194.70001,-105.3,-9.900001,x,,,,,
218427,-6.644172,16.537457,-2.606109,-1.3567159,-2.080806,-1.71495,197.1,-105.3,-11.1,x,,,,,
218471,-7.952909,13.2548485,-2.0803413,-1.173788,-6.806446,1.41007,197.1,-102.9,-11.700001,x,,,,,
218491,-6.488655,14.107202,-1.8871411,0.045732,-10.59458,5.0076537,201.90001,-105.3,-13.500001,x,,,,,
218511,-5.1230946,12.504179,-1.121518,-0.182928,-12.00465,5.708878,199.50002,-107.700005,-15.900001,x,,,,,
218531,-4.657141,10.39094,-1.3320644,-0.92226195,-11.39489,6.295772,194.70001,-112.50001,-16.5,x,,,,,
218555,-3.9441547,7.5300217,-2.0360787,-0.28201398,-12.904046,6.638762,197.1,-114.9,-16.5,x,,,,,
218575,-2.9482467,6.3038287,-1.4546837,0.739334,-14.679972,7.218034,189.90001,-119.700005,-20.7,x,,,,,
218595,-2.0169382,5.7266207,-1.6891557,1.006104,-13.98637,7.271388,187.5,-124.50001,-20.7,x,,,,,
218616,-1.0910128,5.999374,-1.8949169,1.501534,-14.375092,7.5762677,185.1,-124.50001,-21.300001,x,,,,,
218636,-0.4372425,6.171041,-1.5713216,1.082324,-14.146432,7.157058,182.70001,-126.9,-22.5,x,,,,,
218656,-0.07596416,6.546077,-1.6855669,0.56402797,-12.99551,6.608274,177.90001,-129.3,-23.1,x,,,,,
218679,0.43245736,6.5424876,-1.589864,0.34298998,-11.882698,5.64028,177.90001,-136.5,-24.900002,x,,,,,
218721,-0.10108616,6.769782,-2.661138,0.07622,-5.541194,4.397894,170.70001,-138.90001,-27.300001,x,,,,,
218741,-0.12202117,7.2853813,-3.527249,0.67073596,-5.243936,3.910086,163.5,-136.5,-27.300001,x,,,,,
218763,0.037683006,8.689821,-3.8592184,1.089946,-4.9314337,3.597584,158.70001,-141.3,-26.7,x,,,,,
218783,-0.21892032,8.454153,-4.5763917,0.94512796,-3.948196,2.004586,158.70001,-134.1,-28.500002,x,,,,,
218804,-0.086132586,7.6622114,-5.05371,1.966476,-4.054904,1.8673899,163.5,-143.70001,-27.900002,x,,,,,
218824,0.34273592,8.482863,-4.688245,2.6677,-4.984788,3.384168,158.70001,-141.3,-27.300001,x,,,,,
218844,0.9277198,9.344788,-4.0901017,2.560992,-4.237832,3.368924,156.3,-136.5,-28.500002,x,,,,,
218864,1.2375578,9.565502,-3.5966337,2.301844,-2.51526,2.332332,153.90001,-141.3,-29.7,x,,,,,
218886,0.765623,9.059473,-4.00696,1.547266,0.15244,0.94512796,156.3,-146.1,-27.300001,x,,,,,
218948,0.23865904,8.6437645,-4.707385,2.065562,0.92988396,0.434454,149.1,-146.1,-26.7,,,,,,
219023,-0.18901318,9.101343,-3.731216,-0.030488,1.6463519,-0.640248,151.5,-143.70001,-24.300001,,,,,,
219043,-0.5012438,8.787916,-3.740188,-0.785066,1.928366,-0.579272,156.3,-138.90001,-25.500002,,,,,,
219085,-0.5191881,9.0110235,-3.3513951,-1.1204339,1.272874,-0.80030996,146.70001,-138.90001,-23.7,,,,,,
219145,-0.5317491,8.689223,-2.7311208,-1.051836,0.7622,0.083841994,144.3,-141.3,-24.300001,,,,,,
219165,-0.6262557,8.750832,-2.8441699,-1.051836,1.1051899,-0.213416,153.90001,-146.1,-24.900002,,,,,,
219226,0.12142302,8.7191305,-2.7006154,-0.099086,0.617382,-0.16768399,149.1,-141.3,-23.7,,,,,,
219267,-0.31223062,9.383069,-3.3854892,-0.030488,1.699706,-0.442076,156.3,-141.3,-23.7,,,,,,
219287,-0.44800907,9.283179,-3.4267612,0.221038,1.3795819,-0.586894,149.1,-148.5,-26.1,,,,,,
219330,-0.49227166,9.902257,-3.3729281,0.3811,-0.967994,0.487808,149.1,-146.1,-23.1,,,,,,
219370,-0.34333408,9.35376,-2.9045823,-1.06708,-1.6006199,0.243904,149.1,-141.3,-24.300001,,,,,,
219444,-0.34991363,8.8919935,-2.585772,-0.548784,-0.182928,-0.160062,149.1,-141.3,-25.500002,,,,,,
219506,-0.32538977,8.862684,-2.9057786,-0.045732,0.899396,-0.198172,144.3,-138.90001,-24.300001,,,,,,
219550,-0.27993092,8.726906,-2.9799483,0.358234,0.0,0.579272,149.1,-143.70001,-26.1,,,,,,
219570,-0.22071476,8.60309,-3.0469403,0.22865999,-0.221038,0.83842,144.3,-143.70001,-24.900002,,,,,,
219590,-0.16568561,8.952406,-3.155204,0.34298998,-0.56402797,0.95274997,144.3,-148.5,-24.300001,,,,,,
219634,0.2033686,8.906349,-3.171354,0.07622,-0.830798,0.106708,149.1,-141.3,-23.1,,,,,,
219654,0.25779963,8.571987,-3.1737466,0.20579399,-0.746956,-0.045732,141.90001,-138.90001,-23.1,x,,,,,
219717,0.51739365,8.810646,-3.4417148,-0.72409,0.17530599,-0.60976,149.1,-148.5,-23.1,x,,,,,
219867,1.3201015,8.241214,-6.5963206,1.02897,3.498498,-3.6585598,153.90001,-141.3,-23.7,x,,,,,
219909,1.8147658,7.0521054,-4.6164675,-0.579272,7.0503497,-5.5640597,163.5,-136.5,-21.300001,x,,,,,
219988,0.39836323,5.7379856,-3.0774455,-2.6829438,18.323288,-10.411652,170.70001,-126.9,-18.900002,x,,,,,
220008,-0.5000475,6.275118,-3.6217556,-2.500016,18.780607,-10.914703,175.5,-122.100006,-19.5,x,,,,,
220048,-1.7675124,5.008849,-1.8691968,-3.7881339,19.428478,-10.74702,187.5,-119.700005,-15.3,x,,,,,
220068,-3.2921789,7.735783,-2.4464047,-3.6661818,20.343117,-8.201272,187.5,-110.100006,-14.1,x,,,,,
220088,-5.2247787,9.761095,-2.7006154,-3.1859958,18.628168,-8.490908,182.70001,-107.700005,-12.900001,x,,,,,
220108,-7.2405205,11.496308,-2.1204169,-2.560992,15.20589,-8.3842,187.5,-107.700005,-11.1,x,,,,,
220148,-8.404507,12.228435,-2.39317,-0.53354,8.925362,-7.50767,197.1,-105.3,-9.900001,x,,,,,
220169,-8.55165,14.713719,-3.2515051,-1.1356779,5.312534,-2.660078,194.70001,-100.50001,-7.5000005,x,,,,,
220211,-8.530117,15.054661,-3.2389443,-3.460388,-3.361302,-1.8292799,197.1,-98.100006,-8.700001,x,,,,,
220231,-8.4499655,12.62919,-3.6420925,-4.009172,-8.025966,-0.015244,199.50002,-98.100006,-8.700001,x,,,,,
220251,-5.489756,13.123855,-2.3746276,-3.7728899,-13.7196,4.565578,201.90001,-98.100006,-13.500001,x,,,,,
220295,-4.6039066,9.829284,-0.30684733,-2.964958,-14.573264,4.817104,209.1,-114.9,-17.1,x,,,,,
220315,-3.6074002,9.30232,-0.68128484,-0.975616,-15.076316,6.791202,199.50002,-110.100006,-20.1,x,,,,,
220335,-2.8519456,7.928983,-0.23207948,-0.594516,-15.411684,6.814068,199.50002,-117.3,-21.900002,x,,,,,
220355,-2.372235,6.1507044,-0.84278345,0.16768399,-14.573264,7.20279,197.1,-124.50001,-21.900002,x,,,,,
220375,-1.9176464,6.004159,-1.1759491,1.547266,-14.984852,8.597616,192.3,-124.50001,-23.1,x,,,,,
220395,-1.3541957,6.6322093,-1.1496308,2.065562,-15.442172,9.237864,182.70001,-126.9,-27.300001,x,,,,,
220417,-0.958225,6.7051826,-0.8397927,1.318606,-15.030583,8.53664,182.70001,-129.3,-25.500002,x,,,,,
220437,-0.5586655,6.0980678,-0.96839345,0.55640596,-13.628136,7.568646,180.3,-131.70001,-29.1,x,,,,,
220459,0.17286332,6.434224,-0.92951417,1.204276,-12.7668495,7.27901,170.70001,-136.5,-29.1,x,,,,,
220521,0.9486548,8.041434,-2.074958,1.8597679,-8.483286,4.253076,161.1,-146.1,-31.500002,x,,,,,
220541,0.8344094,7.3858695,-2.9602096,1.989342,-6.6006517,2.949714,153.90001,-141.3,-30.900002,x,,,,,
220563,1.0389743,7.484563,-3.572708,2.987824,-6.0976,3.8186219,158.70001,-141.3,-29.1,x,,,,,
220626,1.9098705,10.1774025,-4.2109265,3.6661818,-3.559474,3.422278,137.1,-146.1,-28.500002,x,,,,,
220646,1.719661,9.23114,-4.2013564,2.118916,-0.853664,1.06708,134.70001,-148.5,-28.500002,x,,,,,
220666,1.3464198,8.993079,-4.3712287,2.118916,0.45731997,0.30488,137.1,-138.90001,-29.1,x,,,,,
220709,0.38640037,8.925489,-4.600916,2.073184,1.8826339,-0.20579399,139.5,-148.5,-29.1,,,,,,
220730,0.0723753,9.019398,-4.621851,2.118916,1.440558,-0.182928,134.70001,-143.70001,-26.1,,,,,,
220750,0.40255022,9.802367,-4.275526,2.347576,0.907018,0.099086,137.1,-153.3,-25.500002,,,,,,
220770,0.34273592,9.7993765,-4.0530167,1.3872039,1.234764,-0.34298998,141.90001,-148.5,-27.300001,,,,,,
220790,0.25421077,9.402209,-3.9555194,0.716468,1.5929979,-0.625004,137.1,-153.3,-25.500002,,,,,,
220833,-0.05801987,9.15099,-3.5625396,0.121952,1.783548,-0.67835796,139.5,-141.3,-24.900002,,,,,,
220853,-0.124413736,9.152185,-3.5541656,-0.091464,1.8597679,-0.617382,141.90001,-146.1,-26.1,,,,,,
220873,-0.2003779,9.034351,-3.4189851,-0.068598,1.471046,-0.594516,137.1,-146.1,-23.7,,,,,,
220895,-0.27753833,8.575576,-3.2658606,-0.22865999,1.196654,-0.28201398,139.5,-146.1,-25.500002,,,,,,
220979,-0.08254373,8.893787,-2.736504,-0.81555396,0.541162,0.251526,134.70001,-143.70001,-25.500002,,,,,,
221009,0.26677176,8.981715,-2.6539605,-0.80030996,0.586894,0.060976,129.90001,-148.5,-24.900002,,,,,,
221029,0.19020946,9.035547,-2.606109,-0.70122397,0.967994,0.22865999,141.90001,-146.1,-25.500002,,,,,,
221069,-0.09809545,9.152783,-3.0923991,-0.320124,0.891774,-0.083841994,139.5,-146.1,-24.900002,,,,,,
221113,0.0017944289,9.230542,-2.9338913,-0.03811,0.259148,0.312502,137.1,-146.1,-24.300001,,,,,,
221153,0.1321896,8.7950945,-2.9165452,0.091464,0.57164997,0.320124,134.70001,-148.5,-25.500002,,,,,,
221245,0.16448931,9.264038,-3.267057,-0.541162,-1.250008,0.449698,137.1,-146.1,-23.1,,,,,,
221265,0.26497734,9.055884,-3.2198036,-0.93750596,-1.478668,0.068598,127.50001,-146.1,-25.500002,,,,,,
221307,0.35170805,9.110315,-2.9338913,-0.777444,-1.097568,0.022866,132.3,-150.90001,-25.500002,,,,,,
221327,0.3020622,9.115101,-2.920732,-0.769822,-0.625004,-0.15244,134.70001,-153.3,-26.1,,,,,,
221347,0.16329303,8.96078,-2.9649947,-0.55640596,-0.16768399,-0.28201398,132.3,-150.90001,-24.900002,,,,,,
221371,0.074169725,9.176709,-3.0816326,-0.15244,0.099086,-0.33536798,137.1,-146.1,-24.300001,,,,,,
221391,-0.11484345,8.96736,-3.1246989,0.030488,0.129574,-0.23628199,132.3,-153.3,-24.900002,,,,,,
221411,-0.04246815,9.088184,-2.9847333,0.03811,0.07622,-0.053354,127.50001,-148.5,-25.500002,,,,,,
221431,0.008374002,9.223365,-2.9081712,-0.16768399,0.129574,0.022866,134.70001,-153.3,-27.300001,,,,,,
221495,-0.04426258,8.984706,-2.8597217,-0.182928,-0.221038,0.198172,127.50001,-148.5,-25.500002,,,,,,
221515,0.08732887,9.170728,-2.8094776,-0.41921,-0.274392,0.617382,127.50001,-148.5,-25.500002,,,,,,
221535,0.2129389,9.235926,-2.782561,-0.3811,-0.34298998,0.739334,129.90001,-150.90001,-26.7,,,,,,
221555,0.23626648,9.141419,-2.8411791,-0.365856,-0.33536798,0.55640596,125.100006,-153.3,-25.500002,,,,,,
221575,0.44501838,9.1294565,-2.7604299,-0.16768399,-0.525918,0.33536798,127.50001,-148.5,-25.500002,,,,,,
221597,0.715379,9.011622,-2.6037164,-0.388722,-0.396344,0.182928,129.90001,-148.5,-24.300001,,,,,,
221618,0.7835673,8.76399,-2.7640188,-0.655492,-0.060976,0.106708,127.50001,-148.5,-24.900002,,,,,,
221658,0.857737,8.66111,-2.9015915,-0.3811,-0.297258,-0.53354,129.90001,-143.70001,-26.1,,,,,,
221721,1.4187951,8.95121,-2.7933276,-0.49543,-0.19055,-0.442076,125.100006,-150.90001,-27.300001,x,,,,,
221761,0.8415872,8.155081,-3.6767848,-1.265252,2.050318,-1.577754,132.3,-146.1,-27.300001,x,,,,,
221846,1.3613734,8.522341,-5.7631073,0.716468,4.207344,0.03811,127.50001,-153.3,-26.1,x,,,,,
221866,1.6448932,8.583352,-5.635703,0.20579399,6.44059,-0.68597996,132.3,-143.70001,-24.900002,x,,,,,
221908,2.4661434,9.291553,-5.0967765,0.731712,9.352194,-2.89636,134.70001,-141.3,-23.1,x,,,,,
221948,2.1999698,7.140033,-4.117018,-0.442076,12.827826,-6.692116,134.70001,-138.90001,-22.5,x,,,,,
222025,0.41929823,6.8469424,-0.7602397,-1.966476,19.062622,-11.1586075,156.3,-134.1,-17.7,x,,,,,
222045,-1.4995444,7.8171306,-2.1359684,-2.500016,22.614473,-12.027515,158.70001,-126.9,-15.3,x,,,,,
222085,-5.456858,13.183071,1.6897539,-4.672286,17.94981,-13.7881975,161.1,-129.3,-12.3,x,,,,,
222143,-6.9426455,14.613231,-2.464349,2.576236,6.4177237,-0.87653,170.70001,-112.50001,-7.5000005,x,,,,,
222205,-7.170538,12.461113,-3.6965237,-0.586894,-7.759196,0.739334,175.5,-107.700005,-8.700001,x,,,,,
222225,-5.682956,12.669267,-2.7670095,-2.36282,-11.593061,4.519846,173.1,-112.50001,-9.3,x,,,,,
222245,-4.082326,12.496403,-1.9816476,-3.7881339,-13.780576,6.0747337,168.3,-114.9,-9.900001,x,,,,,
222268,-3.2921789,11.073421,-1.4403282,-3.948196,-14.657105,5.731744,175.5,-117.3,-13.500001,x,,,,,
222288,-2.7891407,9.818517,-1.6018269,-3.155508,-15.144914,5.838452,173.1,-122.100006,-15.900001,x,,,,,
222308,-2.0271065,8.479275,-1.4660485,-1.8826339,-16.478764,6.1052217,177.90001,-119.700005,-17.7,x,,,,,
222328,-1.0341892,7.125677,-1.1328828,-0.602138,-17.248585,6.966508,175.5,-124.50001,-18.300001,x,,,,,
222388,0.8248392,7.0048523,-1.2543058,0.81555396,-14.596129,8.003099,165.90001,-141.3,-22.5,x,,,,,
222408,0.9486548,7.4397025,-1.2901944,0.884152,-14.123566,7.6524878,156.3,-141.3,-22.5,x,,,,,
222428,0.9534399,7.9050574,-1.6353229,0.739334,-12.614409,6.166198,151.5,-143.70001,-25.500002,x,,,,,
222451,0.6196761,7.5300217,-2.3118227,1.006104,-10.70891,4.0625257,153.90001,-148.5,-24.300001,x,,,,,
222472,0.80689484,7.3039236,-2.8052905,1.707328,-9.992442,4.123502,139.5,-150.90001,-26.1,x,,,,,
222492,0.87747574,7.3900566,-2.9135544,1.737816,-8.932983,4.817104,144.3,-148.5,-27.300001,x,,,,,
222514,0.9462622,8.368618,-3.8095727,1.783548,-7.309498,5.495462,137.1,-143.70001,-27.900002,x,,,,,
222534,0.7692119,8.1491,-5.119506,2.484772,-5.67839,4.321674,139.5,-150.90001,-26.1,,,,,,
222575,1.506124,9.476379,-3.447696,2.2484899,-6.996996,3.1936178,129.90001,-150.90001,-27.900002,,,,,,
222595,1.2770352,8.705373,-3.7898338,0.91463995,-3.879598,1.471046,125.100006,-148.5,-26.1,,,,,,
222615,1.0700778,8.540285,-4.6541505,1.425314,-2.05794,1.082324,129.90001,-155.70001,-26.1,,,,,,
222637,0.7267437,8.991285,-5.0561028,2.576236,-2.13416,1.3490939,129.90001,-153.3,-25.500002,,,,,,
222657,0.9259253,9.703673,-4.777966,2.09605,-2.507638,1.310984,120.3,-148.5,-24.300001,,,,,,
222717,0.96659905,8.734084,-4.0584,-0.182928,0.022866,-1.288118,127.50001,-148.5,-26.1,,,,,,
222743,0.870298,9.008632,-3.756338,-0.243904,0.83842,-1.417692,127.50001,-146.1,-26.1,,,,,,
222763,0.75784713,8.701784,-3.5128937,-0.56402797,1.6006199,-1.585376,127.50001,-150.90001,-23.1,,,,,,
222803,-0.9755712,7.7728677,-4.521363,0.045732,2.317088,-0.754578,132.3,-148.5,-24.300001,,,,,,
222823,-0.32419348,8.961976,-3.4584627,0.899396,-0.47256398,0.708846,132.3,-148.5,-26.1,,,,,,
222843,-0.05024401,9.137232,-2.9769576,-0.434454,0.754578,0.289636,129.90001,-148.5,-24.900002,,,,,,
222863,-0.1016843,8.896778,-3.1677651,-0.548784,1.25763,0.053354,132.3,-155.70001,-25.500002,,,,,,
222926,0.39477435,9.2377205,-2.9883223,-0.602138,1.516778,0.22865999,132.3,-146.1,-23.7,,,,,,
222946,0.4133168,9.178504,-2.996098,-0.594516,1.501534,-0.11432999,129.90001,-150.90001,-23.1,,,,,,
222986,0.4372425,8.845937,-3.2766273,0.060976,0.388722,0.0,127.50001,-148.5,-26.1,,,,,,
223007,0.4246815,9.3459835,-3.1492229,0.449698,-0.182928,0.289636,129.90001,-155.70001,-24.300001,,,,,,
223027,0.44442022,9.32146,-3.1779337,0.23628199,-0.251526,-0.243904,129.90001,-146.1,-24.900002,,,,,,
223047,0.38939106,9.110315,-3.296366,0.121952,-0.099086,-0.480186,127.50001,-158.1,-24.300001,,,,,,
223069,0.1698726,9.046912,-3.4494905,0.015244,-0.007622,-0.259148,127.50001,-148.5,-25.500002,,,,,,
223089,0.19559275,8.881825,-3.3190954,0.015244,-0.07622,-0.045732,134.70001,-153.3,-23.7,,,,,,
223111,0.2643792,8.88661,-3.0529218,-0.19055,0.083841994,0.160062,127.50001,-148.5,-25.500002,,,,,,
223131,0.41212052,9.179102,-2.8423755,-0.426832,0.312502,0.26677,122.700005,-153.3,-24.900002,,,,,,
223151,0.32778236,9.126466,-2.9021897,-0.868908,0.731712,-0.11432999,125.100006,-153.3,-23.7,,,,,,
223171,0.15192832,8.784925,-2.9626021,-0.884152,0.64787,-0.083841994,127.50001,-153.3,-24.900002,,,,,,
223195,0.17106889,8.810646,-2.9015915,-0.388722,0.312502,0.030488,132.3,-148.5,-25.500002,,,,,,
223215,0.3074455,9.110315,-2.8788621,-0.045732,-0.030488,0.33536798,129.90001,-148.5,-24.900002,,,,,,
223235,0.4007558,9.402209,-2.873479,-0.121952,-0.11432999,0.15244,125.100006,-155.70001,-25.500002,,,,,,
223256,0.36845607,9.191065,-2.8704882,-0.19055,-0.121952,-0.33536798,122.700005,-143.70001,-26.7,,,,,,
223276,0.33316565,8.985902,-2.8932176,-0.083841994,-0.198172,-0.46494198,129.90001,-146.1,-23.1,,,,,,
223298,0.2924919,8.73528,-2.827422,-0.121952,-0.15244,-0.35061198,122.700005,-155.70001,-24.300001,,,,,,
223318,0.20097604,9.039735,-2.974565,-0.19055,0.007622,-0.015244,129.90001,-153.3,-24.300001,,,,,,
223338,0.16867632,9.152185,-3.032585,-0.106708,-0.182928,-0.312502,129.90001,-153.3,-26.7,,,,,,
223400,0.59275967,9.028968,-3.0553143,-0.297258,-0.327746,-0.640248,129.90001,-150.90001,-23.7,,,,,,
223420,0.803306,9.058875,-3.1181192,-0.7622,-0.060976,-1.265252,132.3,-148.5,-25.500002,,,,,,
223444,0.6687238,8.607277,-3.1133342,-0.93750596,0.083841994,-1.775926,134.70001,-150.90001,-24.900002,,,,,,
223464,0.55328226,8.315982,-3.2646644,-1.02897,0.182928,-1.768304,132.3,-148.5,-24.900002,x,,,,,
223484,0.66453683,8.129959,-3.2084389,-0.91463995,0.068598,-1.310984,134.70001,-146.1,-23.7,x,,,,,
223504,1.0270115,8.740065,-3.2204018,-1.006104,0.396344,-0.907018,129.90001,-150.90001,-25.500002,x,,,,,
223528,1.0485446,8.722121,-3.732412,-1.455802,1.1356779,-1.577754,137.1,-148.5,-26.1,x,,,,,
223549,1.3290737,8.778346,-3.8729758,-1.554888,1.250008,-1.768304,139.5,-150.90001,-26.1,x,,,,,
223570,1.1496308,8.530117,-4.3867807,-1.821658,2.195136,-2.2637339,137.1,-148.5,-26.1,x,,,,,
223590,1.0963961,8.070145,-5.0405507,-1.036592,2.7820299,-2.416174,132.3,-143.70001,-28.500002,x,,,,,
223611,1.070676,8.06536,-5.270238,-0.960372,3.330814,-2.2484899,139.5,-141.3,-27.900002,x,,,,,
223631,1.1436493,8.89618,-6.2787066,0.068598,5.205826,-1.570132,144.3,-146.1,-25.500002,x,,,,,
223651,0.9654028,9.975828,-5.523252,-0.137196,4.275942,-1.806414,137.1,-141.3,-22.5,x,,,,,
223671,1.0533298,9.459631,-4.7378902,-0.754578,6.501566,-3.1936178,149.1,-141.3,-23.7,x,,,,,
223711,0.5891708,8.562417,-3.176139,-0.160062,9.824758,-7.644866,146.70001,-141.3,-21.900002,x,,,,,
223734,-0.006579573,6.6316113,-3.0236127,1.196654,13.437586,-10.358297,161.1,-136.5,-20.1,x,,,,,
223754,-0.5790024,5.7547336,-2.083332,2.408552,14.847655,-10.236346,170.70001,-136.5,-18.900002,x,,,,,
223777,0.2548089,5.5567484,-1.351205,2.51526,15.670832,-10.015307,168.3,-126.9,-17.7,x,,,,,
223797,1.150229,6.066964,-0.44920537,1.730194,17.972675,-8.795788,175.5,-119.700005,-15.3,x,,,,,
223817,0.12561002,6.8349795,-1.409823,-0.853664,22.888866,-8.551884,175.5,-117.3,-14.1,x,,,,,
223838,-0.63283527,7.1531916,-3.4907625,-0.846042,24.687658,-9.077802,173.1,-117.3,-12.900001,x,,,,,
223859,-0.58797455,8.695803,-2.8471606,0.243904,19.8172,-8.239382,175.5,-110.100006,-9.900001,x,,,,,
223879,-2.6073053,9.704869,-2.8639085,-1.166166,20.175434,-8.780544,173.1,-117.3,-8.700001,x,,,,,
223901,-4.129579,9.499108,-3.7204492,-1.089946,18.292799,-9.024447,173.1,-110.100006,-5.7000003,x,,,,,
223921,-5.157787,11.334809,-3.8681905,0.099086,13.955882,-7.6067557,175.5,-105.3,-3.3000002,x,,,,,
223942,-7.2189875,15.024754,-3.9842303,-0.67835796,7.157058,-5.076252,175.5,-102.9,-4.5,x,,,,,
223962,-7.9756384,15.4578085,-3.7742822,-1.425314,2.93447,-4.413138,180.3,-98.100006,-3.9,x,,,,,
223982,-8.664101,12.501188,-4.9298944,-1.29574,-1.745438,-2.55337,177.90001,-100.50001,-2.7,x,,,,,
224002,-7.5611253,13.498292,-5.013634,-1.204276,-9.016826,3.147886,173.1,-98.100006,-3.9,x,,,,,
224025,-5.653049,13.777625,-4.2222915,-2.507638,-14.497044,7.218034,180.3,-105.3,-4.5,x,,,,,
224045,-3.6504664,12.828372,-3.2168128,-3.330814,-18.094627,8.635726,182.70001,-105.3,-6.9,x,,,,,
224067,-2.9386764,10.975924,-2.1598942,-4.108258,-19.824821,8.894874,185.1,-107.700005,-9.900001,x,,,,,
224129,-0.9564306,7.3792896,-1.3183072,-0.60976,-22.972708,8.72719,170.70001,-124.50001,-20.7,x,,,,,
224150,-0.8798683,7.120294,-1.3775233,-0.998482,-21.516905,8.315601,177.90001,-129.3,-21.300001,x,,,,,
224210,-0.8511574,6.614265,-2.0827339,-0.388722,-14.413201,5.655524,168.3,-134.1,-26.1,x,,,,,
224248,0.18123733,6.681257,-2.1766422,0.17530599,-11.2195835,5.061008,158.70001,-138.90001,-29.1,x,,,,,
224268,0.2936882,7.0389466,-1.7806716,0.26677,-8.887252,5.22107,158.70001,-141.3,-28.500002,x,,,,,
224310,1.2202116,9.56969,-3.3238804,1.730194,-5.60217,3.7119138,153.90001,-143.70001,-29.1,x,,,,,
224330,1.1574067,9.458435,-2.903984,1.310984,-4.83997,1.310984,139.5,-148.5,-28.500002,x,,,,,
224350,0.7901469,8.246597,-3.6175687,0.81555396,-2.7820299,-0.243904,149.1,-148.5,-29.7,x,,,,,
224370,0.5221788,7.7136517,-4.417884,2.347576,-2.2561119,0.060976,146.70001,-146.1,-29.1,x,,,,,
224393,0.8720924,9.189869,-3.9734638,3.2927039,-3.132642,1.3872039,149.1,-146.1,-27.900002,x,,,,,
224413,0.8589333,10.027268,-3.5445952,2.492394,-1.8369019,0.663114,149.1,-143.70001,-27.900002,x,,,,,
224433,0.36725977,9.511669,-3.5954373,1.196654,0.121952,-0.716468,149.1,-148.5,-27.900002,x,,,,,
224455,-0.27634206,8.415274,-4.2187023,0.586894,1.775926,-1.250008,149.1,-143.70001,-26.7,x,,,,,
224496,-0.43185923,9.18927,-4.634412,2.530504,0.907018,0.81555396,146.70001,-146.1,-26.7,x,,,,,
224516,-0.23507018,9.963865,-4.0524187,1.9054999,1.272874,0.739334,151.5,-146.1,-26.7,x,,,,,
224536,-0.24045348,9.228149,-4.073354,0.594516,2.347576,0.35061198,146.70001,-143.70001,-26.1,x,,,,,
224559,-0.06579573,9.067847,-3.8891256,0.198172,2.416174,0.69360197,146.70001,-146.1,-26.1,x,,,,,
224579,0.05084215,8.822609,-3.7437768,0.15244,2.126538,0.92988396,144.3,-141.3,-26.1,x,,,,,
224599,0.06459944,9.067847,-3.6749904,-0.03811,1.722572,1.1356779,141.90001,-146.1,-25.500002,x,,,,,
224619,-0.08792701,9.223365,-3.5655303,-0.28201398,1.1051899,0.617382,139.5,-148.5,-24.300001,x,,,,,
224639,0.061010584,8.878835,-3.2730384,-0.320124,0.358234,-0.297258,141.90001,-141.3,-26.1,x,,,,,
224663,0.01614986,8.547463,-2.9733686,-0.47256398,0.327746,-0.541162,144.3,-146.1,-24.900002,x,,,,,
224723,-0.29727706,8.473293,-3.0900066,-0.541162,0.967994,-0.129574,139.5,-146.1,-23.7,,,,,,
224744,-0.31163248,8.515761,-3.1235025,-0.35061198,0.632626,0.541162,146.70001,-138.90001,-24.300001,,,,,,
224764,-0.15551718,8.880031,-3.0463421,-0.243904,0.243904,1.150922,141.90001,-148.5,-25.500002,,,,,,
224784,0.031103434,9.131848,-3.040959,-0.426832,0.106708,1.272874,141.90001,-146.1,-25.500002,,,,,,
224804,0.2715569,9.207813,-2.9356856,-0.320124,0.045732,0.998482,137.1,-146.1,-24.900002,,,,,,
224824,0.3588858,9.220972,-2.9015915,-0.198172,0.20579399,0.625004,137.1,-153.3,-23.7,,,,,,
224844,0.2978752,9.223963,-2.9506392,-0.160062,0.17530599,0.426832,141.90001,-146.1,-24.900002,,,,,,
224865,0.27095875,9.253272,-3.0032759,-0.106708,0.15244,0.373478,137.1,-150.90001,-23.7,,,,,,
224905,0.13278773,9.330432,-2.950041,-0.137196,-0.03811,0.060976,146.70001,-141.3,-24.900002,,,,,,
224925,0.0723753,8.953602,-3.0050702,-0.41921,0.015244,-0.015244,137.1,-148.5,-26.1,,,,,,
224986,-0.085534446,8.769374,-3.0929973,0.030488,-0.907018,0.7622,141.90001,-150.90001,-25.500002,,,,,,
225025,0.19439647,9.23114,-2.9291062,-0.35061198,-0.487808,0.30488,132.3,-146.1,-24.300001,,,,,,
225046,0.11663788,9.043921,-2.9303024,-0.327746,-0.510674,0.251526,129.90001,-146.1,-24.900002,,,,,,
225088,0.21054633,9.022986,-2.9530318,0.0,-0.49543,0.22865999,127.50001,-146.1,-24.900002,,,,,,
225169,0.4384388,8.964369,-2.8555346,-0.40396598,-0.83842,0.15244,132.3,-141.3,-26.7,,,,,,
225208,0.8589333,8.949415,-2.7442799,-0.17530599,-0.81555396,-0.083841994,132.3,-155.70001,-25.500002,,,,,,
225228,0.9935155,8.9679575,-2.6916435,-0.396344,-0.137196,-0.11432999,134.70001,-150.90001,-24.900002,,,,,,
225268,0.49526238,9.156373,-3.2431312,-0.129574,0.503052,-0.510674,137.1,-150.90001,-24.900002,,,,,,
225290,0.4581775,9.296338,-3.1354654,-0.030488,0.0,-0.617382,134.70001,-148.5,-25.500002,x,,,,,
225310,0.46236452,9.34718,-3.3382359,-0.251526,0.17530599,-0.72409,137.1,-150.90001,-25.500002,x,,,,,
225334,0.15192832,9.022388,-3.6492703,-0.67073596,0.487808,-1.059458,137.1,-150.90001,-24.300001,x,,,,,
225355,-0.07476787,7.950516,-4.543494,-0.731712,1.6463519,-2.073184,134.70001,-146.1,-27.300001,x,,,,,
225418,1.4630578,8.962574,-6.2523885,0.67073596,2.6981878,0.80793196,134.70001,-150.90001,-24.300001,x,,,,,
225448,2.104267,9.511071,-5.857016,0.731712,4.275942,-0.746956,132.3,-146.1,-24.300001,x,,,,,
225468,2.1060615,8.652138,-5.0004754,0.56402797,5.975648,-2.484772,129.90001,-143.70001,-22.5,x,,,,,
225509,1.9218334,6.942047,-3.477005,1.1051899,10.160126,-4.702774,144.3,-148.5,-23.1,x,,,,,
225529,1.8500562,5.977243,-2.9183395,1.013726,12.88118,-6.6006517,141.90001,-143.70001,-21.900002,x,,,,,
225571,1.7322221,5.468821,-2.5510798,1.280496,17.591576,-9.710428,149.1,-136.5,-18.900002,x,,,,,
225591,0.8780739,5.0387564,-2.8298144,1.3719599,19.489454,-10.6708,153.90001,-129.3,-14.1,x,,,,,
225611,0.086132586,5.730808,-2.9751632,1.501534,19.580917,-10.480249,156.3,-124.50001,-14.1,x,,,,,
225631,-0.39417621,7.243511,-2.7030082,1.318606,19.062622,-10.2897,158.70001,-124.50001,-11.700001,x,,,,,
225651,-0.6011337,9.074427,-2.4063292,0.594516,18.468105,-10.51836,156.3,-117.3,-10.5,x,,,,,
225671,-1.4187951,9.868761,-1.5946492,-0.327746,18.094627,-11.829344,161.1,-117.3,-9.3,x,,,,,
225691,-3.0224164,9.692906,-2.7867482,-1.204276,19.832443,-12.484836,163.5,-112.50001,-5.1000004,x,,,,,
225715,-5.3856792,10.765377,-4.195973,0.015244,14.474177,-9.314084,168.3,-105.3,-4.5,x,,,,,
225735,-5.21162,12.386345,-3.7336085,0.388722,8.567128,-6.875044,175.5,-105.3,-2.1000001,x,,,,,
225755,-6.8212223,13.504273,-4.371827,0.26677,6.272906,-5.190582,168.3,-98.100006,-3.9,x,,,,,
225775,-7.9732456,15.310067,-6.4431963,0.487808,1.417692,-2.393308,170.70001,-95.700005,-3.3000002,x,,,,,
225795,-7.3410087,15.734151,-5.6697974,-0.94512796,-7.682976,-0.92226195,175.5,-95.700005,-2.7,x,,,,,
225818,-6.8373723,14.297412,-5.011242,-2.942092,-11.593061,1.684462,182.70001,-102.9,-6.3,x,,,,,
225838,-6.145321,13.476161,-4.68645,-4.679908,-15.068694,5.213448,180.3,-102.9,-6.9,x,,,,,
225859,-4.6236453,12.856485,-3.299955,-5.769854,-18.841583,7.538158,180.3,-107.700005,-10.5,x,,,,,
225879,-3.626541,10.949007,-1.9726756,-6.623518,-20.08397,8.018344,182.70001,-110.100006,-11.700001,x,,,,,
225899,-2.6593437,9.350171,-1.4325525,-6.0442457,-19.504698,8.003099,182.70001,-119.700005,-15.3,x,,,,,
225919,-2.372235,7.906254,-1.2040617,-4.489358,-18.894938,7.4695597,182.70001,-126.9,-16.5,x,,,,,
225942,-1.9068798,6.67707,-1.6149861,-1.8445239,-17.60682,7.713464,180.3,-122.100006,-22.5,x,,,,,
225962,-1.5085166,6.773969,-1.5097128,-0.891774,-16.95895,7.614378,177.90001,-131.70001,-24.300001,x,,,,,
225982,-1.4445152,6.3205767,-2.1527166,-0.541162,-15.228756,6.768336,175.5,-141.3,-23.7,x,,,,,
226006,-1.0030857,6.196163,-2.4045348,0.45731997,-14.344604,6.1052217,170.70001,-131.70001,-26.1,x,,,,,
226027,-0.57840425,6.931879,-2.476312,0.640248,-13.429964,6.5396757,165.90001,-138.90001,-27.900002,x,,,,,
226047,0.07117901,7.7710733,-2.485284,0.099086,-12.00465,6.4177237,170.70001,-138.90001,-26.7,x,,,,,
226107,0.52696395,7.170538,-2.5720148,0.07622,-6.295772,4.893324,149.1,-148.5,-30.900002,x,,,,,
226129,0.72794,8.022892,-2.3883848,0.69360197,-5.9070497,4.809482,141.90001,-148.5,-27.900002,x,,,,,
226169,0.89542,8.406899,-3.6032133,2.599102,-2.85825,1.173788,134.70001,-155.70001,-29.7,x,,,,,
226189,1.0234226,8.473293,-3.8059838,3.1859958,-2.62959,1.051836,139.5,-150.90001,-28.500002,x,,,,,
226209,1.3105313,9.289759,-3.7461693,3.12502,-2.2027578,1.440558,137.1,-150.90001,-30.900002,x,,,,,
226229,1.4038415,9.822105,-3.6504664,2.423796,-0.72409,0.663114,129.90001,-143.70001,-30.300001,x,,,,,
226251,0.9660009,8.795692,-4.0183244,1.29574,1.3872039,-0.67835796,137.1,-148.5,-29.7,x,,,,,
226271,0.7997171,8.621035,-4.0978775,1.71495,1.547266,-0.541162,137.1,-146.1,-28.500002,,,,,,
226291,0.6681257,8.565408,-4.216908,1.8750119,1.6082419,-0.060976,137.1,-148.5,-26.1,,,,,,
226333,0.7339214,9.304712,-3.8675923,1.3567159,1.3643379,0.259148,137.1,-148.5,-28.500002,,,,,,
226353,0.6250594,9.456042,-3.606204,0.93750596,1.3414719,-0.053354,141.90001,-146.1,-27.900002,,,,,,
226373,0.5957504,8.987697,-3.280216,0.46494198,1.3414719,-0.40396598,137.1,-146.1,-26.1,,,,,,
226393,0.5538804,8.855507,-2.9590132,0.11432999,1.4024479,-0.388722,141.90001,-150.90001,-26.7,,,,,,
226417,0.48509395,8.567202,-2.8854418,-0.19055,1.6463519,-0.731712,137.1,-143.70001,-25.500002,,,,,,
226437,0.40135393,8.451162,-2.8591235,0.106708,1.532022,-0.80030996,134.70001,-148.5,-25.500002,,,,,,
226457,0.17166704,8.337515,-2.857927,0.373478,1.3490939,-0.632626,132.3,-148.5,-26.1,,,,,,
226478,0.01614986,8.545071,-2.9105637,0.487808,1.204276,-0.053354,132.3,-146.1,-24.900002,,,,,,
226498,0.06041244,9.100745,-2.8926194,0.541162,1.1128119,0.129574,134.70001,-150.90001,-24.900002,,,,,,
226520,0.2087519,9.134839,-3.033183,0.297258,1.463424,-0.083841994,129.90001,-146.1,-24.300001,,,,,,
226540,0.16688189,9.225758,-3.0864177,0.396344,1.532022,0.15244,134.70001,-143.70001,-23.7,,,,,,
226562,0.19559275,9.189869,-3.129484,0.35061198,1.425314,0.26677,132.3,-146.1,-24.300001,,,,,,
226582,0.2673699,9.331629,-3.1773355,0.251526,1.272874,0.487808,132.3,-146.1,-24.300001,,,,,,
226602,0.26557547,9.209009,-3.2144203,0.091464,1.059458,0.30488,137.1,-148.5,-23.7,,,,,,
226622,0.21174261,9.27002,-3.2604773,0.0,0.716468,0.358234,129.90001,-148.5,-23.7,,,,,,
226644,0.33615634,9.076221,-3.2706459,-0.045732,0.259148,0.22865999,129.90001,-150.90001,-22.5,,,,,,
226664,0.30983806,9.136634,-3.1803262,-0.16768399,-0.022866,0.30488,132.3,-148.5,-23.1,,,,,,
226684,0.2853142,9.322657,-3.229374,-0.26677,-0.11432999,0.15244,132.3,-138.90001,-23.1,,,,,,
226704,0.2003779,9.055884,-3.1205118,-0.35061198,-0.251526,-0.274392,139.5,-150.90001,-23.7,,,,,,
226728,0.22789247,9.048109,-3.0194256,-0.41921,-0.129574,-0.243904,134.70001,-148.5,-23.7,,,,,,
226748,0.16448931,9.203028,-3.1025677,-0.594516,0.07622,-0.083841994,137.1,-146.1,-24.900002,,,,,,
226768,-0.08792701,8.810048,-3.2162147,-0.83842,0.20579399,-0.19055,129.90001,-153.3,-23.7,,,,,,
226828,0.0891233,8.879433,-3.2658606,-0.19055,-0.007622,0.541162,132.3,-148.5,-23.1,,,,,,
226848,0.33196935,9.249683,-3.109147,-0.068598,-0.030488,0.69360197,134.70001,-146.1,-24.300001,,,,,,
226868,0.34572664,9.201233,-3.1408486,-0.365856,0.33536798,0.41158798,129.90001,-153.3,-22.5,,,,,,
226888,0.32060462,8.874647,-3.0941937,-0.373478,0.426832,0.22865999,127.50001,-150.90001,-22.5,,,,,,
226908,0.31402507,8.672475,-3.0260053,-0.28201398,0.487808,0.251526,127.50001,-150.90001,-24.300001,,,,,,
226931,0.27634206,8.887806,-3.1115398,-0.07622,0.45731997,0.26677,134.70001,-148.5,-24.900002,,,,,,
226951,0.3074455,9.175513,-3.1528115,0.03811,0.28201398,0.022866,132.3,-153.3,-23.1,,,,,,
226973,0.27514577,9.165943,-3.1432414,-0.11432999,0.022866,-0.198172,129.90001,-148.5,-24.300001,,,,,,
226993,0.23088318,9.003846,-3.1133342,-0.22865999,-0.11432999,-0.3811,127.50001,-146.1,-24.900002,,,,,,
227013,0.24164976,8.714345,-3.1055584,-0.28201398,-0.30488,-0.480186,127.50001,-153.3,-23.7,,,,,,
227033,0.3020622,8.874647,-3.2275794,-0.182928,-0.518296,-0.045732,134.70001,-150.90001,-23.1,,,,,,
227055,0.47851437,9.222767,-3.1791298,-0.251526,-0.785066,0.30488,134.70001,-141.3,-23.1,,,,,,
227075,0.46714967,9.105531,-3.1300821,-0.358234,-0.80793196,0.182928,127.50001,-150.90001,-22.5,,,,,,
227095,0.72853816,8.81902,-2.9847333,-0.56402797,-0.731712,-0.045732,127.50001,-141.3,-23.7,,,,,,
227119,0.90558845,9.111512,-3.222196,-1.097568,-0.045732,-0.106708,132.3,-150.90001,-25.500002,x,,,,,
227139,1.1364716,8.911732,-3.4333405,-1.471046,0.56402797,-0.548784,127.50001,-150.90001,-25.500002,x,,,,,
227159,1.1388642,9.283777,-4.216908,-2.469528,1.8826339,-0.53354,127.50001,-146.1,-26.1,x,,,,,
227179,0.79553014,8.623427,-5.381492,-3.84911,3.54423,-1.775926,129.90001,-148.5,-26.1,x,,,,,
227201,1.2291838,7.9798255,-6.3869705,-3.612828,2.560992,-2.2332458,127.50001,-148.5,-26.1,x,,,,,
227221,1.5079185,7.275811,-5.911447,-3.536608,1.074702,-2.195136,134.70001,-146.1,-27.900002,x,,,,,
227241,2.342926,8.418862,-5.8761563,-2.576236,1.547266,-1.227142,137.1,-148.5,-25.500002,x,,,,,
227261,2.8052905,9.337011,-4.7456665,-2.492394,2.7896519,-1.94361,134.70001,-146.1,-27.300001,x,,,,,
227281,2.459564,8.191568,-4.285096,-3.3155699,6.280528,-3.483254,144.3,-146.1,-27.900002,x,,,,,
227301,1.6951371,6.446187,-3.731216,-3.361302,9.093046,-4.0320377,139.5,-155.70001,-27.900002,x,,,,,
227321,1.0658908,6.066366,-3.1019695,-2.7439198,11.173852,-3.986306,144.3,-146.1,-26.7,x,,,,,
227341,0.48449582,5.732004,-2.7137747,-2.035074,13.109839,-4.832348,146.70001,-143.70001,-26.7,x,,,,,
227365,0.05682358,5.434727,-1.4068322,-0.868908,14.093078,-7.187546,153.90001,-141.3,-24.900002,x,,,,,
227426,-0.37324122,7.774064,-1.7830642,3.109776,19.70287,-8.704324,161.1,-136.5,-20.1,x,,,,,
227446,-0.16389118,11.313276,-1.3500087,0.746956,17.64493,-7.3476076,165.90001,-129.3,-15.900001,x,,,,,
227468,-1.4833946,9.385462,-0.5167955,-0.106708,17.850723,-10.160126,170.70001,-131.70001,-16.5,x,,,,,
227489,-3.4297519,9.298731,-1.7507645,0.617382,20.861414,-8.856764,170.70001,-126.9,-14.700001,x,,,,,
227509,-5.267845,13.135818,-3.9716694,1.3567159,17.279074,-5.823208,165.90001,-124.50001,-11.700001,x,,,,,
227529,-5.768491,15.40577,-3.7545435,0.53354,9.131156,-5.4421077,165.90001,-114.9,-12.3,x,,,,,
227549,-5.044738,15.630672,-2.8268237,0.35061198,4.489358,-4.8857017,173.1,-119.700005,-8.700001,x,,,,,
227569,-5.569309,16.792265,-3.1013713,-0.846042,1.3795819,-3.2088618,175.5,-117.3,-9.900001,x,,,,,
227589,-6.5729933,15.239487,-3.3370397,-0.846042,-2.301844,-3.483254,177.90001,-117.3,-9.900001,x,,,,,
227609,-6.291268,13.772242,-2.9374802,-1.3490939,-6.455834,-1.33385,185.1,-110.100006,-11.1,x,,,,,
227633,-5.26306,12.588517,-1.7764846,-2.080806,-10.480249,3.6738038,182.70001,-114.9,-12.3,x,,,,,
227674,-3.8203392,8.2663355,-1.7770828,-2.2637339,-14.146432,6.676872,175.5,-117.3,-16.5,x,,,,,
227694,-2.8549364,6.9241033,-1.5587605,-0.594516,-16.669313,8.666214,177.90001,-124.50001,-18.900002,x,,,,,
227715,-1.4774132,6.739875,-1.1101533,0.34298998,-17.583954,9.992442,177.90001,-126.9,-20.7,x,,,,,
227735,-0.794932,6.8834295,-1.6544634,0.56402797,-16.608337,10.503116,168.3,-134.1,-21.900002,x,,,,,
227755,-0.50602895,7.3021293,-2.0217233,0.69360197,-16.326324,9.885734,165.90001,-136.5,-20.7,x,,,,,
227775,0.022729432,7.68195,-1.6999223,0.853664,-16.433031,9.192132,158.70001,-138.90001,-23.1,x,,,,,
227795,0.69085515,8.508584,-1.1310884,-0.144818,-15.32022,8.109808,156.3,-141.3,-25.500002,x,,,,,
227838,0.3188102,7.790812,-1.5557699,-1.4024479,-9.664696,5.152472,144.3,-141.3,-26.1,x,,,,,
227859,-0.11962859,7.6753707,-2.2603822,-0.83842,-7.9192576,4.733262,146.70001,-148.5,-26.1,x,,,,,
227879,0.30086592,8.685634,-2.279523,0.16768399,-8.452798,4.565578,139.5,-148.5,-30.300001,x,,,,,
227900,0.55507666,8.990088,-2.16767,0.099086,-8.23176,4.1921,144.3,-148.5,-28.500002,x,,,,,
227920,0.67470527,8.988893,-2.24184,-0.068598,-6.684494,2.568614,132.3,-150.90001,-30.900002,x,,,,,
227943,0.5287584,8.443386,-2.6174736,0.899396,-5.60217,0.846042,132.3,-160.5,-29.7,x,,,,,
227963,0.47372922,7.9870033,-2.857927,1.3948259,-4.580822,0.16768399,127.50001,-153.3,-28.500002,x,,,,,
227985,0.35110992,7.664604,-3.3119175,1.814036,-3.7042918,0.23628199,137.1,-153.3,-28.500002,x,,,,,
228005,0.5568711,8.433218,-3.1031656,2.332332,-3.50612,0.95274997,134.70001,-150.90001,-29.7,x,,,,,
228028,0.64898515,8.492434,-3.3316565,2.13416,-1.6539739,0.320124,127.50001,-158.1,-29.7,x,,,,,
228049,0.68128484,8.510378,-3.8568258,2.545748,-0.53354,-0.045732,127.50001,-150.90001,-29.7,x,,,,,
228089,0.9785619,9.19585,-4.848547,3.7042918,-0.426832,0.45731997,127.50001,-155.70001,-28.500002,,,,,,
228110,1.3392421,9.509277,-4.320387,2.149404,0.083841994,-0.198172,132.3,-150.90001,-27.900002,,,,,,
228130,1.3488123,9.523632,-4.1726456,1.326228,0.792688,-0.106708,132.3,-143.70001,-27.300001,,,,,,
228150,1.1418549,9.409986,-4.0715594,0.586894,1.6234859,-0.19055,127.50001,-155.70001,-26.7,,,,,,
228172,0.98095447,9.25387,-3.8765645,0.106708,2.065562,-0.22865999,134.70001,-146.1,-23.7,,,,,,
228192,0.8517556,9.176111,-3.6038115,-0.099086,2.111294,-0.320124,127.50001,-143.70001,-24.900002,,,,,,
228212,0.6292464,8.80287,-3.593643,-0.40396598,2.157026,-0.69360197,127.50001,-148.5,-26.1,,,,,,
228232,0.35290435,8.573183,-3.5152862,0.099086,1.44818,-0.655492,129.90001,-153.3,-25.500002,,,,,,
228275,0.33017492,8.934462,-2.9237227,0.060976,0.55640596,-0.060976,132.3,-150.90001,-24.900002,,,,,,
228335,0.32060462,8.911732,-2.9955,-0.030488,0.99086,0.274392,127.50001,-148.5,-25.500002,,,,,,
228355,0.24583676,8.85431,-3.0230145,-0.091464,0.92988396,0.289636,132.3,-141.3,-23.7,,,,,,
228375,0.35589507,8.915919,-3.0062666,-0.129574,0.7622,0.388722,125.100006,-146.1,-23.7,,,,,,
228395,0.3648672,8.768178,-3.016435,-0.20579399,0.69360197,0.23628199,127.50001,-155.70001,-24.300001,,,,,,
228415,0.3188102,8.932069,-3.0923991,-0.091464,0.518296,0.297258,127.50001,-153.3,-24.300001,,,,,,
228435,0.40613908,9.073231,-3.1575968,-0.03811,0.26677,0.053354,129.90001,-150.90001,-24.300001,,,,,,
228455,0.46296266,9.053492,-3.0098555,0.030488,-0.015244,-0.19055,125.100006,-141.3,-23.7,,,,,,
228475,0.49466425,9.035547,-2.9171433,0.060976,0.091464,-0.602138,132.3,-150.90001,-25.500002,,,,,,
228495,0.42527965,9.032557,-3.1241007,0.30488,0.30488,-1.036592,125.100006,-150.90001,-24.900002,,,,,,
228516,0.3714468,8.907545,-3.1863077,0.739334,0.289636,-1.006104,125.100006,-146.1,-26.1,,,,,,
228536,0.21114446,9.293945,-3.2497108,0.663114,0.259148,-0.503052,134.70001,-148.5,-23.7,,,,,,
228558,-0.049047723,9.0511,-3.3394322,0.35061198,0.26677,-0.121952,127.50001,-146.1,-25.500002,,,,,,
228600,-0.093310304,9.250281,-3.3645542,-0.07622,-0.068598,-0.07622,132.3,-146.1,-22.5,,,,,,
228630,-0.0891233,9.00265,-3.241935,-0.373478,-0.3811,-0.106708,132.3,-146.1,-20.7,,,,,,
228670,0.21353704,8.942836,-3.0020795,-0.3811,-0.49543,0.129574,129.90001,-146.1,-21.900002,,,,,,
228714,0.20217232,8.87704,-3.1575968,-0.40396598,0.068598,-0.099086,134.70001,-148.5,-21.300001,,,,,,
228806,0.31223062,8.545669,-3.058305,0.160062,0.198172,-0.312502,134.70001,-148.5,-24.300001,,,,,,
228826,0.41032606,8.833974,-2.9907148,0.20579399,0.106708,0.060976,134.70001,-146.1,-24.300001,,,,,,
228866,0.37623194,8.800478,-3.0983806,-0.23628199,0.46494198,-0.396344,129.90001,-146.1,-24.300001,,,,,,
228909,1.192697,9.209607,-3.2742345,-0.846042,0.716468,-0.93750596,127.50001,-146.1,-23.7,,,,,,
228929,0.790745,8.438003,-3.908266,-2.195136,2.103672,-1.768304,129.90001,-146.1,-22.5,,,,,,
228949,0.32658607,7.160968,-5.3234725,-0.967994,3.986306,-2.522882,137.1,-148.5,-23.7,,,,,,
228989,2.0522285,8.934462,-6.162069,0.94512796,1.211898,1.044214,132.3,-143.70001,-22.5,x,,,,,
229009,3.0870159,9.618737,-6.116012,0.777444,3.3003259,0.045732,132.3,-146.1,-23.1,x,,,,,
229049,5.008849,9.336413,-5.0214105,1.684462,9.009204,-3.551852,127.50001,-148.5,-18.300001,x,,,,,
229069,5.1027575,8.052799,-4.5739994,0.80793196,14.588508,-7.896392,137.1,-141.3,-20.7,x,,,,,
229089,4.346705,6.7667913,-4.599121,0.022866,19.390368,-11.01379,144.3,-138.90001,-17.7,x,,,,,
