time,sensor_accX,sensor_accY,sensor_accZ,sensor_gyroX,sensor_gyroY,sensor_gyroZ,sensor_magX,sensor_magY,sensor_magZ,label_Boxing_slip_left,label_Boxing_slip_right,label_Boxing_pullback,label_Boxing_roll_left,label_Boxing_roll_right,label_Boxing_recording_cut
1029929,4.9370723,10.173814,-2.9063766,0.983238,-1.33385,0.525918,41.100002,-170.1,-30.300001,,,,,,
1029950,5.2223864,10.396323,-2.7030082,-0.53354,-0.708846,-0.28201398,43.5,-172.5,-30.900002,,,,,,
1029970,4.63501,9.203626,-2.5014338,-1.318606,-0.67835796,-0.327746,41.100002,-170.1,-28.500002,,,,,,
1029990,4.2952647,8.499014,-2.4374325,-1.48629,-0.541162,-0.259148,45.9,-174.90001,-29.1,,,,,,
1030050,3.8119652,8.361441,-1.6329303,-0.99086,-1.21952,-1.463424,36.300003,-174.90001,-30.900002,,,,,,
1030070,3.5577543,8.342898,-1.5109092,-1.036592,-1.074702,-1.974098,45.9,-174.90001,-30.900002,,,,,,
1030154,1.6963334,9.421948,-1.6413043,-1.1204339,-0.69360197,-2.942092,55.500004,-172.5,-29.7,,,,,,
1030177,0.669322,9.917211,-1.7962234,-0.739334,-0.365856,-2.660078,62.7,-167.70001,-32.100002,,,,,,
1030197,0.44501838,10.602682,-2.07436,-0.92226195,-0.434454,-2.339954,60.300003,-174.90001,-30.900002,,,,,,
1030239,-0.23985533,9.83347,-1.7352128,-1.006104,-0.746956,-2.01983,69.9,-167.70001,-32.7,,,,,,
1030259,0.11065645,10.536886,-1.6550616,-1.211898,-0.731712,-1.585376,72.3,-172.5,-31.500002,,,,,,
1030300,0.031701576,10.042821,-1.6508746,-1.196654,-0.617382,-1.5244,74.700005,-174.90001,-31.500002,,,,,,
1030360,0.6310408,9.277796,-1.6430987,-0.213416,-1.1432999,0.22865999,77.100006,-167.70001,-32.100002,,,,,,
1030380,0.7751933,9.29574,-1.6556598,-0.22865999,-1.189032,0.144818,77.100006,-165.3,-30.900002,,,,,,
1030420,0.95942134,9.082203,-1.602425,-0.297258,-1.234764,-0.221038,81.9,-172.5,-33.300003,,,,,,
1030440,0.8876442,9.08639,-1.6801836,-0.26677,-1.18141,-0.160062,77.100006,-170.1,-32.7,,,,,,
1030480,0.72076225,9.524829,-1.7214555,-0.434454,-1.1280559,-0.289636,81.9,-165.3,-34.5,,,,,,
1030504,0.7524639,10.13314,-1.6490802,-0.312502,-1.166166,-0.3811,77.100006,-167.70001,-32.7,,,,,,
1030524,0.74528617,9.944725,-1.5796956,-0.80793196,-0.975616,-1.1051899,74.700005,-170.1,-33.9,,,,,,
1030564,0.71657526,9.332227,-1.3410366,-0.80030996,-0.487808,-0.373478,77.100006,-165.3,-33.9,,,,,,
1030601,0.79373574,9.4859495,-1.305148,-0.769822,0.053354,0.083841994,77.100006,-165.3,-34.5,,,,,,
1030621,0.75665087,9.558325,-1.2937832,-0.548784,0.198172,0.19055,79.5,-170.1,-35.100002,,,,,,
1030663,0.6005356,9.537988,-1.4618614,-0.068598,0.327746,0.15244,77.100006,-172.5,-32.7,,,,,,
1030684,0.4426258,9.149793,-1.472628,0.129574,0.26677,0.11432999,79.5,-165.3,-33.9,,,,,,
1030704,0.39417621,8.87704,-1.5515828,0.3811,0.099086,0.396344,77.100006,-165.3,-33.300003,,,,,,
1030727,0.9354956,9.472192,-1.3500087,0.373478,0.015244,1.173788,77.100006,-182.1,-33.9,,,,,,
1030787,1.2172209,9.654626,-1.2650723,0.007622,0.64787,1.501534,67.5,-170.1,-33.300003,,,,,,
1030808,1.1633881,9.439893,-1.3691492,-0.449698,0.967994,1.06708,72.3,-174.90001,-32.7,,,,,,
1030828,1.0682833,9.214393,-1.5138998,-0.289636,1.021348,0.907018,67.5,-172.5,-32.7,,,,,,
1030848,1.1071626,9.217383,-1.6042194,0.015244,0.7622,0.830798,65.100006,-167.70001,-33.9,,,,,,
1030868,1.3619715,9.686327,-1.6389117,0.426832,0.56402797,0.846042,65.100006,-174.90001,-32.7,,,,,,
1030981,1.3667567,9.186878,-1.8028029,0.67835796,0.373478,-0.40396598,65.100006,-170.1,-33.9,,,,,,
1031016,1.7059038,8.5678,-1.9427683,-0.17530599,1.06708,-0.198172,65.100006,-170.1,-32.7,,,,,,
1031036,1.8871411,8.388357,-2.2232974,0.015244,1.189032,0.221038,62.7,-170.1,-33.9,,,,,,
1031076,2.426666,9.188074,-2.158698,0.17530599,1.33385,0.525918,65.100006,-172.5,-30.300001,,,,,,
1031096,2.6312308,9.201832,-2.3871887,0.320124,1.6006199,0.07622,55.500004,-167.70001,-31.500002,,,,,,
1031158,3.2437294,8.552248,-2.5492854,0.17530599,1.669218,-0.121952,65.100006,-167.70001,-29.1,,,,,,
1031198,3.192887,8.360843,-3.1815224,0.33536798,1.94361,0.312502,57.9,-167.70001,-30.300001,,,,,,
1031218,3.2610755,8.698793,-3.4375277,0.95274997,1.21952,0.083841994,62.7,-167.70001,-31.500002,,,,,,
1031258,3.1976724,8.31658,-3.698318,1.699706,0.57164997,-1.013726,69.9,-177.3,-29.1,,,,,,
1031278,3.7892358,8.973341,-3.882546,2.835384,-0.785066,-1.1204339,65.100006,-172.5,-29.1,,,,,,
1031299,3.911855,9.12826,-3.8203392,2.7439198,-1.051836,-1.211898,60.300003,-167.70001,-27.300001,,,,,,
1031319,4.002773,8.811244,-3.5625396,2.17227,-1.4024479,-1.6539739,65.100006,-167.70001,-28.500002,,,,,,
1031339,3.9710712,8.884217,-3.443509,1.585376,-1.722572,-1.996964,74.700005,-170.1,-26.1,,,,,,
1031359,3.8837423,8.571389,-3.1330729,1.303362,-1.8750119,-3.102154,72.3,-167.70001,-27.300001,,,,,,
1031379,3.5774932,7.8332806,-2.8920212,1.6158639,-1.730194,-3.971062,72.3,-167.70001,-28.500002,,,,,,
1031399,3.3741245,7.8267007,-2.577398,0.81555396,-2.7286758,-2.843006,81.9,-160.5,-26.1,,,,,,
1031419,3.468631,7.9188147,-2.2974672,0.56402797,-2.7972739,-2.59148,84.3,-165.3,-26.7,,,,,,
1031439,3.6743922,8.393142,-2.175446,0.083841994,-2.2637339,-2.09605,79.5,-162.90001,-27.900002,,,,,,
1031459,3.6594386,8.467312,-2.2358584,-0.55640596,-1.8521459,-2.073184,86.700005,-165.3,-26.1,,,,,,
1031481,3.802993,8.938648,-2.1138372,-0.663114,-2.050318,-1.265252,81.9,-170.1,-26.7,,,,,,
1031501,3.7306178,8.7843275,-1.9774606,-1.1128119,-1.9054999,-1.493912,84.3,-167.70001,-27.300001,,,,,,
1031521,3.7377954,8.878835,-1.9840403,-1.02897,-1.8445239,-1.189032,86.700005,-170.1,-27.300001,,,,,,
1031545,3.6708033,8.68384,-1.8674023,-1.189032,-1.722572,-1.097568,93.9,-162.90001,-27.300001,,,,,,
1031565,3.80718,9.058277,-1.8973095,-0.82317597,-1.516778,-0.57164997,93.9,-160.5,-26.7,,,,,,
1031628,3.4494905,9.137232,-1.8207473,-1.1051899,-0.41921,-0.998482,91.5,-167.70001,-27.300001,,,,,,
1031678,2.5624444,8.836366,-1.6951371,-0.55640596,0.007622,-2.385686,93.9,-162.90001,-28.500002,,,,,,
1031698,2.0863228,8.801674,-1.556368,-0.182928,-0.045732,-2.317088,91.5,-167.70001,-29.1,,,,,,
1031738,0.9067848,8.948817,-1.619173,-0.579272,0.70122397,-2.2942219,103.50001,-160.5,-29.7,,,,,,
1031778,-1.200473,9.4757805,-2.664727,-0.53354,1.166166,-1.8445239,101.100006,-160.5,-29.1,,,,,,
1031799,-1.6574541,8.592922,-2.4673398,0.487808,-0.243904,-0.93750596,105.9,-162.90001,-27.300001,,,,,,
1031819,-1.6544634,9.684533,-2.8423755,0.792688,-0.259148,0.243904,101.100006,-162.90001,-28.500002,,,,,,
1031860,-1.8303175,9.496118,-2.8692918,0.243904,-0.548784,-0.769822,103.50001,-160.5,-28.500002,,,,,,
1031880,-1.7304276,9.937548,-3.1635783,0.708846,-0.64787,-0.57164997,101.100006,-165.3,-28.500002,,,,,,
1031921,-1.9308056,9.52124,-3.1564004,0.68597996,-1.166166,-1.150922,113.100006,-160.5,-27.300001,,,,,,
1031981,-1.4463097,8.814833,-2.552874,0.07622,-1.29574,0.121952,108.3,-167.70001,-28.500002,,,,,,
1032021,-1.0162449,9.401013,-2.2274845,-0.99086,-0.46494198,0.083841994,113.100006,-165.3,-28.500002,,,,,,
1032041,-0.90798104,8.668288,-2.0348823,-1.051836,-0.480186,-0.663114,108.3,-162.90001,-27.300001,,,,,,
1032061,-0.5150011,9.143213,-1.7537552,-0.754578,0.30488,0.320124,110.700005,-158.1,-27.300001,,,,,,
1032101,-0.82902616,8.589334,-2.4087217,-0.297258,1.41007,-1.250008,108.3,-160.5,-27.900002,,,,,,
1032121,-0.6878644,8.8579,-2.380609,0.129574,0.998482,0.045732,108.3,-162.90001,-27.900002,,,,,,
1032141,-0.3409415,9.124073,-2.46076,-0.091464,1.280496,-0.053354,113.100006,-165.3,-24.900002,,,,,,
1032161,-0.024523862,8.813039,-2.8561327,0.617382,1.303362,-0.373478,113.100006,-162.90001,-29.1,,,,,,
1032183,0.73272514,8.987098,-2.987126,1.4024479,0.716468,0.221038,113.100006,-160.5,-26.1,,,,,,
1032203,1.2501189,9.155774,-3.0774455,1.3490939,0.868908,0.586894,105.9,-155.70001,-27.900002,,,,,,
1032223,1.7292314,9.367517,-3.4363313,1.3490939,1.4024479,0.625004,108.3,-160.5,-28.500002,,,,,,
1032243,2.1706607,9.816124,-3.6959255,1.41007,1.493912,0.487808,110.700005,-158.1,-26.1,,,,,,
1032263,2.5032284,10.521335,-4.1241956,0.746956,2.2332458,-0.137196,110.700005,-160.5,-26.7,,,,,,
1032306,2.6001275,9.026576,-4.431641,0.33536798,1.928366,-2.050318,113.100006,-155.70001,-25.500002,,,,,,
1032342,2.6413994,8.685634,-4.1804214,-0.19055,1.3872039,-1.516778,110.700005,-153.3,-26.1,,,,,,
1032362,2.4721248,8.3847685,-3.757534,-0.053354,0.754578,-1.417692,113.100006,-155.70001,-25.500002,,,,,,
1032382,2.3201966,7.8386636,-3.2772253,-0.26677,0.632626,-1.288118,120.3,-153.3,-24.900002,,,,,,
1032402,2.1353705,7.4151783,-2.8932176,-0.503052,0.830798,-0.99086,115.50001,-153.3,-24.900002,,,,,,
1032422,1.7346146,6.983917,-2.7688038,-0.708846,1.021348,-0.967994,108.3,-155.70001,-24.900002,,,,,,
1032442,1.8315138,7.422356,-2.673101,-0.259148,0.891774,-0.579272,113.100006,-158.1,-24.300001,,,,,,
1032462,1.79084,8.694008,-2.7592335,-0.274392,0.708846,-0.221038,120.3,-162.90001,-26.1,,,,,,
1032482,1.7370071,8.691017,-2.9608078,-0.480186,0.983238,-0.87653,115.50001,-150.90001,-24.900002,,,,,,
1032502,1.1239107,8.977528,-2.883049,0.137196,0.45731997,-0.861286,113.100006,-148.5,-23.7,,,,,,
1032525,1.271652,10.184581,-3.0929973,0.365856,0.17530599,-0.55640596,113.100006,-155.70001,-24.900002,,,,,,
1032545,0.60890955,9.435705,-2.8304126,-0.20579399,0.20579399,-1.661596,115.50001,-160.5,-24.900002,,,,,,
1032565,0.2727532,8.955995,-2.7921314,-0.33536798,0.312502,-1.18141,115.50001,-160.5,-26.1,,,,,,
1032585,0.03229972,9.624719,-2.820244,-0.106708,0.518296,-0.746956,120.3,-153.3,-23.1,,,,,,
1032605,-0.037683006,9.8209095,-2.8435717,-0.28201398,0.80793196,-0.81555396,120.3,-160.5,-24.900002,,,,,,
1032627,-0.1309933,9.947716,-2.8722825,-0.243904,0.83842,-0.777444,125.100006,-150.90001,-23.1,,,,,,
1032647,-0.24224791,9.603186,-2.8770678,-0.274392,0.708846,-0.625004,122.700005,-160.5,-24.900002,,,,,,
1032670,-0.32897863,8.972743,-2.7293265,-0.251526,0.327746,-0.274392,127.50001,-158.1,-25.500002,,,,,,
1032691,-0.35469878,8.917115,-2.4553769,-0.182928,0.121952,0.510674,120.3,-160.5,-25.500002,,,,,,
1032713,-0.15551718,9.642663,-2.5588555,-0.35061198,0.221038,0.68597996,125.100006,-153.3,-24.900002,,,,,,
1032753,-0.1698726,8.743654,-2.6330254,-0.72409,-0.26677,0.221038,117.9,-150.90001,-26.7,,,,,,
1032773,-0.1280026,8.869863,-2.635418,-0.503052,-0.586894,0.754578,117.9,-160.5,-24.300001,,,,,,
1032793,-0.08254373,9.231739,-2.5421076,-0.40396598,-0.80793196,0.891774,117.9,-162.90001,-23.7,,,,,,
1032813,-0.01614986,9.846629,-2.6228569,-0.373478,-0.967994,0.47256398,115.50001,-158.1,-23.7,,,,,,
1032875,-0.23088318,10.041624,-2.1999698,-0.251526,-2.6829438,1.6158639,115.50001,-160.5,-25.500002,,,,,x,
1032895,-0.13278773,10.048203,-1.564742,-1.1356779,-3.39179,1.8826339,120.3,-155.70001,-26.1,,,,,x,
1032918,0.2003779,9.721618,-0.9510473,-1.768304,-3.871976,1.94361,115.50001,-153.3,-24.900002,,,,,x,
1032938,-0.08134744,8.564211,-0.20815375,-3.2927039,-3.7728899,1.9131219,110.700005,-158.1,-26.7,,,,,x,
1032958,-0.39656878,7.592229,-0.35469878,-3.6585598,-3.871976,1.280496,113.100006,-162.90001,-25.500002,,,,,x,
1032978,-0.832615,5.6135716,-0.4438221,-1.806414,-5.061008,1.06708,110.700005,-160.5,-29.1,,,,,x,
1032998,-0.4731311,6.0137296,-0.31821206,0.830798,-7.149436,3.635694,105.9,-160.5,-27.900002,,,,,x,
1033018,0.5843857,6.773371,-0.14415246,1.059458,-10.335432,4.176856,110.700005,-162.90001,-29.7,,,,,x,
1033078,1.4044397,4.395753,0.3911855,-0.731712,-11.600684,3.018312,98.700005,-160.5,-30.300001,,,,,x,
1033115,1.9637034,3.3017492,0.45877567,-0.95274997,-10.731775,1.798792,98.700005,-160.5,-32.7,,,,,x,
1033135,2.0342844,3.116923,-0.30325848,-0.777444,-8.902495,0.35061198,96.3,-165.3,-31.500002,,,,,x,
1033178,2.3201966,3.4632478,-1.8291212,1.6234859,-7.77444,-1.158544,96.3,-167.70001,-33.300003,,,,,x,
1033198,2.6497734,4.460352,-2.1826236,1.3414719,-5.960404,-1.79117,101.100006,-160.5,-32.100002,,,,,x,
1033219,2.4188902,4.53512,-3.2066445,0.53354,-3.323192,-3.2393498,103.50001,-160.5,-31.500002,,,,,x,
1033239,2.3327575,4.893408,-4.0308857,1.669218,-2.2256238,-3.025934,105.9,-162.90001,-33.300003,,,,,x,
1033300,1.3852991,6.6543407,-6.4784865,1.463424,-1.189032,-5.137228,108.3,-155.70001,-32.7,,,,,x,
1033320,1.1669769,8.327347,-6.9217105,1.79117,1.303362,-3.7881339,113.100006,-153.3,-30.300001,,,,,x,
1033340,1.49775,11.014803,-8.530715,1.501534,4.550334,-1.6539739,117.9,-155.70001,-32.100002,,,,,x,
1033360,2.0265083,11.625506,-8.898573,-1.044214,2.050318,-5.251558,117.9,-148.5,-30.300001,,,,,x,
1033420,0.8248392,11.916204,-7.8805337,-1.745438,7.385718,-4.679908,139.5,-143.70001,-29.7,,,,,x,
1033440,0.029907148,12.1423025,-8.621633,-0.884152,10.960436,-6.737848,141.90001,-148.5,-29.1,,,,,x,
1033460,-0.97078604,11.545954,-8.880031,-0.327746,9.504634,-6.9741297,144.3,-141.3,-27.300001,,,,,x,
1033484,-1.1992767,13.362514,-8.173624,-1.471046,10.55647,-5.52595,153.90001,-141.3,-27.300001,,,,,x,
1033504,-2.95363,12.363017,-9.356153,0.33536798,15.747051,-7.713464,153.90001,-143.70001,-25.500002,,,,,x,
1033524,-2.271149,11.24748,-10.980709,2.309466,12.850692,-5.785098,161.1,-134.1,-26.7,,,,,x,
1033544,-3.761123,12.141106,-9.510473,-2.446662,4.146368,-3.574718,165.90001,-134.1,-24.300001,,,,,x,
1033564,-3.7419825,13.897254,-8.159268,-1.189032,6.28815,-2.82014,168.3,-134.1,-23.1,,,,,x,
1033588,-2.3907773,13.113089,-8.472097,-0.221038,6.8598,-4.580822,168.3,-129.3,-23.1,,,,,x,
1033608,-4.3861823,12.447953,-6.5185623,-2.652456,6.25004,-3.460388,170.70001,-131.70001,-22.5,,,,,x,
1033628,-5.041149,15.079185,-5.8091645,-4.329296,10.914703,-2.865872,170.70001,-134.1,-21.900002,,,,,x,
1033648,-5.093786,14.506164,-5.675779,-3.879598,11.16623,-4.0625257,170.70001,-134.1,-20.7,,,,,x,
1033668,-7.1430235,13.517433,-5.589646,-3.8186219,11.006167,-4.054904,170.70001,-131.70001,-21.300001,,,,,x,
1033691,-5.023205,16.385529,-4.492652,-3.041178,5.686012,0.213416,170.70001,-129.3,-21.900002,,,,,x,
1033711,-6.3187823,14.348852,-2.5851738,-4.9009457,7.446694,-2.004586,168.3,-131.70001,-21.300001,,,,,x,
1033731,-6.266744,14.0647335,-4.931091,-4.771372,11.410133,0.022866,173.1,-129.3,-21.900002,,,,,x,
1033755,-5.1278796,14.724485,-4.2862926,-2.957336,6.166198,1.089946,165.90001,-131.70001,-21.900002,,,,,x,
1033775,-4.8946037,13.320644,-2.560052,-3.170752,5.9985137,0.34298998,163.5,-141.3,-21.300001,,,,,x,
1033838,-4.6661134,11.648236,-2.003779,-3.071666,1.783548,2.301844,158.70001,-141.3,-20.7,,,,,x,
1033858,-4.513587,11.461018,-2.116828,-3.3079479,1.6311079,4.054904,151.5,-143.70001,-23.1,,,,,x,
1033878,-4.3191905,11.950896,-2.3201966,-3.7500238,0.129574,5.0381417,151.5,-146.1,-21.300001,,,,,x,
1033898,-3.564932,10.5661955,-2.3417296,-2.2942219,-2.2561119,3.2927039,149.1,-143.70001,-23.1,,,,,x,
1033958,-1.631734,8.114408,-0.773997,-0.93750596,-7.073216,7.804928,132.3,-158.1,-24.900002,,,,,x,
1033978,-0.39477435,7.0114317,0.1573116,-1.3643379,-7.416206,7.16468,127.50001,-153.3,-24.900002,,,,,x,
1033998,0.06579573,6.3630447,0.24523862,-1.699706,-5.625036,5.75461,122.700005,-153.3,-25.500002,,,,,x,
1034020,0.5347398,5.8755584,-0.15372275,-1.745438,-4.855214,4.176856,115.50001,-162.90001,-26.1,,,,,x,
1034040,1.0096654,5.0184197,-0.28890306,-0.754578,-4.923812,2.6829438,110.700005,-158.1,-26.1,,,,,x,
1034060,1.5761068,4.664319,-0.34632477,0.3811,-5.10674,2.408552,113.100006,-158.1,-26.7,,,,,x,
1034080,1.999592,4.5416994,-0.35709137,1.1128119,-4.733262,2.36282,108.3,-160.5,-26.7,,,,,x,
1034100,2.5462947,4.928698,-0.47253296,1.06708,-4.26832,2.431418,108.3,-165.3,-26.7,,,,,x,
1034120,2.807085,4.87666,-0.5078234,1.021348,-3.551852,1.737816,113.100006,-167.70001,-26.7,,,,,x,
1034141,3.0600994,4.7534423,-0.64419997,0.72409,-2.7439198,1.25763,108.3,-158.1,-27.900002,,,,,x,
1034161,2.7676075,4.1241956,-0.99172103,0.70122397,-1.783548,0.739334,105.9,-158.1,-26.1,,,,,x,
1034183,2.6623344,4.393958,-1.359579,0.853664,-1.8673899,1.318606,105.9,-162.90001,-24.900002,,,,,x,
1034203,2.6952322,5.028588,-1.3906825,1.036592,-2.2180018,1.150922,103.50001,-167.70001,-26.7,,,,,x,
1034243,3.4243686,5.9604945,-1.476815,1.33385,-2.2789779,0.967994,103.50001,-158.1,-27.300001,,,,,x,
1034263,3.2162147,6.3319416,-1.6783892,0.92988396,-1.3872039,0.40396598,108.3,-160.5,-25.500002,,,,,x,
1034283,3.5332305,7.016815,-2.0402656,1.3872039,-0.998482,0.579272,103.50001,-155.70001,-26.1,,,,,x,
1034303,3.93279,7.9337683,-2.3835998,1.1280559,-0.586894,0.327746,101.100006,-162.90001,-25.500002,,,,,x,
1034327,3.476407,7.056891,-2.8411791,1.074702,-0.320124,-1.089946,101.100006,-167.70001,-23.7,,,,,x,
1034347,3.410013,7.3362236,-2.8034961,1.234764,-0.46494198,0.182928,101.100006,-162.90001,-27.300001,,,,,x,
1034369,3.1121378,8.243009,-3.0224164,0.47256398,0.67073596,0.434454,103.50001,-162.90001,-25.500002,,,,,x,
1034389,2.7412891,8.5139675,-3.5057158,0.17530599,1.158544,-0.26677,101.100006,-155.70001,-24.900002,,,,,x,
1034409,2.3584778,8.779543,-3.59783,0.640248,1.532022,-0.754578,105.9,-162.90001,-26.1,,,,,,
1034429,2.142548,11.001644,-4.7845454,2.027452,2.827762,0.617382,101.100006,-158.1,-25.500002,,,,,,
1034452,1.6383137,10.5004,-5.2409286,0.998482,0.41921,-2.530504,105.9,-160.5,-24.300001,,,,,,
1034473,1.1388642,8.414676,-3.9884174,1.56251,-1.310984,-3.368924,103.50001,-160.5,-23.7,,,,,,
1034493,1.0341892,8.597707,-3.6115873,-0.16768399,-0.144818,-1.5929979,103.50001,-160.5,-22.5,,,,,,
1034514,0.5150011,8.4714985,-3.747964,-0.41158798,0.55640596,-0.907018,105.9,-158.1,-23.7,,,,,,
1034534,0.36666164,8.836965,-3.7551415,-0.289636,0.449698,-0.480186,110.700005,-155.70001,-23.1,,,,,,
1034554,0.35290435,8.789113,-3.5087066,-0.579272,0.15244,-0.640248,108.3,-160.5,-22.5,,,,,,
1034578,0.33914706,8.655727,-3.025407,-0.55640596,0.121952,0.182928,113.100006,-148.5,-23.1,,,,,,
1034598,0.4360462,8.846535,-2.899199,-0.80793196,0.518296,0.022866,108.3,-155.70001,-23.7,,,,,,
1034618,0.53115094,9.046314,-2.8208423,-0.67835796,0.746956,-0.053354,110.700005,-158.1,-24.300001,,,,,,
1034638,0.66453683,9.363928,-2.7556446,-0.739334,0.998482,-0.274392,108.3,-155.70001,-24.300001,,,,,,
1034658,0.6154891,8.853712,-2.836394,-0.92988396,1.3795819,-0.746956,105.9,-150.90001,-23.1,,,,,,
1034680,0.72614557,9.085792,-2.8316088,-0.312502,1.189032,-0.312502,105.9,-153.3,-24.900002,,,,,,
1034743,0.9043922,9.045716,-2.883049,-0.19055,1.303362,-1.814036,110.700005,-158.1,-21.900002,,,,,,
1034764,0.9157569,8.810646,-2.664727,-0.434454,0.960372,-1.48629,115.50001,-160.5,-23.1,,,,,x,
1034784,0.9019996,9.028968,-2.6348197,-0.769822,1.196654,-0.7622,113.100006,-158.1,-23.7,,,,,x,
1034804,0.9277198,9.360937,-2.481097,-0.83842,1.204276,-0.83842,115.50001,-160.5,-23.1,,,,,x,
1034869,-0.028710863,9.048109,-2.4547787,-0.23628199,1.036592,-0.28201398,115.50001,-155.70001,-24.300001,,,,,x,
1034975,-0.2769402,7.9385533,-1.8691968,-0.045732,-3.2545938,0.396344,113.100006,-155.70001,-23.7,,,,,x,
1034995,0.24583676,8.545669,-1.3422328,-0.060976,-4.9009457,2.01983,115.50001,-158.1,-23.7,,,,,x,
1035039,0.8481667,8.140128,-0.73033255,-1.6158639,-6.684494,-0.586894,117.9,-153.3,-25.500002,,,,,x,
1035059,0.38161522,6.5628247,-0.4605701,-2.2789779,-8.186028,-1.3414719,122.700005,-153.3,-24.300001,,,,,x,
1035100,-0.033496007,3.1534097,0.5167955,0.396344,-12.644897,0.60976,127.50001,-155.70001,-27.900002,,,,,x,
1035160,0.9660009,4.212123,1.0288059,-0.49543,-11.364402,2.05794,120.3,-153.3,-29.7,,,,,x,
1035220,0.91515875,3.007463,-0.28052905,-1.1128119,-6.814068,-1.8445239,117.9,-160.5,-32.100002,,,,,x,
1035240,0.48090696,2.7119803,-2.2041569,-1.089946,-3.2088618,-2.6905658,122.700005,-153.3,-31.500002,,,,,x,
1035280,1.4798057,5.9622893,-3.8807516,1.3643379,-4.53509,-1.074702,127.50001,-155.70001,-32.100002,,,,,x,
1035300,1.3583827,5.41439,-4.990307,0.70122397,-0.40396598,-1.951232,129.90001,-153.3,-31.500002,,,,,x,
1035324,1.4498986,8.344692,-6.05859,1.6234859,-0.891774,-1.79117,127.50001,-158.1,-29.7,,,,,x,
1035346,1.2967739,7.7758584,-6.3373246,0.92226195,1.097568,-3.8033779,134.70001,-148.5,-30.300001,,,,,x,
1035366,0.9091773,8.319571,-7.4618335,2.7439198,3.117398,-2.942092,129.90001,-148.5,-32.100002,,,,,x,
1035386,0.9049903,9.679748,-8.225662,3.16313,2.423796,-2.7515419,137.1,-153.3,-29.1,,,,,x,
1035407,0.98095447,11.126656,-7.8889074,2.317088,2.408552,-2.995446,139.5,-148.5,-28.500002,,,,,x,
1035427,0.64180744,11.040523,-7.571294,0.716468,3.368924,-5.0991178,139.5,-148.5,-29.7,,,,,x,
1035447,-0.08852516,10.020689,-7.8249063,0.45731997,5.358266,-5.769854,153.90001,-146.1,-28.500002,,,,,x,
1035469,-0.5287584,12.373185,-7.9714513,-0.899396,6.981752,-4.718018,153.90001,-143.70001,-27.900002,,,,,x,
1035490,-1.6765947,11.819903,-8.20712,-1.166166,8.666214,-5.8613176,156.3,-138.90001,-27.900002,,,,,x,
1035510,-1.3153164,13.118472,-8.842946,-0.93750596,9.596098,-3.856732,161.1,-138.90001,-25.500002,,,,,x,
1035530,-1.6293415,13.235707,-8.473293,-1.951232,9.001582,-4.009172,153.90001,-136.5,-24.900002,,,,,x,
1035554,-1.9529368,12.580741,-8.199942,-1.036592,10.114394,-4.161612,156.3,-136.5,-23.7,,,,,x,
1035617,-3.2018592,14.2591305,-8.612062,-2.004586,15.297354,-5.8613176,168.3,-131.70001,-22.5,,,,,x,
1035659,-4.103859,14.61024,-7.1173034,-3.094532,12.23331,-4.5731997,173.1,-131.70001,-18.900002,,,,,x,
1035699,-4.3831916,13.850598,-7.715446,-0.868908,8.559505,-5.838452,173.1,-124.50001,-20.1,,,,,x,
1035719,-4.71217,12.337895,-6.1907797,0.846042,4.4055157,-5.312534,173.1,-119.700005,-18.900002,,,,,x,
1035761,-3.6169705,17.80552,-6.233846,-3.330814,2.522882,0.93750596,180.3,-122.100006,-18.900002,,,,,x,
1035805,-5.0315785,12.134526,-6.826606,-0.632626,2.995446,-0.57164997,177.90001,-119.700005,-19.5,,,,,x,
1035845,-4.9723625,11.249275,-3.3669467,-1.67684,-3.170752,0.060976,182.70001,-124.50001,-18.900002,,,,,x,
1035901,-4.596729,10.234824,-2.242438,-3.498498,-1.265252,1.928366,177.90001,-131.70001,-19.5,,,,,x,
1035941,-3.8215353,8.010929,-0.56285256,-2.2256238,-2.8048959,3.056422,177.90001,-129.3,-21.900002,,,,,x,
1035961,-3.383695,7.460039,-0.41391495,-2.050318,-2.042696,3.2850819,168.3,-131.70001,-22.5,,,,,x,
1036001,-2.263971,7.5694995,-0.27036062,-1.3643379,-2.088428,5.045764,170.70001,-134.1,-22.5,,,,,x,
1036021,-1.912263,7.0425353,-0.2033686,-1.3414719,-2.035074,4.123502,158.70001,-141.3,-23.7,,,,,x,
1036041,-1.3518031,6.271529,-0.028112719,-0.87653,-2.538126,3.528986,158.70001,-146.1,-24.300001,,,,,x,
1036081,-0.27933276,5.6410866,-0.09809545,-1.21952,-2.073184,2.2561119,153.90001,-148.5,-24.300001,,,,,x,
1036140,0.0077758585,3.3167028,-0.7476787,1.3948259,-4.070148,0.121952,151.5,-148.5,-23.1,,,,,x,
1036241,1.823738,6.08132,-1.1484345,1.006104,-2.522882,3.102154,149.1,-146.1,-24.300001,,,,,x,
1036261,2.1072576,6.7829413,-1.2854092,0.80793196,-2.027452,2.82014,144.3,-143.70001,-25.500002,,,,,x,
1036305,2.0594063,7.412786,-2.2974672,0.137196,0.106708,0.64787,141.90001,-148.5,-25.500002,,,,,x,
1036375,0.8188577,9.72401,-5.016027,2.7439198,-1.6311079,0.884152,137.1,-146.1,-23.1,,,,,x,
1036415,1.1227144,9.6372795,-4.749853,0.503052,0.15244,0.007622,137.1,-146.1,-21.300001,,,,,x,
1036435,0.9019996,9.113904,-4.786938,0.015244,0.53354,-0.11432999,134.70001,-146.1,-23.1,,,,,x,
1036479,0.6071151,8.262149,-3.7976098,-1.044214,0.617382,0.137196,137.1,-143.70001,-21.900002,,,,,x,
1036499,0.6406111,8.926087,-3.5451934,-1.211898,0.708846,0.487808,132.3,-143.70001,-23.1,,,,,x,
1036519,0.35110992,8.46133,-3.4291537,-1.3719599,0.907018,-0.060976,134.70001,-148.5,-24.300001,,,,,x,
1036579,0.23925719,8.726308,-2.3530943,-1.3948259,0.30488,0.365856,134.70001,-143.70001,-24.300001,,,,,x,
1036680,0.25720146,9.627709,-2.5092099,-0.518296,0.3811,0.160062,134.70001,-153.3,-24.300001,,,,,,
1036835,0.20217232,9.082203,-3.1115398,-0.106708,-0.03811,0.632626,129.90001,-146.1,-23.1,,,,,x,
1036855,0.40255022,9.155774,-2.7544484,-0.449698,-0.068598,0.80793196,127.50001,-150.90001,-23.1,,,,,x,
1036898,0.2601922,9.478771,-2.8040943,-0.663114,0.594516,0.861286,125.100006,-158.1,-22.5,,,,,x,
1036918,-0.105273165,9.445874,-2.723943,-0.41158798,0.35061198,0.830798,127.50001,-150.90001,-24.300001,,,,,x,
1036938,-0.43784064,9.647448,-2.4224792,-0.137196,-0.602138,1.196654,125.100006,-148.5,-23.7,,,,,x,
1036958,-0.870298,9.005042,-1.7782791,-0.663114,-2.09605,1.21952,122.700005,-150.90001,-23.7,,,,,x,
1036979,-0.9725805,8.568398,-0.75366014,-1.33385,-3.574718,2.027452,120.3,-146.1,-24.300001,,,,,x,
1036999,-1.4092249,8.056388,-0.49227166,-2.59148,-3.910086,2.317088,122.700005,-155.70001,-24.900002,,,,,x,
1037061,-0.37503564,6.253585,0.17764847,0.17530599,-12.84307,4.314052,110.700005,-160.5,-26.7,,,,,x,
1037082,0.15252645,5.4018292,0.8212503,-0.015244,-14.314116,4.679908,113.100006,-167.70001,-29.1,,,,,x,
1037102,0.669322,4.34192,1.1980804,-0.861286,-14.276006,4.618932,110.700005,-158.1,-29.1,,,,,x,
1037142,1.7304276,3.30474,0.006579573,-1.3719599,-10.106771,3.6738038,105.9,-165.3,-29.1,,,,,x,
1037164,2.1527166,4.401136,-1.4283655,-1.227142,-7.057972,2.103672,105.9,-162.90001,-29.1,,,,,x,
1037185,2.3812072,3.7198513,-2.782561,-1.699706,-4.824726,-0.80030996,103.50001,-160.5,-30.900002,,,,,x,
1037205,3.0367718,4.2115245,-2.743682,0.045732,-5.198204,-1.3643379,101.100006,-162.90001,-30.900002,,,,,x,
1037225,3.3490026,4.4448004,-2.5869684,-0.053354,-4.4969797,-1.455802,103.50001,-167.70001,-29.7,,,,,x,
1037245,3.7210474,5.041747,-2.6928396,-0.93750596,-2.416174,-1.585376,103.50001,-162.90001,-32.100002,,,,,x,
1037265,3.0523236,4.8497434,-3.2574866,-1.29574,-0.95274997,-2.378064,103.50001,-162.90001,-32.7,,,,,x,
1037329,2.393768,7.631706,-5.8115573,1.547266,1.98172,-3.871976,115.50001,-158.1,-30.900002,,,,,x,
1037404,1.3876917,11.188264,-6.9617863,0.259148,3.841488,-3.971062,122.700005,-155.70001,-29.7,,,,,x,
1037524,-0.57122654,12.593901,-8.8602915,0.57164997,9.519877,-5.4421077,151.5,-146.1,-26.1,,,,,x,
1037618,-2.9386764,13.96305,-9.114503,-1.440558,11.341536,-4.68753,165.90001,-131.70001,-23.1,,,,,x,
1037639,-3.6056058,13.584425,-8.580959,-1.318606,8.643348,-4.184478,168.3,-138.90001,-20.7,,,,,x,
1037682,-3.9028828,14.900938,-8.628811,-0.23628199,7.759196,-2.393308,168.3,-131.70001,-19.5,,,,,x,
1037723,-2.987724,17.214554,-5.6183567,-1.463424,2.027452,-0.983238,170.70001,-129.3,-19.5,,,,,x,
1037743,-5.2780137,16.736639,-4.6846557,-4.367406,8.429932,-4.237832,170.70001,-124.50001,-20.1,,,,,x,
1037765,-6.2649493,14.361413,-7.2423153,-3.8262439,11.272938,-5.22107,170.70001,-124.50001,-20.7,,,,,x,
1037805,-5.4030256,13.65381,-2.9051805,-3.6661818,4.009172,-1.760682,170.70001,-126.9,-19.5,,,,,x,
1037825,-5.5118876,13.318252,-4.910156,-4.4969797,7.1265697,0.548784,180.3,-131.70001,-18.900002,,,,,x,
1037845,-4.749853,12.487431,-3.7126734,-2.652456,2.2561119,1.8292799,175.5,-131.70001,-18.300001,,,,,x,
1037868,-3.9800434,11.134432,-1.8967113,-3.2088618,2.560992,2.080806,168.3,-136.5,-19.5,,,,,x,
1037929,-3.576895,9.2377205,-2.0677803,-4.176856,1.806414,2.149404,156.3,-141.3,-22.5,,,,,x,
1037979,-2.531341,7.6376877,-0.14056359,-3.155508,-0.41158798,6.59303,149.1,-143.70001,-24.300001,,,,,x,
1037999,-2.158698,7.4947314,-0.677696,-3.948196,0.221038,7.027484,144.3,-143.70001,-22.5,,,,,x,
1038039,-1.401449,6.8457465,-0.6005356,-2.2408679,-2.97258,5.9832697,137.1,-158.1,-23.1,,,,,x,
1038060,-0.698631,6.744062,-0.40015766,-2.01983,-4.138746,4.428382,129.90001,-153.3,-25.500002,,,,,x,
1038080,-0.6597517,5.220592,-0.006579573,-2.012208,-4.641798,2.2180018,129.90001,-158.1,-26.1,,,,,x,
1038100,0.15073203,4.824621,0.17884475,-1.722572,-5.061008,2.568614,125.100006,-155.70001,-26.7,,,,,x,
1038163,-0.14116174,3.2491126,-0.5538804,-2.599102,-3.643316,0.144818,127.50001,-155.70001,-27.300001,,,,,x,
1038184,0.8021097,3.8053856,0.16329303,-0.26677,-5.686012,1.6082419,120.3,-162.90001,-27.300001,,,,,x,
1038204,1.7633255,4.4035287,0.34632477,-0.69360197,-4.657042,1.722572,120.3,-150.90001,-29.1,,,,,x,
1038227,1.7932327,4.2862926,-0.6166854,-0.07622,-3.399412,1.516778,122.700005,-155.70001,-29.1,,,,,,
1038247,2.1694646,4.799499,-0.736314,1.669218,-4.0472817,2.408552,120.3,-160.5,-29.7,,,,,,
1038267,2.8920212,6.324764,-0.8655129,2.36282,-3.871976,3.7042918,113.100006,-162.90001,-29.7,,,,,,
1038287,3.4572663,7.835673,-1.2746427,1.8978779,-3.2545938,3.2469718,110.700005,-165.3,-29.1,,,,,,
1038310,3.275431,7.6424727,-1.4211878,1.21952,-2.7134318,1.196654,110.700005,-165.3,-28.500002,,,,,,
1038331,2.9506392,8.336917,-1.7292314,1.173788,-1.798792,1.56251,110.700005,-162.90001,-30.300001,,,,,,
1038351,2.4864802,9.229944,-2.6431937,1.051836,-0.785066,1.02897,105.9,-155.70001,-28.500002,,,,,,
1038373,2.028303,8.941639,-2.8435717,1.1432999,-1.41007,-0.07622,105.9,-158.1,-28.500002,,,,,,
1038433,1.6628375,8.758608,-2.9392745,0.983238,-0.998482,-0.487808,101.100006,-160.5,-27.900002,,,,,,
1038519,1.5497885,8.740664,-2.774187,0.769822,-0.998482,-0.060976,108.3,-155.70001,-26.7,,,,,,
1038539,1.606612,8.978126,-2.836992,0.60976,-0.7622,0.23628199,110.700005,-162.90001,-26.1,,,,,,
1038580,1.5886678,8.803469,-2.9524338,-0.297258,0.068598,-0.083841994,105.9,-158.1,-27.900002,,,,,,
1038600,1.5850788,8.684438,-2.9548264,-0.259148,0.243904,0.213416,110.700005,-165.3,-26.1,,,,,,
1038620,1.711287,9.316077,-2.8417773,-0.007622,0.33536798,0.64787,103.50001,-160.5,-26.7,,,,,,
1038640,1.2830167,8.865077,-2.840581,-0.503052,0.548784,0.11432999,110.700005,-160.5,-26.1,,,,,,
1038704,1.2866055,8.987098,-2.5875664,-0.121952,0.449698,-0.19055,108.3,-160.5,-24.900002,,,,,,
1038724,1.2626798,8.951808,-2.568426,-0.289636,0.80793196,-0.198172,103.50001,-165.3,-26.1,,,,,,
1038744,1.3996545,9.8424425,-3.0295942,-0.20579399,1.166166,-0.373478,105.9,-165.3,-26.1,,,,,,
1038764,0.995908,8.866273,-2.7562428,-0.480186,0.975616,-1.3872039,108.3,-162.90001,-26.1,,,,,,
1038784,1.0515354,8.954201,-3.0295942,-0.106708,0.998482,-0.769822,110.700005,-158.1,-26.1,,,,,,
1038804,1.0880221,8.883619,-2.794524,-0.41158798,0.899396,-0.56402797,113.100006,-158.1,-27.300001,,,,,,
1038824,1.1855193,9.018202,-2.8166552,-0.49543,0.92226195,-0.28201398,108.3,-162.90001,-27.300001,,,,,,
1038844,1.2656705,9.088184,-2.7203543,-0.602138,0.868908,-0.274392,98.700005,-153.3,-26.1,,,,,,
1038864,1.3165127,8.95121,-2.60252,-0.830798,0.95274997,-0.289636,105.9,-153.3,-26.7,,,,,,
1038888,1.3589808,9.1192875,-2.5343318,-0.72409,1.1204339,-0.320124,108.3,-160.5,-26.1,,,,,,
1038908,1.2064544,9.103736,-2.4733212,-0.716468,1.227142,-0.487808,105.9,-158.1,-25.500002,,,,,,
1038972,0.051440295,11.437092,-1.1765472,0.33536798,-1.1128119,1.242386,105.9,-165.3,-24.900002,,,,,,
1039022,-0.43903694,9.344788,-0.86132586,0.129574,-2.179892,1.036592,110.700005,-165.3,-27.300001,,,,,x,
1039080,-0.34273592,7.8105507,-0.47073853,-0.099086,-5.129606,3.54423,96.3,-167.70001,-27.300001,,,,,x,
1039120,0.29428634,6.8337836,-0.28890306,-0.20579399,-8.940606,3.422278,93.9,-158.1,-29.1,,,,,x,
1039140,1.0150486,6.580769,0.03828115,-0.426832,-10.44214,3.58234,93.9,-165.3,-29.7,,,,,x,
1039180,1.2656705,4.233058,0.5335435,-0.327746,-12.309529,2.903982,93.9,-165.3,-29.7,,,,,x,
1039202,1.4211878,3.2515051,0.5048327,-0.259148,-11.791234,2.919226,86.700005,-167.70001,-28.500002,,,,,x,
1039222,1.5958455,2.882451,0.044860724,-0.03811,-10.830862,2.7972739,91.5,-165.3,-30.300001,,,,,x,
1039242,2.280719,4.186403,-0.3134269,1.71495,-10.457384,2.911604,86.700005,-165.3,-30.300001,,,,,x,
1039302,1.2806242,3.016435,-1.3703456,3.871976,-7.987856,-1.501534,89.100006,-162.90001,-30.900002,,,,,x,
1039342,1.6155841,6.1973596,-3.3687413,4.45887,-2.957336,0.259148,91.5,-162.90001,-28.500002,,,,,x,
1039362,1.0437595,5.645273,-4.970568,4.4360037,-0.640248,-2.881116,91.5,-160.5,-26.7,,,,,x,
1039382,1.6957353,4.122401,-6.0902915,6.1052217,-1.06708,-2.7820299,91.5,-158.1,-24.900002,,,,,x,
1039426,3.51409,7.665202,-6.6363964,3.2774599,-2.042696,0.81555396,89.100006,-155.70001,-24.900002,,,,,x,
1039446,3.7025049,8.606679,-7.1143126,2.55337,-0.23628199,-2.2103798,93.9,-158.1,-22.5,,,,,x,
1039468,2.6330254,7.3996267,-7.684343,0.884152,0.221038,-5.708878,101.100006,-155.70001,-23.7,,,,,x,
1039488,3.3017492,8.866273,-7.2823906,1.150922,0.274392,-4.664664,101.100006,-158.1,-23.7,,,,,x,
1039530,1.6879594,11.603973,-8.455349,1.051836,7.301876,-3.902464,108.3,-153.3,-23.1,,,,,x,
1039550,0.598143,11.313874,-8.204129,-1.440558,7.248522,-8.056454,115.50001,-148.5,-21.900002,,,,,x,
1039570,-0.22490175,9.256263,-8.393142,-0.083841994,9.230242,-9.428413,127.50001,-148.5,-23.1,,,,,x,
1039590,-0.3062492,10.051194,-8.955995,0.548784,9.550365,-6.547298,129.90001,-146.1,-23.1,,,,,x,
1039610,0.42228892,12.622611,-8.990088,0.640248,9.352194,-3.58234,132.3,-143.70001,-18.900002,,,,,x,
1039630,-0.05203844,14.158642,-8.916517,-0.884152,10.030552,-4.786616,132.3,-148.5,-20.7,,,,,x,
1039650,-1.183725,12.336699,-9.280189,0.0,11.562573,-8.529017,129.90001,-143.70001,-18.300001,,,,,x,
1039730,-2.0809393,14.234607,-9.022986,-0.586894,12.484836,-11.311048,149.1,-131.70001,-17.1,,,,,x,
1039777,-2.4147031,16.467474,-9.0654545,-1.554888,10.929948,-2.7134318,149.1,-124.50001,-16.5,,,,,x,
1039801,-3.6426907,16.77492,-9.927379,-1.234764,13.635757,-5.091496,146.70001,-124.50001,-12.900001,,,,,x,
1039841,-3.5691192,14.183764,-9.531408,-4.4817357,4.443626,-2.827762,149.1,-131.70001,-14.1,,,,,x,
1039861,-3.7180567,16.067915,-7.361346,-6.547298,4.5122237,-0.320124,153.90001,-124.50001,-12.900001,,,,,x,
1039881,-3.6624293,14.184362,-7.2889705,-5.358266,6.311016,-2.7667859,151.5,-126.9,-12.900001,,,,,x,
1039901,-3.782058,12.461113,-6.232052,-5.4725957,4.275942,-1.798792,158.70001,-129.3,-13.500001,,,,,x,
1039921,-4.0231094,12.07232,-5.169152,-5.0686297,5.4116197,0.33536798,149.1,-129.3,-15.3,,,,,x,
1039943,-3.6636257,11.48913,-5.295958,-3.902464,5.44973,1.29574,156.3,-129.3,-14.1,,,,,x,
1039963,-3.6696072,10.682834,-3.916042,-4.34454,2.065562,1.150922,151.5,-134.1,-16.5,,,,,x,
1039984,-3.7252345,10.108616,-2.9649947,-4.603688,3.414656,1.768304,144.3,-138.90001,-15.900001,,,,,x,
1040004,-3.5571563,9.540978,-3.5583525,-4.695152,4.367406,2.454284,144.3,-134.1,-15.900001,,,,,x,
1040024,-3.222196,9.039137,-2.982939,-4.184478,1.303362,2.7667859,141.90001,-141.3,-17.7,,,,,x,
1040046,-2.455975,7.1771173,-1.2572966,-4.0015497,-2.301844,2.55337,137.1,-146.1,-17.7,,,,,x,
1040087,-1.3763269,6.8092594,-0.31402507,-5.388754,-0.69360197,6.714982,132.3,-146.1,-19.5,,,,,x,
1040131,-1.3751307,6.387569,-0.8780739,-3.437522,-2.812518,5.823208,120.3,-153.3,-23.1,,,,,x,
1040151,-0.7105939,5.7463593,-0.4815051,-2.355198,-5.0533857,3.8109999,122.700005,-160.5,-20.7,,,,,x,
1040171,0.004187001,5.166161,0.06280501,-1.432936,-6.4482117,2.2789779,108.3,-153.3,-21.300001,,,,,x,
1040193,0.17585403,4.6828613,-0.07596416,-0.998482,-5.785098,1.21952,117.9,-162.90001,-23.7,,,,,x,
1040213,0.20695747,4.6027102,-0.6268538,-0.884152,-5.60217,1.3643379,110.700005,-155.70001,-24.900002,,,,,x,
1040253,0.72853816,4.8353877,-0.68427557,-2.080806,-6.638762,1.6539739,110.700005,-165.3,-23.1,,,,,x,
1040273,1.0240208,4.475904,-0.79373574,-2.7667859,-6.684494,1.6463519,110.700005,-153.3,-24.900002,,,,,x,
1040313,1.8141676,4.334742,-0.5030382,-1.326228,-6.875044,3.3003259,108.3,-162.90001,-26.7,,,,,x,
1040334,2.659942,5.5824685,-0.3104362,-0.15244,-5.655524,3.422278,108.3,-158.1,-27.900002,,,,,x,
1040354,3.2030556,6.288277,-0.39776507,0.45731997,-4.0320377,2.484772,101.100006,-162.90001,-29.1,,,,,x,
1040374,3.1982706,6.57718,-0.8350076,0.72409,-2.2408679,1.272874,101.100006,-155.70001,-28.500002,,,,,x,
1040396,3.0612957,6.97973,-1.4612633,1.211898,-0.853664,1.1051899,101.100006,-160.5,-28.500002,,,,,x,
1040478,2.26756,8.759206,-3.0343792,1.051836,1.577754,0.121952,98.700005,-160.5,-26.1,,,,,x,
1040498,1.6789873,8.657521,-3.6295316,1.471046,1.3948259,0.830798,96.3,-167.70001,-26.1,,,,,x,
1040518,1.9014965,9.025379,-3.3346472,1.242386,-0.144818,1.8673899,93.9,-162.90001,-26.1,,,,,x,
1040558,1.8566358,9.011622,-3.5715117,0.861286,0.861286,0.830798,89.100006,-160.5,-24.900002,,,,,x,
1040581,1.9433665,8.6329975,-3.6594386,1.41007,0.510674,0.28201398,89.100006,-165.3,-26.7,,,,,x,
1040602,2.1646795,8.559426,-3.3352451,0.67073596,-0.53354,0.548784,89.100006,-165.3,-24.900002,,,,,,
1040622,2.5462947,9.247291,-2.987724,0.060976,-0.586894,0.320124,86.700005,-162.90001,-26.1,,,,,,
1040644,2.6461844,9.530212,-2.9267135,-0.663114,-0.320124,-0.67835796,91.5,-160.5,-24.300001,,,,,,
1040664,2.3243835,8.782534,-2.664727,-1.478668,-0.35061198,-1.6463519,86.700005,-162.90001,-23.1,,,,,,
1040684,2.1431463,8.267532,-2.4278624,-1.6463519,-0.22865999,-1.48629,91.5,-165.3,-23.1,,,,,,
1040748,1.8219435,9.313684,-2.2083437,-0.26677,-0.137196,-0.625004,96.3,-160.5,-27.300001,,,,,,
1040768,1.3565882,8.370413,-2.4158995,-0.007622,0.30488,-1.150922,93.9,-167.70001,-24.900002,,,,,,
1040788,1.4534874,8.647353,-2.5708184,0.594516,0.213416,-0.754578,96.3,-162.90001,-26.1,,,,,,
1040808,1.4134119,9.284375,-2.8244312,0.868908,0.297258,-0.518296,96.3,-162.90001,-26.1,,,,,,
1040851,1.4720298,8.987098,-3.0062666,-0.388722,0.503052,-0.259148,93.9,-162.90001,-24.900002,,,,,,
1040918,2.029499,9.215589,-2.3919737,-1.6234859,0.792688,-0.259148,91.5,-167.70001,-25.500002,,,,,,
1040938,1.9607127,8.548659,-2.2615786,-1.8673899,1.265252,-1.074702,91.5,-165.3,-25.500002,,,,,,
1040981,1.7633255,8.747841,-2.3620665,-0.907018,1.417692,-0.365856,96.3,-160.5,-27.300001,,,,,,
1041001,1.4493004,9.031361,-2.3423278,-0.640248,1.044214,-0.548784,89.100006,-160.5,-27.300001,,,,,,
1041023,1.4463097,9.636084,-2.280719,-0.198172,0.47256398,-0.548784,96.3,-162.90001,-26.7,,,,,,
1041043,0.9486548,10.08469,-2.024714,-0.426832,0.327746,-0.80793196,93.9,-165.3,-27.300001,,,,,,
1041063,0.33137122,10.722311,-2.2011662,-0.83842,0.11432999,-0.69360197,103.50001,-162.90001,-25.500002,,,,,x,
1041083,-0.0681883,10.674459,-1.6113971,-0.975616,-0.899396,-0.785066,96.3,-162.90001,-26.7,,,,,x,
1041103,-0.54789895,10.044017,-1.2991666,-1.775926,-1.707328,-0.586894,101.100006,-165.3,-24.900002,,,,,x,
1041125,-0.6591536,8.917115,-1.032993,-2.378064,-2.97258,-0.03811,93.9,-165.3,-28.500002,,,,,x,
1041146,-0.62984455,8.140726,-0.6573591,-1.8369019,-4.618932,1.013726,103.50001,-165.3,-27.900002,,,,,x,
1041166,-0.5484971,7.6957073,-0.37922263,-1.089946,-6.341504,1.935988,96.3,-165.3,-29.1,,,,,x,
1041186,-0.10886202,7.589836,-0.2781365,-0.93750596,-7.957368,2.7667859,101.100006,-167.70001,-27.900002,,,,,x,
1041206,1.0999849,7.5838547,0.22789247,-1.3567159,-9.763782,3.033556,98.700005,-160.5,-28.500002,,,,,x,
1041250,1.8841504,5.3025374,0.7877543,-1.189032,-7.8277936,1.745438,93.9,-167.70001,-32.100002,,,,,x,
1041281,1.4798057,4.0524187,0.75844526,-0.67073596,-7.5457797,0.55640596,91.5,-165.3,-31.500002,,,,,x,
1041301,1.4343468,3.5134919,0.815867,-0.67073596,-7.3171196,0.28201398,93.9,-165.3,-30.900002,,,,,x,
1041341,1.8022047,3.489566,0.51141226,-0.03811,-5.5183277,-0.769822,93.9,-170.1,-31.500002,,,,,x,
1041396,1.6371173,2.8752732,-1.4845909,3.018312,-4.131124,-0.998482,96.3,-162.90001,-32.100002,,,,,x,
1041416,1.5264609,4.1947765,-2.1634831,3.033556,-3.079288,0.358234,101.100006,-162.90001,-32.100002,,,,,x,
1041458,1.5491903,6.462935,-5.1697497,3.7576458,-1.3719599,-0.358234,91.5,-160.5,-32.100002,,,,,x,
1041538,2.715569,10.204917,-6.439009,1.250008,-0.099086,-2.97258,98.700005,-160.5,-27.300001,,,,,x,
1041584,2.1198187,10.395725,-7.5796676,2.500016,6.181442,-4.756128,105.9,-155.70001,-27.900002,,,,,x,
1041604,1.8733838,12.355241,-8.652737,2.385686,7.263766,-4.199722,113.100006,-160.5,-26.7,,,,,x,
1041644,0.81048375,11.487934,-8.176016,0.007622,8.719568,-7.50767,122.700005,-146.1,-26.7,,,,,x,
1041687,0.83740014,11.903045,-8.833375,0.19055,9.6418295,-5.838452,132.3,-146.1,-23.1,,,,,x,
1041707,0.22011662,11.420343,-8.262149,-1.006104,9.10829,-5.236314,132.3,-143.70001,-23.1,,,,,x,
1041747,-0.1501339,11.82409,-7.146014,-2.035074,11.455866,-7.042728,144.3,-143.70001,-24.900002,,,,,x,
1041767,-1.342831,10.615842,-8.432021,-0.95274997,12.355262,-6.112844,146.70001,-138.90001,-19.5,,,,,x,
1041787,-1.0993868,11.458625,-7.396636,-1.3872039,8.201272,-3.940574,146.70001,-138.90001,-18.900002,,,,,x,
1041811,-1.4205896,12.377971,-5.5364113,-2.568614,8.445176,-3.452766,149.1,-138.90001,-18.900002,,,,,x,
1041831,-2.5050228,13.663978,-6.5496655,-2.980202,12.789716,-3.2774599,153.90001,-141.3,-20.7,,,,,x,
1041851,-2.3471131,14.012097,-7.1759214,-1.669218,11.486354,-3.6890478,144.3,-138.90001,-18.900002,,,,,x,
1041872,-2.4529843,14.404479,-6.0544033,-1.79117,9.131156,-3.8262439,151.5,-141.3,-19.5,,,,,x,
1041892,-3.4124057,15.2353,-6.6411815,-2.149404,10.998546,-2.7820299,151.5,-136.5,-20.1,,,,,x,
1041912,-3.3705356,16.152252,-6.321175,-2.347576,7.942124,-2.423796,153.90001,-134.1,-18.300001,,,,,x,
1041932,-2.8316088,15.801741,-5.321678,-2.47715,7.256144,-3.650938,156.3,-136.5,-17.7,,,,,x,
1041952,-3.648074,14.678429,-6.869672,-1.471046,9.512256,-2.8048959,151.5,-131.70001,-17.1,,,,,x,
1041972,-3.2162147,15.683309,-6.6549387,-1.196654,4.4207597,-0.083841994,149.1,-129.3,-16.5,,,,,x,
1041993,-3.0295942,16.092438,-4.8258176,-3.094532,2.911604,0.129574,144.3,-138.90001,-15.3,,,,,x,
1042016,-4.0015764,14.704148,-6.104647,-3.7652678,4.38265,0.72409,146.70001,-134.1,-19.5,,,,,x,
1042036,-3.701907,14.000134,-4.7809567,-4.11588,0.548784,1.280496,144.3,-141.3,-18.900002,,,,,x,
1042056,-3.3316565,12.446757,-3.3352451,-4.390272,-0.67835796,1.189032,146.70001,-141.3,-17.7,,,,,x,
1042076,-3.271842,11.724798,-2.9524338,-3.88722,-0.198172,1.9131219,144.3,-141.3,-21.900002,,,,,x,
1042096,-2.957219,10.554831,-2.9051805,-3.35368,-1.051836,2.2103798,139.5,-143.70001,-20.1,,,,,x,
1042117,-2.45119,10.002745,-1.9559275,-2.317088,-3.102154,3.08691,141.90001,-143.70001,-21.300001,,,,,x,
1042137,-1.9421703,9.927977,-1.3015591,-2.6677,-3.079288,3.2164838,141.90001,-143.70001,-21.900002,,,,,x,
1042157,-1.5288534,9.066651,-1.025217,-3.7347798,-2.62959,2.881116,137.1,-146.1,-21.300001,,,,,x,
1042177,-1.2525114,8.564211,-0.73272514,-5.343022,-2.8048959,4.0320377,129.90001,-148.5,-24.300001,,,,,x,
1042197,-1.493563,7.2794,-0.57122654,-7.042728,-1.8750119,4.0015497,134.70001,-160.5,-24.300001,,,,,x,
1042217,-1.418197,7.146014,-0.72435117,-6.8369336,-2.385686,5.0228977,127.50001,-150.90001,-26.1,,,,,x,
1042237,-0.8140726,6.9737487,-0.2254999,-7.461938,-3.559474,4.245454,122.700005,-155.70001,-27.300001,,,,,x,
1042258,-0.79553014,4.6254396,0.4175038,-6.181442,-3.7957559,1.1356779,120.3,-160.5,-29.1,,,,,x,
1042279,-1.4463097,2.4541807,0.0681883,-2.7362978,-3.54423,1.471046,117.9,-160.5,-30.900002,,,,,x,
1042299,-1.1657807,2.47691,-0.20695747,-1.6387299,-4.657042,5.205826,113.100006,-158.1,-30.900002,,,,,x,
1042319,-0.40314835,4.2737317,-0.25720146,-0.022866,-6.59303,6.25004,113.100006,-160.5,-30.300001,,,,,x,
1042359,0.65795726,4.099074,0.06280501,1.006104,-8.6814575,4.778994,98.700005,-162.90001,-30.300001,,,,,x,
1042379,1.3015591,4.301246,0.26497734,1.173788,-8.780544,4.4512477,96.3,-162.90001,-31.500002,,,,,x,
1042403,1.6843706,4.652356,0.14355431,0.983238,-7.218034,3.932952,101.100006,-167.70001,-32.100002,,,,,x,
1042423,2.0821357,5.324669,-0.117834166,1.18141,-6.486322,3.96344,86.700005,-170.1,-33.300003,,,,,x,
1042443,2.2974672,5.6458716,-0.32897863,1.097568,-5.762232,3.39179,91.5,-165.3,-30.900002,,,,,x,
1042465,3.020622,6.6932197,-0.6932477,1.3414719,-5.44973,3.841488,89.100006,-170.1,-31.500002,,,,,x,
1042485,3.3992465,7.441497,-0.79313755,1.211898,-5.510706,3.1783738,84.3,-174.90001,-30.300001,,,,,x,
1042505,4.083522,7.9708533,-0.9576269,1.158544,-5.0991178,2.637212,77.100006,-170.1,-30.900002,,,,,x,
1042529,4.391566,8.177213,-1.0186375,1.1128119,-4.504602,1.6387299,69.9,-170.1,-30.900002,,,,,x,
1042549,4.5458865,8.176016,-1.1633881,1.425314,-3.39179,0.60976,67.5,-170.1,-29.1,,,,,x,
1042569,4.5177736,8.781337,-1.5695271,1.8369019,-1.8978779,0.19055,77.100006,-167.70001,-30.900002,,,,,x,
1042589,3.9818377,8.20712,-2.2370548,1.06708,-0.16768399,-1.463424,72.3,-167.70001,-28.500002,,,,,x,
1042609,3.5445952,8.086893,-2.9273117,2.073184,0.579272,-1.41007,77.100006,-170.1,-29.1,,,,,x,
1042632,2.9267135,8.610268,-3.4076204,2.850628,0.28201398,-0.442076,77.100006,-162.90001,-29.1,,,,,,
1042652,2.8812547,9.126466,-3.212626,2.393308,0.129574,-0.327746,77.100006,-165.3,-27.900002,,,,,,
1042672,2.4882748,9.195251,-3.250309,0.975616,0.80793196,-0.716468,77.100006,-162.90001,-27.900002,,,,,,
1042692,2.4529843,9.023585,-3.405228,0.121952,1.013726,-1.166166,81.9,-170.1,-29.1,,,,,,
1042712,2.2478213,9.092371,-3.0726604,0.373478,0.708846,-1.06708,86.700005,-165.3,-27.300001,,,,,,
1042733,1.9714792,9.023585,-3.255094,-0.41158798,1.288118,-1.29574,77.100006,-170.1,-29.1,,,,,,
1042753,1.8303175,8.733485,-3.2574866,-0.327746,0.92988396,-1.166166,77.100006,-170.1,-27.900002,,,,,,
1042773,1.8584303,8.57438,-2.9853315,-0.312502,0.365856,-0.80793196,81.9,-167.70001,-27.900002,,,,,,
1042793,1.953535,8.63539,-2.9189377,-0.46494198,0.47256398,-0.49543,81.9,-162.90001,-28.500002,,,,,,
1042813,2.1616888,8.984706,-3.1270914,0.129574,0.35061198,-0.442076,84.3,-162.90001,-27.900002,,,,,,
1042833,2.1449406,8.796888,-2.8710864,0.251526,-0.129574,-0.792688,84.3,-162.90001,-27.900002,,,,,,
1042916,1.823738,9.083399,-2.7430837,-0.625004,0.907018,-1.3872039,89.100006,-165.3,-26.7,,,,,,
1042961,1.9475535,9.108521,-2.3716369,-0.81555396,1.1128119,-0.907018,89.100006,-162.90001,-26.1,,,,,,
1042981,1.7956252,9.142615,-2.4212828,-0.60976,1.25763,-0.846042,86.700005,-167.70001,-27.300001,,,,,,
1043001,1.9302074,9.00265,-2.254401,-0.365856,1.3567159,-1.432936,89.100006,-160.5,-29.1,,,,,,
1043021,1.426571,8.77715,-2.3746276,-0.106708,1.516778,-1.189032,93.9,-162.90001,-29.1,,,,,,
1043104,0.5909653,9.535595,-2.3327575,0.068598,0.0,-0.22865999,93.9,-165.3,-29.1,,,,,x,
1043138,0.63223714,11.291743,-1.4361413,-0.792688,-1.1051899,0.731712,86.700005,-165.3,-27.300001,,,,,x,
1043201,0.3588858,7.854215,-0.06459944,-2.027452,-3.003068,-0.297258,96.3,-167.70001,-27.300001,,,,,x,
1043221,0.14654502,7.585051,-0.18662061,-1.98172,-3.35368,1.1204339,96.3,-165.3,-30.300001,,,,,x,
1043244,-0.14594689,7.399029,-0.36008206,-1.33385,-5.129606,1.432936,91.5,-165.3,-30.900002,,,,,x,
1043264,-0.10288059,6.596919,-0.19559275,-0.67073596,-7.73633,1.234764,91.5,-162.90001,-29.1,,,,,x,
1043324,1.2788297,4.6661134,0.9965062,-1.547266,-11.600684,1.966476,81.9,-167.70001,-31.500002,,,,,x,
1043347,1.3763269,3.279618,0.7016217,-1.265252,-10.274456,1.059458,91.5,-162.90001,-33.9,,,,,x,
1043367,1.3577845,3.2066445,0.53234726,-0.70122397,-9.878112,1.196654,86.700005,-165.3,-32.100002,,,,,x,
1043387,1.6413043,3.3376377,0.53832865,-0.47256398,-9.26073,0.91463995,84.3,-167.70001,-31.500002,,,,,x,
1043411,2.0773506,3.6869533,-0.0891233,-0.53354,-6.737848,0.19055,79.5,-167.70001,-33.9,,,,,x,
1043431,1.8931226,3.5451934,-1.0138524,0.53354,-5.5793037,-0.868908,84.3,-167.70001,-33.300003,,,,,x,
1043453,1.9942087,3.908266,-1.5515828,2.606724,-5.670768,-0.716468,84.3,-167.70001,-33.9,,,,,x,
1043473,1.8165601,4.2779183,-2.3142152,3.025934,-5.434486,-0.40396598,84.3,-177.3,-33.9,,,,,x,
1043495,1.8506544,4.5010257,-3.2359536,3.7957559,-5.251558,0.03811,93.9,-167.70001,-33.300003,,,,,x,
1043515,2.4499936,5.338426,-4.33534,4.832348,-2.873494,0.26677,89.100006,-160.5,-32.100002,,,,,x,
1043535,3.7198513,9.06067,-6.5281324,6.0594897,0.746956,2.507638,84.3,-165.3,-30.900002,,,,,x,
1043559,1.8386915,8.953004,-7.3069143,3.041178,-0.792688,-3.902464,79.5,-162.90001,-30.300001,,,,,x,
1043579,1.8596265,8.430227,-7.776457,2.919226,1.41007,-4.321674,81.9,-165.3,-30.300001,,,,,x,
1043619,2.2657657,10.767172,-6.531721,0.259148,-0.56402797,-3.2622159,91.5,-162.90001,-27.900002,,,,,x,
1043679,1.5784993,10.972335,-7.253082,0.64787,5.129606,-3.597584,101.100006,-158.1,-28.500002,,,,,x,
1043699,0.8936256,10.780331,-6.7291083,0.091464,6.455834,-4.817104,105.9,-148.5,-27.300001,,,,,x,
1043719,0.6208724,11.933551,-6.535908,-0.289636,7.43145,-4.939056,115.50001,-158.1,-27.300001,,,,,x,
1043741,0.15432088,12.0992365,-7.141827,-0.60976,10.350676,-6.036624,108.3,-150.90001,-26.1,,,,,x,
1043762,-0.055029154,12.736856,-7.84943,-0.16768399,11.09001,-5.52595,110.700005,-146.1,-26.7,,,,,x,
1043783,-0.73751026,11.892279,-7.638884,-0.26677,10.1372595,-5.785098,125.100006,-146.1,-26.1,,,,,x,
1043803,-0.44023323,12.848709,-7.007245,-0.3811,10.44214,-3.7881339,125.100006,-153.3,-22.5,,,,,x,
1043823,0.20396675,15.636055,-6.387569,-1.821658,11.997027,-3.376546,132.3,-143.70001,-23.7,,,,,x,
1043843,-1.1974822,13.756092,-7.629912,-1.3872039,16.88273,-7.0960817,129.90001,-143.70001,-24.300001,,,,,x,
1043863,-1.3781214,13.324831,-9.215589,0.49543,15.564124,-5.29729,132.3,-146.1,-22.5,,,,,x,
1043883,-0.80749303,14.8201885,-7.5623217,0.068598,9.748538,-2.89636,132.3,-148.5,-21.900002,,,,,x,
1043923,-1.3870935,16.945988,-8.469705,-1.21952,14.359848,-5.388754,139.5,-143.70001,-20.1,,,,,x,
1043943,-1.501937,14.887778,-7.835673,-0.541162,7.804928,-4.68753,144.3,-136.5,-18.300001,,,,,x,
1043963,-1.4259728,15.502071,-6.8212223,-1.417692,6.829312,-3.445144,137.1,-136.5,-19.5,,,,,x,
1043987,-2.668316,15.40278,-6.3181844,-2.995446,8.750056,-3.92533,141.90001,-141.3,-17.7,,,,,x,
1044007,-3.3442173,12.7039585,-5.242723,-3.2012398,5.708878,-4.5579557,146.70001,-143.70001,-17.7,,,,,x,
1044027,-2.5624444,12.058562,-2.940471,-2.82014,2.8048959,-1.951232,141.90001,-138.90001,-17.7,,,,,x,
1044051,-2.8812547,12.178789,-2.2448306,-2.7134318,5.5488157,-0.960372,144.3,-146.1,-16.5,,,,,x,
1044071,-4.0512223,12.062151,-3.4375277,-1.951232,4.68753,-1.242386,141.90001,-136.5,-19.5,,,,,x,
1044091,-3.6373074,12.154265,-3.811367,-1.8292799,3.513742,-0.23628199,139.5,-141.3,-18.900002,,,,,x,
1044111,-3.410013,11.433503,-3.3083289,-2.080806,1.1356779,0.67835796,149.1,-143.70001,-19.5,,,,,x,
1044135,-2.3124208,11.704462,-2.8124683,-2.2180018,-0.259148,3.8186219,134.70001,-143.70001,-19.5,,,,,x,
1044156,-2.254401,10.935848,-2.037275,-3.368924,-0.022866,2.6677,137.1,-143.70001,-21.300001,,,,,x,
1044177,-2.10008,9.444079,-2.0881171,-3.0488,0.586894,1.8673899,141.90001,-146.1,-20.7,,,,,x,
1044219,-2.2071476,7.1472106,-1.5210776,-2.6829438,-1.532022,1.98172,134.70001,-141.3,-21.300001,,,,,x,
1044240,-1.6825762,7.413982,-1.1723602,-2.637212,-2.599102,5.091496,129.90001,-146.1,-22.5,,,,,x,
1044261,-1.3990564,6.790119,-1.1466401,-4.4360037,-2.6829438,5.708878,122.700005,-153.3,-23.7,,,,,x,
1044281,-0.7787821,5.702695,-1.0515354,-3.7957559,-4.26832,6.32626,117.9,-158.1,-22.5,,,,,x,
1044301,-0.5401231,5.206835,-0.8463723,-3.7042918,-5.18296,5.8765616,110.700005,-162.90001,-26.1,,,,,x,
1044321,-0.40255022,4.8521357,-0.8248392,-3.650938,-5.5030837,5.5183277,110.700005,-160.5,-26.1,,,,,x,
1044341,-0.08792701,4.543494,-0.6172835,-3.1859958,-6.577786,5.160094,103.50001,-158.1,-27.300001,,,,,x,
1044361,0.2673699,4.438819,-0.30266035,-2.82014,-7.233278,4.489358,98.700005,-167.70001,-27.300001,,,,,x,
1044381,0.45997193,4.1995616,-0.17705032,-2.7667859,-7.339986,3.551852,101.100006,-165.3,-28.500002,,,,,x,
1044402,1.0425632,4.1893935,-0.13338588,-1.67684,-7.713464,3.094532,91.5,-170.1,-29.1,,,,,x,
1044423,1.3117275,4.0464373,-0.013159146,-1.3567159,-7.568646,2.7362978,93.9,-170.1,-30.300001,,,,,x,
1044443,2.054023,4.054811,0.028710863,-0.7622,-7.1113257,3.079288,89.100006,-162.90001,-29.7,,,,,x,
1044463,2.7586353,4.9472404,0.0723753,0.137196,-6.181442,3.7424018,86.700005,-170.1,-30.900002,,,,,x,
1044483,3.1809244,5.8211274,-0.07476787,0.23628199,-4.68753,3.605206,84.3,-167.70001,-32.100002,,,,,x,
1044503,3.1193156,5.815744,-0.6011337,-0.022866,-3.003068,2.40093,81.9,-170.1,-30.900002,,,,,x,
1044543,4.450782,7.802177,-1.4498986,1.699706,-1.8292799,2.050318,77.100006,-170.1,-29.1,,,,,x,
1044603,3.539212,8.045621,-2.45119,-0.426832,0.312502,-1.996964,74.700005,-174.90001,-32.7,,,,,x,
1044643,3.5374177,9.980614,-3.0260053,0.792688,0.34298998,0.327746,77.100006,-167.70001,-29.1,,,,,,
1044663,3.188102,10.008128,-3.8556297,0.221038,0.891774,-0.769822,72.3,-162.90001,-29.7,,,,,,
1044703,3.017033,9.846629,-3.0517254,1.1051899,-0.64787,-0.70122397,79.5,-167.70001,-30.300001,,,,,,
1044743,2.0444527,8.79629,-2.7089896,-0.144818,0.3811,-2.05794,81.9,-165.3,-30.300001,,,,,,
1044763,1.4869834,8.183792,-2.4452085,0.045732,0.144818,-1.974098,86.700005,-165.3,-28.500002,,,,,,
1044805,1.2883999,8.970948,-2.1287909,0.26677,0.22865999,-0.99086,89.100006,-162.90001,-29.7,,,,,,
1044900,1.0742648,8.847133,-2.8298144,1.013726,1.6158639,0.07622,91.5,-162.90001,-29.1,,,,,,
1044940,1.7316239,9.512866,-2.7388966,0.93750596,0.83842,0.259148,86.700005,-165.3,-28.500002,,,,,,
1044960,1.8757764,9.554137,-2.874077,0.716468,0.830798,-0.34298998,81.9,-158.1,-27.300001,,,,,,
1045000,1.7675124,8.9894905,-2.7879443,0.289636,0.708846,-1.234764,89.100006,-160.5,-26.1,,,,,,
1045059,1.2668668,9.261047,-2.4344418,0.15244,1.044214,-0.785066,96.3,-165.3,-26.7,,,,,,
1045079,1.355392,9.277796,-2.200568,-0.259148,0.92226195,-0.503052,93.9,-160.5,-27.900002,,,,,,
1045122,0.9301123,8.971546,-2.1102483,-0.312502,0.67073596,-0.20579399,93.9,-162.90001,-26.7,,,,,,
1045144,0.94028074,9.41477,-2.2143252,0.160062,0.602138,0.182928,91.5,-160.5,-26.7,,,,,,
1045164,0.89542,10.025475,-2.1329777,0.46494198,-0.030488,0.373478,96.3,-160.5,-26.1,,,,,x,
1045186,0.53234726,9.686327,-2.2101383,-0.11432999,-0.41921,0.28201398,91.5,-167.70001,-25.500002,,,,,x,
1045266,0.6848737,7.9804235,-0.5790024,-1.166166,-8.071698,3.2241058,84.3,-167.70001,-27.300001,,,,,x,
1045301,1.2172209,7.629912,0.25959405,-1.9054999,-9.443658,3.7576458,81.9,-165.3,-28.500002,,,,,x,
1045321,0.9468603,6.083712,0.35410064,-2.903982,-9.649452,2.7744079,81.9,-170.1,-30.300001,,,,,x,
1045362,1.3960657,3.7832544,1.5473958,-1.692084,-10.114394,3.475632,72.3,-170.1,-30.900002,,,,,x,
1045382,1.3524013,3.890322,0.6292464,-1.227142,-7.92688,2.964958,72.3,-174.90001,-30.900002,,,,,x,
1045402,1.3105313,3.9609027,0.25540704,-0.55640596,-7.782062,2.583858,72.3,-165.3,-31.500002,,,,,x,
1045422,1.6137897,3.3537877,-0.04426258,-0.20579399,-7.522914,0.960372,74.700005,-170.1,-32.7,,,,,x,
1045444,2.1258001,3.0044723,-0.33376378,-0.022866,-6.66925,0.33536798,69.9,-167.70001,-29.1,,,,,x,
1045464,2.129389,2.9506392,-0.85355,0.121952,-5.708878,0.243904,72.3,-167.70001,-30.300001,,,,,x,
1045484,2.7472706,3.6163723,-1.2196136,0.525918,-5.289668,0.022866,65.100006,-167.70001,-31.500002,,,,,x,
1045504,2.4793026,3.4369295,-1.6526691,0.846042,-3.597584,-1.013726,65.100006,-162.90001,-30.300001,,,,,x,
1045548,1.9337962,4.764209,-3.6253445,2.911604,-1.417692,-1.074702,67.5,-167.70001,-31.500002,,,,,x,
1045568,2.0809393,6.0358605,-5.5920386,4.939056,0.053354,-1.158544,77.100006,-170.1,-28.500002,,,,,x,
1045588,2.7466726,7.104144,-6.715351,5.853696,-2.7896519,-0.67073596,69.9,-167.70001,-28.500002,,,,,x,
1045608,2.1766422,8.211307,-6.0221033,4.375028,-4.641798,-0.80030996,74.700005,-170.1,-27.300001,,,,,x,
1045652,3.250309,10.538681,-7.763896,4.34454,0.846042,-2.7362978,81.9,-162.90001,-25.500002,,,,,x,
1045672,3.4793978,10.930465,-8.650344,4.123502,1.013726,-4.504602,79.5,-158.1,-24.900002,,,,,x,
1045696,3.0923991,11.258845,-8.288467,2.393308,1.3567159,-5.266802,91.5,-158.1,-24.300001,,,,,x,
1045716,2.9141526,11.410175,-8.096463,1.6082419,3.92533,-6.333882,89.100006,-158.1,-24.300001,,,,,x,
1045736,2.5145931,11.714032,-8.53251,1.3719599,7.5915117,-6.608274,96.3,-150.90001,-23.7,,,,,x,
1045756,2.1664739,11.603375,-9.343592,1.3872039,9.801891,-7.225656,101.100006,-158.1,-23.7,,,,,x,
1045776,1.1807343,10.326939,-9.082203,1.501534,8.544262,-7.9802337,110.700005,-153.3,-21.300001,,,,,x,
1045798,0.6753034,11.499299,-7.9373574,-0.41158798,7.20279,-6.204308,115.50001,-150.90001,-21.900002,,,,,x,
1045818,0.62446123,12.324138,-8.004948,-1.089946,11.791234,-6.532054,108.3,-150.90001,-21.300001,,,,,x,
1045838,-0.5634507,10.96097,-9.535595,1.204276,13.948259,-8.315601,125.100006,-143.70001,-21.300001,,,,,x,
1045858,-0.44083136,11.148787,-9.720422,0.69360197,8.978716,-5.3354,117.9,-148.5,-20.1,,,,,x,
1045881,-0.31701577,12.270305,-7.7824383,-2.157026,6.234796,-3.993928,125.100006,-143.70001,-18.900002,,,,,x,
1045902,-1.5414144,12.026861,-7.8548136,-0.251526,10.000064,-4.923812,134.70001,-141.3,-17.1,,,,,x,
1045923,0.2673699,16.72049,-8.618044,-0.56402797,8.521396,1.3414719,127.50001,-141.3,-18.300001,,,,,x,
1045943,-2.3656554,17.362894,-6.124984,-6.532054,6.875044,-6.44059,132.3,-143.70001,-19.5,,,,,x,
1045963,-4.6296268,13.527601,-8.731691,-0.243904,14.276006,-9.29884,129.90001,-141.3,-18.300001,,,,,x,
1046026,-2.7048025,15.226328,-5.8205295,-2.964958,4.939056,-2.980202,139.5,-136.5,-18.300001,,,,,x,
1046046,-3.1779337,15.440463,-4.914941,-4.565578,6.318638,-1.6387299,146.70001,-146.1,-18.900002,,,,,x,
1046066,-3.5619414,15.253842,-5.8067718,-3.2850819,7.0351057,-2.05794,139.5,-141.3,-18.900002,,,,,x,
1046086,-3.2939734,14.122754,-4.837182,-2.378064,3.1936178,-1.6158639,139.5,-141.3,-18.300001,,,,,x,
1046106,-2.8806565,13.797364,-2.7586353,-4.009172,1.310984,-0.243904,139.5,-143.70001,-18.300001,,,,,x,
1046146,-3.4500887,12.377971,-4.513587,-4.550334,6.4939437,1.3719599,134.70001,-141.3,-20.7,,,,,x,
1046166,-3.2969642,11.133235,-3.8257225,-2.995446,1.547266,1.3948259,137.1,-148.5,-20.1,,,,,x,
1046188,-2.7406912,9.586437,-2.2729433,-2.55337,-0.975616,1.471046,132.3,-146.1,-20.7,,,,,x,
1046208,-2.7819629,8.907545,-1.6078084,-2.835384,0.327746,3.551852,132.3,-153.3,-19.5,,,,,x,
1046231,-2.196381,9.076221,-1.9320018,-3.597584,1.79117,4.9619217,127.50001,-153.3,-21.300001,,,,,x,
1046251,-1.8063917,8.7735615,-2.1371648,-3.2317278,1.234764,4.748506,127.50001,-155.70001,-21.300001,,,,,x,
1046271,-1.9373851,8.194559,-1.9595164,-2.2713559,-0.365856,3.109776,120.3,-155.70001,-20.7,,,,,x,
1046291,-1.824336,6.4055133,-1.531246,-1.783548,-1.8292799,0.80030996,110.700005,-155.70001,-23.7,,,,,x,
1046315,-0.782371,5.3910627,-0.4761218,-1.966476,-3.589962,2.7515419,113.100006,-150.90001,-23.1,,,,,x,
1046335,-0.39776507,4.78634,-0.0765623,-3.407034,-3.2012398,2.850628,113.100006,-158.1,-24.900002,,,,,x,
1046357,-0.13278773,3.916042,-0.5658432,-3.498498,-2.6677,2.62959,115.50001,-158.1,-23.7,,,,,x,
1046377,0.14953575,3.38848,-0.79373574,-2.416174,-4.100636,3.422278,108.3,-162.90001,-28.500002,,,,,x,
1046397,0.32180092,3.2479162,-0.45997193,-1.966476,-5.838452,4.15399,101.100006,-162.90001,-28.500002,,,,,x,
1046437,1.430758,3.2078407,0.012561003,-0.94512796,-7.057972,4.283564,98.700005,-165.3,-27.300001,,,,,x,
1046459,1.865608,3.367545,0.14415246,-1.166166,-6.577786,3.948196,96.3,-160.5,-27.900002,,,,,x,
1046479,2.539715,4.2952647,-0.020935005,-1.013726,-6.1052217,4.38265,86.700005,-162.90001,-27.900002,,,,,x,
1046499,2.4027402,4.242628,-0.32897863,-1.166166,-5.434486,3.628072,89.100006,-162.90001,-29.7,,,,,x,
1046523,3.4357333,5.665012,-0.4498035,0.129574,-6.181442,5.343022,86.700005,-167.70001,-30.300001,,,,,x,
1046543,3.953127,6.4784865,-0.14654502,-0.67073596,-5.3811316,4.87808,79.5,-170.1,-29.1,,,,,x,
1046565,4.3078256,7.3075128,-0.6477888,-0.67073596,-3.6890478,4.329296,72.3,-170.1,-29.1,,,,,x,
1046585,4.5871587,7.9140296,-0.99172103,-0.068598,-3.08691,3.2012398,69.9,-170.1,-29.7,,,,,x,
1046645,4.1481214,8.554043,-1.7471756,-0.045732,0.259148,-1.455802,69.9,-167.70001,-29.7,,,,,x,
1046861,1.6030232,8.677858,-3.213224,0.426832,1.806414,-1.3414719,81.9,-167.70001,-29.1,,,,,,
1046881,1.5545735,8.434414,-3.12111,0.434454,1.417692,-0.594516,79.5,-167.70001,-26.7,,,,,,
1046921,1.7256424,8.921901,-2.9434617,-0.137196,0.960372,-0.503052,79.5,-167.70001,-27.300001,,,,,,
1046964,2.0145454,8.621633,-2.6204643,-0.49543,0.92226195,-0.998482,77.100006,-167.70001,-26.7,,,,,,
1047218,0.9378882,10.041624,-1.7035112,-2.7972739,-3.2850819,-1.707328,86.700005,-162.90001,-29.1,,,,,,
1047240,0.72076225,9.220374,-1.0563204,-2.614346,-3.7195358,-1.951232,91.5,-162.90001,-29.7,,,,,x,
1047281,-0.011364716,6.940253,0.059216153,-1.806414,-6.204308,-1.089946,96.3,-162.90001,-32.100002,,,,,x,
1047321,0.3702505,7.870365,0.29727706,-0.30488,-8.30798,2.17227,91.5,-160.5,-32.100002,,,,,x,
1047341,0.62326497,7.3906546,0.47971067,-0.388722,-9.763782,1.9131219,91.5,-165.3,-30.900002,,,,,x,
1047404,1.5252646,5.4664288,0.99889874,-0.861286,-13.506184,2.2942219,93.9,-167.70001,-32.7,,,,,x,
1047456,1.8016067,3.7964134,0.41152236,-1.074702,-11.105254,-0.289636,86.700005,-170.1,-34.5,,,,,x,
1047518,2.1114447,3.7599268,-0.5072252,1.097568,-4.862836,-3.96344,96.3,-160.5,-34.5,,,,,x,
1047578,1.5180869,4.794714,-3.6636257,1.958854,-1.6082419,-0.792688,110.700005,-160.5,-36.300003,,,,,x,
1047598,1.1615937,5.8707733,-4.075746,1.951232,0.60976,-1.463424,105.9,-162.90001,-34.5,,,,,x,
1047640,1.7471756,8.092277,-7.497722,3.6738038,3.414656,-0.830798,110.700005,-153.3,-33.9,,,,,x,
1047661,2.1521184,9.286768,-5.9676723,1.455802,-0.320124,-1.516778,113.100006,-158.1,-32.7,,,,,x,
1047681,1.8153639,9.13783,-5.9718595,1.288118,3.2545938,-3.7500238,105.9,-162.90001,-31.500002,,,,,x,
1047702,1.4080286,9.654626,-6.5065994,1.29574,4.207344,-3.521364,113.100006,-153.3,-33.300003,,,,,x,
1047722,1.5264609,10.852706,-6.124386,0.93750596,4.4360037,-3.589962,115.50001,-162.90001,-30.900002,,,,,x,
1047742,0.93190676,11.394026,-6.211117,0.967994,6.890288,-4.718018,117.9,-158.1,-31.500002,,,,,x,
1047762,0.3564932,11.382661,-6.982123,0.449698,9.596098,-5.37351,117.9,-148.5,-30.900002,,,,,x,
1047782,0.635826,11.603973,-7.238128,1.227142,9.5275,-4.565578,127.50001,-143.70001,-27.900002,,,,,x,
1047802,0.6166854,12.301409,-7.0275817,1.25763,10.221102,-4.38265,132.3,-150.90001,-29.1,,,,,x,
1047822,0.2296869,13.356532,-8.199344,1.326228,13.170815,-3.605206,134.70001,-146.1,-29.1,,,,,x,
1047844,0.13577846,13.09634,-8.606081,0.731712,10.815618,-5.8613176,141.90001,-146.1,-25.500002,,,,,x,
1047864,0.20635933,13.906226,-8.076126,0.17530599,10.106771,-4.9771657,139.5,-146.1,-25.500002,,,,,x,
1047885,-0.01794429,15.274777,-8.497219,-1.1128119,12.08087,-4.550334,141.90001,-143.70001,-23.7,,,,,x,
1047946,-1.5743123,15.336386,-7.681352,-2.545748,11.295804,-5.975648,151.5,-141.3,-20.1,,,,,x,
1047966,-2.819048,14.356627,-7.9337683,-1.272874,12.721118,-7.027484,151.5,-141.3,-21.900002,,,,,x,
1047986,-3.4333405,14.9822855,-7.7710733,-1.730194,11.501597,-5.464974,158.70001,-138.90001,-20.1,,,,,x,
1048006,-4.005165,16.135506,-7.7256145,-2.492394,11.654037,-3.894842,158.70001,-134.1,-20.7,,,,,x,
1048029,-4.770788,15.094138,-7.4456835,-1.760682,10.205858,-4.740884,161.1,-129.3,-19.5,,,,,x,
1048049,-3.677383,15.00023,-6.4491777,-2.004586,7.58389,-3.2317278,163.5,-131.70001,-20.7,,,,,x,
1048069,-4.92152,15.364498,-5.8067718,-2.85825,9.22262,-1.806414,168.3,-131.70001,-18.900002,,,,,x,
1048089,-4.605701,16.140888,-5.093786,-3.8109999,6.143332,-0.846042,158.70001,-126.9,-19.5,,,,,x,
1048109,-4.798901,13.637062,-3.465042,-5.0991178,5.18296,-2.36282,165.90001,-134.1,-18.900002,,,,,x,
1048129,-5.212218,11.726593,-4.320985,-3.7271578,6.471078,-0.87653,161.1,-138.90001,-18.300001,,,,,x,
1048149,-4.4567633,13.340383,-3.6666164,-2.423796,1.6234859,2.2484899,158.70001,-136.5,-18.900002,,,,,x,
1048169,-3.7258325,12.91271,-2.028303,-3.833866,-0.716468,1.44818,161.1,-143.70001,-21.900002,,,,,x,
1048189,-3.874172,11.117085,-1.7669144,-4.314052,-0.754578,1.234764,161.1,-141.3,-23.1,,,,,x,
1048209,-3.7760766,10.7390585,-1.8464674,-3.88722,-1.326228,1.3490939,158.70001,-143.70001,-22.5,,,,,x,
1048229,-3.7467675,9.3782835,-1.6502764,-3.102154,-3.338436,1.1051899,161.1,-146.1,-22.5,,,,,x,
1048252,-3.49794,10.006333,-1.1101533,-3.155508,-4.085392,5.769854,153.90001,-146.1,-26.1,,,,,x,
1048272,-3.367545,9.359143,-1.3458217,-4.504602,-3.35368,5.304912,144.3,-143.70001,-24.900002,,,,,x,
1048292,-2.9446578,7.9870033,-1.3978602,-3.0488,-4.085392,5.205826,139.5,-150.90001,-23.1,,,,,x,
1048356,-1.0772555,3.6235502,0.28591233,-2.103672,-6.74547,4.184478,132.3,-150.90001,-27.300001,,,,,x,
1048376,-0.49227166,5.143431,0.3188102,-3.2164838,-4.138746,9.321706,122.700005,-162.90001,-29.7,,,,,x,
1048396,-0.7997171,4.9765496,-1.2220061,-4.9771657,-0.94512796,7.3780956,117.9,-155.70001,-29.1,,,,,x,
1048417,-0.5467027,4.404725,-1.7669144,-1.570132,-3.46801,6.722604,110.700005,-160.5,-30.900002,,,,,x,
1048437,0.24105161,4.5458865,-0.954038,0.099086,-6.36437,6.3567476,108.3,-162.90001,-30.300001,,,,,x,
1048521,3.1121378,4.099074,0.41570938,0.434454,-4.161612,2.835384,86.700005,-165.3,-32.100002,,,,,x,
1048541,3.2407386,4.636804,-0.043664437,0.91463995,-2.980202,2.393308,86.700005,-162.90001,-32.7,,,,,x,
1048561,3.6414945,5.263658,-0.25301448,1.48629,-2.385686,2.027452,96.3,-165.3,-32.7,,,,,x,
1048601,4.1433363,7.167547,-1.2543058,1.8445239,-0.87653,1.6387299,81.9,-162.90001,-29.1,,,,,x,
1048642,4.204347,8.356057,-1.711287,0.53354,0.0,1.18141,84.3,-165.3,-30.300001,,,,,x,
1048662,4.1229997,9.37649,-2.3943663,0.358234,0.503052,0.586894,81.9,-165.3,-29.1,,,,,x,
1048682,3.2700477,8.183194,-2.3608704,0.388722,0.289636,-1.189032,74.700005,-170.1,-30.300001,,,,,x,
1048722,2.794524,9.369311,-3.2556922,0.967994,-0.060976,0.16768399,81.9,-165.3,-29.7,,,,,,
1048745,2.7209523,9.261047,-3.0612957,1.280496,-0.41158798,-0.754578,81.9,-165.3,-30.300001,,,,,,
1048765,2.664727,9.320264,-2.9434617,1.432936,-0.274392,-1.173788,81.9,-170.1,-29.7,,,,,,
1048785,2.5869684,8.97035,-2.7143729,1.02897,0.121952,-1.501534,84.3,-165.3,-29.1,,,,,,
1048805,2.4960506,8.973341,-2.6958303,0.792688,0.632626,-1.3643379,84.3,-167.70001,-30.300001,,,,,,
1048845,2.1234076,9.014014,-2.4619565,0.030488,1.242386,-0.46494198,89.100006,-170.1,-29.1,,,,,,
1048869,1.8985058,8.656325,-2.2747378,-0.19055,1.074702,-0.243904,86.700005,-167.70001,-28.500002,,,,,,
1048890,1.9260204,9.084596,-2.1485295,-0.11432999,1.06708,-0.11432999,93.9,-167.70001,-27.300001,,,,,,
1048910,1.9744699,9.328039,-2.024714,-0.182928,1.166166,-0.396344,79.5,-165.3,-29.1,,,,,,
1048933,1.7214555,9.219776,-1.995405,-0.365856,1.539644,-1.097568,91.5,-170.1,-28.500002,,,,,,
1048953,1.594051,8.954799,-2.0007882,-0.320124,1.760682,-1.4024479,91.5,-165.3,-28.500002,,,,,,
1048975,1.2830167,9.031959,-2.125202,-0.198172,1.8521459,-1.3414719,89.100006,-162.90001,-29.1,,,,,,
1048995,0.9941136,8.851918,-2.3351502,-0.121952,1.79117,-1.310984,84.3,-160.5,-29.1,,,,,,
1049015,1.0246189,9.469201,-2.401544,0.3811,1.204276,-0.884152,89.100006,-162.90001,-27.900002,,,,,,
1049078,1.3081387,9.536194,-2.195783,-0.518296,0.55640596,-0.28201398,86.700005,-158.1,-28.500002,,,,,x,
1049098,1.0401707,9.027772,-2.2902894,-0.663114,0.68597996,-0.617382,93.9,-162.90001,-26.7,,,,,x,
1049120,1.0186375,9.267029,-2.3028505,-0.11432999,0.320124,-0.137196,93.9,-167.70001,-28.500002,,,,,x,
1049140,1.0060765,9.514062,-2.338141,0.045732,0.182928,-0.160062,98.700005,-160.5,-26.7,,,,,x,
1049160,0.8110819,9.701879,-2.2238955,0.221038,-0.40396598,0.07622,89.100006,-158.1,-27.900002,,,,,x,
1049180,0.46954224,9.603186,-2.083332,-0.022866,-1.1280559,0.022866,96.3,-160.5,-28.500002,,,,,x,
1049200,0.46475708,9.814928,-1.8147658,-0.396344,-2.309466,0.49543,89.100006,-167.70001,-29.1,,,,,x,
1049260,0.40255022,8.992481,-1.2734464,-0.92226195,-6.4329677,1.8902559,84.3,-158.1,-29.1,,,,,x,
1049302,0.9115699,7.225567,-0.3283805,-0.83842,-10.038174,2.355198,84.3,-167.70001,-30.900002,,,,,x,
1049378,1.4672447,4.9298944,0.4288685,0.0,-11.524464,1.8673899,81.9,-165.3,-33.300003,,,,,x,
1049398,1.7376053,4.742676,0.6806867,0.007622,-11.265316,1.71495,81.9,-170.1,-32.7,,,,,x,
1049443,1.6305377,3.6426907,-0.047851436,-0.213416,-8.521396,-0.55640596,77.100006,-172.5,-31.500002,,,,,x,
1049483,2.0432563,4.3778086,-1.2112396,0.442076,-5.495462,-1.425314,81.9,-160.5,-32.100002,,,,,x,
1049503,1.3482143,3.6678126,-2.4033384,1.326228,-3.033556,-2.339954,77.100006,-162.90001,-32.7,,,,,x,
1049523,1.3541957,3.7712915,-3.489566,2.888738,-3.132642,-1.71495,86.700005,-162.90001,-30.300001,,,,,x,
1049565,1.7968215,7.108331,-5.1697497,2.919226,-2.6677,-1.310984,81.9,-160.5,-29.1,,,,,x,
1049605,1.0018895,5.1398425,-5.980233,3.955818,-2.644834,-1.8445239,91.5,-167.70001,-31.500002,,,,,x,
1049625,1.5258627,7.132855,-6.4784865,4.9543,-4.0472817,0.053354,91.5,-162.90001,-30.300001,,,,,x,
1049645,2.4912655,9.367517,-5.459251,3.574718,-5.350644,-0.083841994,91.5,-162.90001,-27.900002,,,,,x,
1049668,2.3710387,10.53569,-5.694919,1.051836,-0.480186,-2.141782,93.9,-162.90001,-27.900002,,,,,x,
1049728,1.1280977,10.960372,-7.040741,0.373478,1.8673899,-2.7820299,103.50001,-155.70001,-27.900002,,,,,x,
1049748,1.911665,11.982,-6.626228,-1.760682,4.38265,-3.84911,105.9,-150.90001,-25.500002,,,,,x,
1049768,1.0258152,9.747936,-7.187884,-0.55640596,7.172302,-6.730226,108.3,-158.1,-25.500002,,,,,x,
1049788,0.3923818,9.93336,-7.8500285,0.632626,7.721086,-4.626554,115.50001,-158.1,-26.1,,,,,x,
1049808,1.3398403,12.772745,-6.964777,-1.211898,6.798824,-3.033556,113.100006,-148.5,-24.300001,,,,,x,
1049828,0.77459514,11.87912,-6.3026323,-1.75306,9.481768,-6.760714,125.100006,-153.3,-26.1,,,,,x,
1049848,-0.46595338,10.897567,-8.170633,0.068598,12.789716,-5.3658876,120.3,-143.70001,-23.1,,,,,x,
1049869,-0.33795077,11.998748,-8.114408,-0.160062,11.364402,-3.940574,127.50001,-146.1,-25.500002,,,,,x,
1049890,-0.47253296,13.394216,-6.324764,-1.6387299,8.80341,-4.260698,132.3,-146.1,-24.300001,,,,,x,
1049910,-0.98035634,12.845718,-5.402427,-2.355198,11.669282,-6.4024796,132.3,-143.70001,-23.7,,,,,x,
1049970,-0.3798208,18.94558,-7.1950617,-1.3567159,9.001582,0.083841994,132.3,-150.90001,-20.7,,,,,x,
1049990,-1.3404384,16.957354,-4.907165,-2.644834,9.939088,-8.80341,139.5,-143.70001,-19.5,,,,,x,
1050014,-3.7078884,11.654816,-7.9469275,-0.320124,16.372055,-8.19365,144.3,-141.3,-18.900002,,,,,x,
1050034,-1.987031,15.147971,-8.684438,-0.579272,10.678422,-1.3872039,149.1,-136.5,-18.300001,,,,,x,
1050054,-1.4899741,16.46568,-4.886828,-3.2241058,3.2927039,-3.7119138,146.70001,-138.90001,-18.300001,,,,,x,
1050077,-2.4966488,12.6608925,-4.903576,-1.211898,10.44214,-6.1052217,151.5,-136.5,-19.5,,,,,x,
1050097,-3.128886,12.724894,-6.672285,-1.463424,11.196718,-2.850628,151.5,-136.5,-17.1,,,,,x,
1050118,-2.5738091,14.255542,-6.220089,-0.861286,6.875044,-1.6463519,151.5,-134.1,-18.300001,,,,,x,
1050138,-2.4021423,14.017481,-5.1476183,-1.326228,5.762232,-2.339954,149.1,-134.1,-17.1,,,,,x,
1050199,-2.8178515,12.192546,-4.5865602,-3.986306,3.7271578,0.625004,146.70001,-138.90001,-17.7,,,,,x,
1050219,-2.8429735,11.769659,-3.7413843,-4.275942,1.570132,0.53354,146.70001,-138.90001,-16.5,,,,,x,
1050239,-3.133671,10.286862,-2.5062191,-4.359784,0.022866,0.434454,144.3,-138.90001,-18.900002,,,,,x,
1050279,-2.9919112,9.606774,-1.5258627,-4.329296,0.56402797,2.40093,146.70001,-141.3,-20.1,,,,,x,
1050299,-3.0379682,9.296936,-1.6616411,-4.336918,-0.068598,4.4817357,141.90001,-150.90001,-21.900002,,,,,x,
1050319,-3.107951,8.899769,-1.6544634,-4.672286,-0.70122397,4.618932,137.1,-146.1,-21.300001,,,,,x,
1050339,-2.585772,8.3423,-1.3410366,-4.4360037,-2.59148,5.205826,134.70001,-155.70001,-22.5,,,,,x,
1050359,-1.9302074,8.043228,-1.0264133,-4.679908,-4.0472817,4.87808,129.90001,-155.70001,-22.5,,,,,x,
1050379,-1.2064544,7.0676575,-0.91934574,-4.4360037,-5.282046,3.2393498,122.700005,-158.1,-24.300001,,,,,x,
1050399,-0.4761218,6.4617386,-0.5496934,-3.330814,-6.70736,2.378064,125.100006,-158.1,-25.500002,,,,,x,
1050419,0.086132586,6.331343,-0.37204492,-3.2850819,-7.179924,2.01983,120.3,-153.3,-28.500002,,,,,x,
1050442,0.27215505,5.0405507,-0.64180744,-2.82014,-8.003099,0.33536798,125.100006,-155.70001,-29.1,,,,,x,
1050462,0.1698726,3.6929348,-0.4360462,-1.6387299,-9.085423,-0.19055,125.100006,-160.5,-27.900002,,,,,x,
1050486,0.26617363,2.7119803,-0.09450659,-1.33385,-9.6723175,0.884152,129.90001,-160.5,-31.500002,,,,,x,
1050526,0.9426733,2.7293265,0.48210323,-1.806414,-8.414688,3.170752,122.700005,-158.1,-30.300001,,,,,x,
1050546,1.7806716,3.422574,0.3564932,-1.1356779,-7.614378,4.138746,117.9,-162.90001,-31.500002,,,,,x,
1050568,2.3495057,4.6403933,0.36725977,-0.396344,-6.760714,4.702774,115.50001,-160.5,-33.300003,,,,,x,
1050588,2.5456965,5.295958,0.20994818,-0.160062,-5.419242,3.96344,108.3,-162.90001,-32.7,,,,,x,
1050612,3.4524813,7.083807,-0.37922263,1.471046,-3.879598,3.536608,98.700005,-172.5,-32.100002,,,,,x,
1050632,3.4285555,7.7070723,-0.48329952,1.699706,-2.6677,2.2408679,103.50001,-162.90001,-33.300003,,,,,x,
1050654,3.0313885,8.463723,-1.3416346,1.532022,-0.655492,1.6463519,103.50001,-162.90001,-32.100002,,,,,x,
1050674,2.4990413,8.624025,-2.2681582,1.6539739,-0.16768399,0.754578,96.3,-165.3,-31.500002,,,,,x,
1050696,2.2538028,8.261551,-2.5486872,2.004586,-0.82317597,0.785066,96.3,-160.5,-32.7,,,,,x,
1050716,2.401544,9.494324,-2.6617362,2.118916,-0.625004,1.928366,96.3,-165.3,-30.300001,,,,,,
1050736,2.3913755,10.161253,-3.3501987,1.3795819,0.30488,1.006104,96.3,-165.3,-30.300001,,,,,,
1050756,1.9726756,9.570886,-3.401639,1.6158639,-0.198172,-0.541162,89.100006,-167.70001,-30.300001,,,,,,
1050776,2.1030707,9.016407,-3.2855992,1.6006199,-0.182928,-0.907018,91.5,-165.3,-29.1,,,,,,
1050796,1.9648997,8.525929,-3.192887,0.891774,-0.022866,-0.655492,101.100006,-167.70001,-30.900002,,,,,,
1050816,2.0384712,8.4386015,-3.255094,0.891774,0.358234,-0.144818,96.3,-167.70001,-28.500002,,,,,,
1050836,2.1347723,8.822609,-3.2287757,0.7622,0.434454,0.274392,93.9,-170.1,-29.7,,,,,,
1050876,2.01634,8.839356,-3.1408486,1.089946,0.594516,-0.198172,91.5,-165.3,-27.900002,,,,,,
1050939,1.0311985,8.482863,-2.7197561,0.106708,1.3795819,-1.082324,93.9,-162.90001,-29.7,,,,,,
1051060,1.3829066,9.887303,-1.7932327,-1.5244,1.204276,-0.792688,105.9,-160.5,-27.300001,,,,,,
1051080,1.154416,9.435705,-2.1347723,-0.853664,1.204276,-1.288118,103.50001,-160.5,-27.300001,,,,,,
1051120,0.9785619,9.007435,-2.1323798,-0.33536798,1.1432999,-0.746956,103.50001,-162.90001,-27.900002,,,,,,
1051164,1.0987886,9.077417,-2.3124208,0.518296,1.234764,-0.16768399,103.50001,-155.70001,-27.900002,,,,,,
1051184,1.1819305,9.052894,-2.4039366,0.87653,1.18141,-0.15244,103.50001,-160.5,-30.300001,,,,,,
1051204,1.2106414,8.89618,-2.564239,0.83842,1.166166,-0.045732,105.9,-162.90001,-26.7,,,,,,
1051228,1.1292939,8.957191,-2.7203543,0.7622,0.83842,0.007622,101.100006,-165.3,-29.1,,,,,,
1051248,1.037778,9.238916,-2.6629324,0.434454,0.72409,-0.015244,105.9,-158.1,-27.300001,,,,,,
1051268,0.85654074,9.6480465,-2.844768,0.11432999,0.830798,-0.22865999,105.9,-160.5,-24.900002,,,,,,
1051331,-0.20217232,9.718029,-2.6096978,-0.3811,0.068598,0.053354,101.100006,-165.3,-27.300001,,,,,x,
1051361,-0.7805766,9.925585,-2.1903996,-0.92226195,-1.44818,0.47256398,105.9,-158.1,-25.500002,,,,,x,
1051401,-0.96241206,8.869863,-1.8991039,-1.158544,-5.25918,1.5244,103.50001,-165.3,-27.300001,,,,,x,
1051422,-0.38161522,8.787916,-1.1011813,-1.166166,-7.797306,2.522882,98.700005,-167.70001,-27.900002,,,,,x,
1051442,0.35828763,8.883619,-0.33615634,-1.821658,-9.214998,2.850628,91.5,-167.70001,-28.500002,,,,,x,
1051482,0.59216154,6.6956124,0.10048802,-2.347576,-10.510737,1.547266,93.9,-165.3,-29.7,,,,,x,
1051525,0.8762795,2.9291062,1.1197237,-1.280496,-10.686044,1.478668,98.700005,-167.70001,-31.500002,,,,,x,
1051545,1.5527792,2.8938158,1.1286958,-0.7622,-9.352194,2.660078,96.3,-167.70001,-33.300003,,,,,x,
1051567,2.1263983,3.7467675,0.7895487,-0.11432999,-7.972612,2.873494,91.5,-165.3,-32.7,,,,,x,
1051587,2.028303,3.2628698,0.39597064,-0.060976,-6.59303,1.326228,89.100006,-165.3,-33.9,,,,,x,
1051649,1.1944915,1.6090046,-1.869795,2.926848,-6.4024796,0.82317597,89.100006,-167.70001,-33.300003,,,,,x,
1051669,1.4804039,3.802993,-1.8674023,3.58234,-6.996996,2.7362978,91.5,-162.90001,-32.100002,,,,,x,
1051689,2.0576117,6.6124706,-2.7903368,3.7500238,-5.9985137,2.6829438,86.700005,-167.70001,-32.100002,,,,,x,
1051709,1.602425,6.7685857,-4.374818,3.551852,-4.329296,-1.288118,86.700005,-167.70001,-30.900002,,,,,x,
1051731,2.2603822,6.659126,-5.38867,4.824726,-3.003068,-2.2942219,81.9,-167.70001,-29.7,,,,,x,
1051751,3.0343792,8.072537,-5.873764,3.894842,-2.385686,-1.79117,86.700005,-162.90001,-27.900002,,,,,x,
1051771,1.873982,8.4714985,-6.7470527,3.376546,1.211898,-3.056422,91.5,-165.3,-28.500002,,,,,x,
1051791,1.3858973,7.794999,-8.151492,3.475632,1.9054999,-4.474114,89.100006,-155.70001,-28.500002,,,,,x,
1051811,2.1604924,7.6711836,-7.561723,2.7286758,-1.318606,-3.955818,96.3,-160.5,-26.7,,,,,x,
1051833,2.217316,12.156658,-6.981525,0.792688,1.806414,-3.0488,101.100006,-158.1,-26.1,,,,,x,
1051854,1.1526215,11.253462,-7.7136517,-0.160062,4.397894,-6.0899777,98.700005,-158.1,-28.500002,,,,,x,
1051875,0.69264954,9.396826,-7.6406784,0.0,4.9771657,-7.553402,115.50001,-153.3,-26.1,,,,,x,
1051895,0.39716694,9.076221,-7.684941,0.19055,6.333882,-5.67839,117.9,-155.70001,-27.300001,,,,,x,
1051958,-0.33017492,11.928167,-7.634697,-0.487808,10.09915,-7.667732,125.100006,-146.1,-24.300001,,,,,x,
1051979,-0.83740014,11.353352,-8.031864,-0.106708,11.623549,-6.875044,127.50001,-148.5,-24.900002,,,,,x,
1052000,-0.33735263,13.330812,-8.78373,1.5929979,11.966539,-4.893324,137.1,-143.70001,-23.1,,,,,x,
1052021,-1.2142302,14.585716,-8.024088,0.91463995,9.695184,-5.251558,144.3,-146.1,-21.300001,,,,,x,
1052081,-2.3542907,15.568465,-10.144505,0.94512796,14.946742,-5.0686297,144.3,-134.1,-17.1,,,,,x,
1052104,-2.681475,16.131916,-7.2136045,-0.541162,7.1418138,-5.312534,146.70001,-134.1,-17.1,,,,,x,
1052125,-2.8902268,16.01767,-6.57718,-1.8292799,11.2195835,-5.739366,149.1,-134.1,-17.7,,,,,x,
1052145,-2.940471,13.660389,-8.462526,-2.317088,14.276006,-5.823208,146.70001,-126.9,-17.1,,,,,x,
1052165,-2.192194,13.646033,-8.146708,-1.1356779,10.114394,-2.903982,149.1,-131.70001,-16.5,,,,,x,
1052185,-1.8051955,14.779514,-6.562227,-1.265252,8.658592,-1.288118,151.5,-131.70001,-17.1,,,,,x,
1052205,-2.5385187,14.676634,-6.4276443,-3.528986,10.89946,-2.195136,149.1,-129.3,-15.3,,,,,x,
1052245,-2.9099655,12.377373,-6.2021446,-3.894842,8.72719,-1.227142,146.70001,-131.70001,-15.900001,,,,,x,
1052265,-2.7688038,12.829569,-6.3528767,-3.910086,7.797306,-0.060976,144.3,-126.9,-13.500001,,,,,x,
1052327,-2.8537402,10.917306,-2.6892507,-4.474114,0.868908,0.221038,139.5,-136.5,-15.900001,,,,,x,
1052376,-2.4153013,10.087083,-2.3877866,-5.3658876,0.16768399,2.378064,137.1,-138.90001,-17.1,,,,,x,
1052440,-1.9894235,6.798493,-1.4397302,-4.176856,-2.89636,3.35368,129.90001,-141.3,-22.5,,,,,x,
1052460,-1.8979076,6.639985,-2.0097604,-3.50612,-3.7805119,5.091496,125.100006,-148.5,-22.5,,,,,x,
1052481,-1.0940034,7.2614555,-1.619173,-2.2332458,-6.646384,6.0290017,122.700005,-150.90001,-21.900002,,,,,x,
1052501,-0.6059188,7.033563,-0.5724228,-3.2545938,-7.9497457,4.53509,120.3,-155.70001,-24.900002,,,,,x,
1052523,0.04187001,6.5377026,-0.2338739,-4.359784,-7.77444,2.980202,120.3,-158.1,-24.900002,,,,,x,
1052543,-0.028112719,5.138646,-0.5999374,-4.618932,-6.6006517,1.265252,115.50001,-155.70001,-26.1,,,,,x,
1052567,0.2087519,4.454969,-0.40494278,-4.4664917,-7.58389,1.71495,120.3,-158.1,-27.900002,,,,,x,
1052587,0.34632477,3.8663962,-0.28232348,-4.695152,-7.77444,2.2256238,113.100006,-158.1,-29.1,,,,,x,
1052607,0.43664438,2.8184497,0.10766573,-3.2850819,-8.26987,3.2317278,115.50001,-155.70001,-30.900002,,,,,x,
1052629,1.2614836,3.547586,0.2727532,-2.118916,-8.239382,4.9619217,108.3,-162.90001,-31.500002,,,,,x,
1052650,1.7956252,4.422071,0.23447205,-1.204276,-7.385718,5.243936,105.9,-162.90001,-32.7,,,,,x,
1052671,2.180231,5.23076,0.10228245,-0.243904,-6.760714,4.87808,101.100006,-167.70001,-32.100002,,,,,x,
1052691,2.4996395,5.345604,0.01794429,0.045732,-6.02138,3.948196,101.100006,-165.3,-32.7,,,,,x,
1052734,3.7712915,6.580769,-0.34871736,0.93750596,-4.519846,3.368924,96.3,-170.1,-32.100002,,,,,x,
1052754,3.9471455,7.1472106,-0.3588858,0.785066,-3.46801,2.370442,89.100006,-167.70001,-32.100002,,,,,x,
1052776,4.2025523,7.7656903,-0.80749303,0.72409,-2.446662,1.684462,84.3,-162.90001,-33.300003,,,,,x,
1052796,4.070961,8.202932,-0.9935155,0.754578,-1.8978779,0.708846,84.3,-160.5,-31.500002,,,,,x,
1052858,2.7676075,8.830384,-2.3524964,1.074702,0.64787,-2.2713559,86.700005,-167.70001,-33.9,,,,,x,
1052925,1.8614209,9.27002,-3.1157267,1.798792,1.33385,-1.280496,93.9,-165.3,-31.500002,,,,,,
1052995,0.8463723,9.336413,-3.74916,1.02897,2.118916,-0.80793196,98.700005,-160.5,-29.7,,,,,,
1053060,0.77220255,9.323255,-3.2658606,-0.510674,1.013726,-1.059458,91.5,-162.90001,-29.7,,,,,,
1053297,0.6962384,9.77246,-1.8183546,0.57164997,0.34298998,-0.19055,103.50001,-160.5,-28.500002,,,,,x,
1053460,0.652574,7.250689,0.3505118,-0.846042,-9.771403,3.1783738,93.9,-165.3,-29.1,,,,,x,
1053480,0.83321315,6.1901817,0.58558196,-0.960372,-11.029034,2.7134318,93.9,-165.3,-30.300001,,,,,x,
1053520,1.2154266,4.6158695,1.192697,-1.097568,-11.77599,2.7210538,86.700005,-155.70001,-32.7,,,,,x,
1053540,0.9241309,3.3328526,0.57601166,-0.93750596,-10.731775,2.36282,81.9,-167.70001,-32.7,,,,,x,
1053560,1.3757288,3.5469878,0.10646945,0.518296,-10.045795,2.82014,81.9,-167.70001,-32.7,,,,,x,
1053582,1.8733838,4.6242433,-0.46415895,0.92988396,-8.498529,1.8369019,84.3,-174.90001,-32.100002,,,,,x,
1053602,1.5031333,3.9417622,-1.1801361,0.94512796,-7.256144,-0.20579399,77.100006,-167.70001,-33.300003,,,,,x,
1053622,1.8985058,3.9519305,-1.485189,1.669218,-6.532054,-0.67835796,79.5,-165.3,-32.7,,,,,x,
1053642,1.8386915,4.1349626,-2.10008,1.044214,-4.4969797,-0.91463995,86.700005,-165.3,-34.5,,,,,x,
1053662,1.6383137,4.468726,-3.1725502,1.272874,-2.7210538,-0.853664,77.100006,-162.90001,-32.7,,,,,x,
1053686,1.7172685,5.3563704,-3.4500887,1.821658,-3.025934,-1.3872039,86.700005,-167.70001,-30.900002,,,,,x,
1053706,1.8841504,6.1608725,-4.5931396,2.157026,-0.022866,-1.5929979,96.3,-160.5,-33.300003,,,,,x,
1053726,2.1832218,7.7250166,-5.6709933,2.93447,-0.121952,-1.699706,81.9,-165.3,-32.7,,,,,x,
1053746,1.4110193,6.6005077,-5.6255345,2.903982,-0.81555396,-3.346058,96.3,-167.70001,-32.100002,,,,,x,
1053789,1.5880696,8.923097,-7.0933776,3.2088618,-1.18141,-1.4024479,93.9,-160.5,-28.500002,,,,,x,
1053819,2.7030082,9.927977,-7.068854,2.97258,0.46494198,-1.737816,98.700005,-162.90001,-29.1,,,,,x,
1053839,2.2514102,10.042222,-7.6951094,2.827762,2.36282,-1.75306,101.100006,-158.1,-27.900002,,,,,x,
1053879,2.3650572,11.229536,-6.7715764,0.11432999,4.847592,-3.3079479,98.700005,-158.1,-28.500002,,,,,x,
1053899,1.3655604,11.376081,-7.5043015,-0.137196,6.760714,-4.291186,103.50001,-160.5,-25.500002,,,,,x,
1053939,0.95942134,10.771956,-6.1602745,-1.3948259,7.103704,-5.350644,108.3,-153.3,-25.500002,,,,,x,
1053959,0.6268538,11.593207,-6.7255197,-1.3567159,9.054935,-4.969544,113.100006,-148.5,-26.1,,,,,x,
1053979,0.5861801,12.95159,-6.2601643,-0.716468,8.475664,-5.343022,113.100006,-150.90001,-25.500002,,,,,x,
1054001,-0.36725977,12.696182,-6.697407,-0.221038,11.211962,-6.295772,117.9,-153.3,-24.300001,,,,,x,
1054021,-1.0072727,13.663978,-7.601201,0.28201398,12.164712,-5.655524,125.100006,-146.1,-23.7,,,,,x,
1054043,-0.124413736,14.656298,-7.7208295,0.777444,11.730258,-6.051868,122.700005,-148.5,-23.1,,,,,x,
1054063,-0.31821206,14.847703,-7.872758,1.3948259,12.530568,-5.853696,129.90001,-146.1,-23.1,,,,,x,
1054085,-1.8255323,14.857273,-8.047416,0.64787,13.056486,-5.556438,132.3,-146.1,-20.1,,,,,x,
1054105,-1.0898165,15.999726,-8.446975,0.45731997,13.7196,-4.87808,132.3,-134.1,-19.5,,,,,x,
1054125,-1.7477738,15.366293,-8.616249,0.365856,13.460452,-6.36437,144.3,-136.5,-19.5,,,,,x,
1054145,-1.7423905,15.237094,-8.903358,0.975616,12.103736,-4.580822,134.70001,-134.1,-15.900001,,,,,x,
1054185,-2.217914,15.854976,-7.0467224,-2.157026,10.21348,-3.2622159,137.1,-134.1,-14.700001,,,,,x,
1054205,-3.4584627,14.938621,-7.4666185,-2.827762,11.379645,-4.245454,141.90001,-136.5,-17.1,,,,,x,
1054228,-4.140944,13.940918,-7.6759686,-3.109776,8.6814575,-2.919226,137.1,-131.70001,-17.1,,,,,x,
1054248,-3.7916284,13.259633,-6.0424404,-3.528986,4.5731997,-1.21952,134.70001,-131.70001,-15.900001,,,,,x,
1054268,-3.4901643,13.329617,-4.6134768,-4.695152,3.4299,-0.11432999,134.70001,-131.70001,-15.900001,,,,,x,
1054291,-3.4243686,11.275593,-4.0775404,-5.015276,3.3079479,0.480186,137.1,-143.70001,-17.7,,,,,x,
1054311,-3.2951696,10.634384,-3.1653726,-4.5884438,1.532022,0.94512796,134.70001,-138.90001,-17.7,,,,,x,
1054335,-3.1791298,10.629599,-3.0762494,-3.6585598,1.089946,1.6234859,132.3,-143.70001,-20.1,,,,,x,
1054355,-3.381302,9.951902,-2.7197561,-3.864354,-0.213416,2.141782,132.3,-138.90001,-18.900002,,,,,x,
1054375,-2.6671195,10.020091,-1.9882272,-4.291186,-2.004586,3.071666,129.90001,-146.1,-20.1,,,,,x,
1054395,-2.2872987,9.52124,-1.3159145,-5.10674,-1.6311079,2.843006,127.50001,-148.5,-21.300001,,,,,x,
1054415,-2.1222112,8.326748,-1.2578946,-5.571682,-1.570132,2.111294,129.90001,-150.90001,-21.300001,,,,,x,
1054478,-0.7105939,5.911447,-0.711192,-3.3079479,-3.948196,3.018312,122.700005,-155.70001,-27.300001,,,,,x,
1054498,0.6890607,7.076031,-0.0723753,-2.97258,-5.5030837,4.428382,113.100006,-150.90001,-26.7,,,,,x,
1054518,0.8092874,6.547273,0.79313755,-3.917708,-5.10674,2.6829438,110.700005,-158.1,-27.300001,,,,,x,
1054540,0.56046,5.413792,0.05203844,-3.871976,-2.873494,1.272874,113.100006,-155.70001,-29.1,,,,,x,
1054560,0.13338588,4.350892,-0.2715569,-2.7210538,-3.2469718,0.82317597,113.100006,-162.90001,-28.500002,,,,,x,
1054580,-0.059814297,3.7013087,-0.33795077,-1.8750119,-3.940574,1.570132,115.50001,-160.5,-29.1,,,,,x,
1054600,-0.25181818,3.6091948,-0.6292464,-1.6387299,-4.5731997,2.7286758,115.50001,-160.5,-29.7,,,,,x,
1054624,0.25301448,3.7126734,-0.8487649,-0.92226195,-5.5335717,3.490876,105.9,-158.1,-30.900002,,,,,x,
1054645,0.9636083,3.928005,-0.63403153,0.099086,-6.3872356,3.948196,101.100006,-160.5,-30.300001,,,,,x,
1054665,1.5844808,4.20016,-0.5317491,0.625004,-5.8613176,3.589962,101.100006,-162.90001,-30.900002,,,,,x,
1054685,2.216718,4.37721,-0.65616286,1.173788,-5.015276,3.346058,93.9,-160.5,-30.900002,,,,,x,
1054709,2.957219,5.693125,-1.032993,1.539644,-3.338436,3.376546,96.3,-165.3,-30.900002,,,,,x,
1054750,4.1481214,7.8332806,-1.4409264,1.783548,-2.644834,2.6905658,89.100006,-165.3,-29.7,,,,,x,
1054780,4.3156013,8.449368,-1.3296719,0.891774,-2.050318,1.021348,81.9,-170.1,-29.1,,,,,x,
1054799,3.974062,8.756813,-1.627547,-0.11432999,-0.80793196,0.160062,81.9,-167.70001,-30.900002,,,,,x,
1054840,3.0056684,8.981116,-3.0236127,1.1432999,-0.083841994,-0.46494198,84.3,-165.3,-29.7,,,,,,
1054880,2.7185597,9.75332,-3.410013,1.935988,-1.166166,-0.602138,89.100006,-162.90001,-30.900002,,,,,,
1054960,2.036677,8.811842,-2.531341,-0.106708,0.617382,-0.68597996,91.5,-158.1,-27.900002,,,,,,
1055001,1.8889354,8.64197,-2.05821,-0.510674,-0.022866,-0.28201398,89.100006,-165.3,-28.500002,,,,,,
1055101,1.6981279,9.23114,-2.049836,-0.327746,2.2408679,-1.1204339,93.9,-160.5,-28.500002,,,,,,
1055198,1.3733363,9.094764,-2.3734312,0.053354,0.891774,-0.56402797,93.9,-165.3,-27.300001,,,,,,
1055238,1.6365192,9.135438,-2.1329777,-0.617382,0.56402797,-0.33536798,93.9,-160.5,-26.7,,,,,,
1055284,0.91097176,8.824403,-2.489471,-0.57164997,0.060976,-0.47256398,98.700005,-170.1,-27.900002,,,,,,
1055403,1.284213,8.7950945,-0.7225567,-1.250008,-5.83083,1.745438,98.700005,-160.5,-29.7,,,,,,
1055443,1.1915008,7.756718,0.023925718,-0.746956,-5.884184,0.81555396,91.5,-165.3,-30.300001,,,,,x,
1055464,0.86790544,6.7380805,-0.06041244,-0.243904,-7.1265697,0.792688,86.700005,-162.90001,-30.900002,,,,,x,
1055484,0.62745196,5.8259125,-0.019140575,0.251526,-8.872007,1.150922,93.9,-167.70001,-30.300001,,,,,x,
1055504,0.7626323,5.0638785,0.4605701,0.67073596,-10.990924,1.6387299,86.700005,-160.5,-29.7,,,,,x,
1055526,0.954038,4.9986806,1.1029756,0.129574,-12.218065,2.004586,84.3,-167.70001,-30.900002,,,,,x,
1055546,1.2788297,4.747461,1.074863,-0.83842,-11.669282,1.48629,81.9,-165.3,-31.500002,,,,,x,
1055566,1.1974822,3.7282252,0.85235375,-0.861286,-11.097631,0.487808,91.5,-167.70001,-33.9,,,,,x,
1055586,1.3559902,4.039858,0.5754135,-0.28201398,-10.426896,0.510674,81.9,-165.3,-32.100002,,,,,x,
1055626,1.12092,3.878359,-0.5694321,-0.198172,-7.9040136,-2.118916,96.3,-165.3,-32.7,,,,,x,
1055649,0.87508315,4.040456,-1.6873614,0.64787,-6.547298,-2.507638,89.100006,-160.5,-32.7,,,,,x,
1055669,0.614891,4.125392,-2.5504816,2.370442,-5.823208,-2.583858,96.3,-162.90001,-32.7,,,,,x,
1055689,0.9426733,5.19547,-3.4088168,3.7042918,-4.275942,-1.554888,96.3,-162.90001,-32.100002,,,,,x,
1055712,0.6573591,6.0215054,-4.410706,3.894842,-2.149404,-1.669218,103.50001,-160.5,-32.7,,,,,x,
1055732,0.6095077,7.160968,-5.244518,4.375028,0.182928,-1.501534,103.50001,-155.70001,-30.900002,,,,,x,
1055752,1.0623019,8.565408,-6.180611,3.955818,1.516778,-2.141782,105.9,-160.5,-32.100002,,,,,x,
1055772,1.7142777,9.31189,-6.1435266,2.62959,1.02897,-2.652456,105.9,-158.1,-27.300001,,,,,x,
1055792,1.1442475,8.5253315,-6.123788,1.41007,2.431418,-3.650938,115.50001,-158.1,-29.1,,,,,x,
1055855,1.275839,10.127159,-6.5777783,1.4024479,3.4299,-4.45887,117.9,-153.3,-26.7,,,,,x,
1055875,1.1556122,9.819115,-7.092779,1.189032,5.0991178,-4.5731997,117.9,-155.70001,-25.500002,,,,,x,
1055915,1.3841028,10.681039,-6.936664,0.20579399,5.5640597,-3.452766,127.50001,-148.5,-25.500002,,,,,x,
1055935,1.3661586,10.413071,-7.1531916,-0.259148,7.5610237,-3.7271578,127.50001,-148.5,-26.1,,,,,x,
1055955,1.8482618,10.837752,-7.7088666,-0.20579399,9.07018,-3.2698379,122.700005,-146.1,-24.900002,,,,,x,
1055975,1.6383137,10.286862,-7.502507,0.213416,9.474146,-2.89636,122.700005,-146.1,-21.900002,,,,,x,
1055995,1.5545735,11.996355,-7.1908746,-0.144818,10.266833,-1.570132,132.3,-150.90001,-22.5,,,,,x,
1056015,1.6185749,14.648521,-6.715949,-1.02897,10.144882,-2.2942219,125.100006,-141.3,-21.900002,,,,,x,
1056035,-1.16279,11.13503,-8.033658,-1.3567159,15.81565,-7.599134,129.90001,-143.70001,-22.5,,,,,x,
1056056,-1.2279875,11.054878,-8.790907,-0.30488,14.580886,-6.112844,134.70001,-146.1,-23.1,,,,,x,
1056076,0.67709786,15.70544,-6.480281,-0.56402797,7.461938,-2.576236,132.3,-141.3,-19.5,,,,,x,
1056096,-0.40733537,16.117561,-5.673386,-1.6082419,8.68908,-4.11588,141.90001,-138.90001,-18.300001,,,,,x,
1056116,-1.8075881,14.732262,-7.4911427,-2.2637339,13.628136,-6.93602,137.1,-141.3,-19.5,,,,,x,
1056158,-1.7543533,15.140793,-6.26794,-1.9131219,8.6509695,-4.603688,151.5,-138.90001,-18.900002,,,,,x,
1056178,-2.665923,15.877107,-5.983224,-2.7134318,9.10829,-4.740884,149.1,-136.5,-18.300001,,,,,x,
1056200,-2.705999,15.28016,-5.067467,-2.995446,7.301876,-5.25918,151.5,-136.5,-19.5,,,,,x,
1056220,-3.4321444,14.100024,-4.363453,-3.54423,8.490908,-4.53509,153.90001,-131.70001,-18.900002,,,,,x,
1056282,-3.7210474,13.593397,-4.1738415,-3.3155699,6.265284,-2.621968,149.1,-129.3,-19.5,,,,,x,
1056338,-4.0506244,13.090957,-4.0930924,-3.7271578,4.275942,0.655492,156.3,-131.70001,-17.1,,,,,x,
1056359,-4.57699,12.219462,-3.7156641,-3.986306,2.903982,0.327746,151.5,-131.70001,-18.900002,,,,,x,
1056399,-3.9884174,9.439294,-2.7490652,-3.12502,0.045732,2.050318,139.5,-136.5,-18.300001,,,,,x,
1056419,-3.283805,8.106631,-2.5116024,-2.469528,-1.29574,1.974098,146.70001,-148.5,-20.1,,,,,x,
1056441,-2.8393848,7.1358457,-1.9822458,-2.2256238,-2.6677,4.375028,141.90001,-136.5,-20.1,,,,,x,
1056462,-1.9744699,7.835673,-2.1503239,-3.384168,-2.065562,7.057972,137.1,-143.70001,-21.300001,,,,,x,
1056522,-0.9103736,6.974347,-1.7926345,-3.635694,-4.0625257,4.740884,117.9,-150.90001,-23.1,,,,,x,
1056544,-0.47971067,6.2165,-1.6748003,-3.079288,-5.22107,3.7728899,120.3,-150.90001,-23.7,,,,,x,
1056564,-0.10407688,5.7475557,-1.3978602,-2.8048959,-6.272906,3.612828,110.700005,-155.70001,-27.900002,,,,,x,
1056584,0.004785144,5.178722,-1.1735566,-2.957336,-7.0351057,3.8186219,115.50001,-155.70001,-24.900002,,,,,x,
1056646,1.0306003,4.454969,-0.5652451,-2.2713559,-8.239382,3.978684,101.100006,-162.90001,-30.900002,,,,,x,
1056686,1.2489225,3.5122955,-0.60651696,-1.1356779,-8.018344,4.093014,98.700005,-165.3,-30.300001,,,,,x,
1056710,2.0845282,4.6380005,-0.39417621,-0.830798,-7.713464,4.9314337,91.5,-167.70001,-32.7,,,,,x,
1056753,2.9482467,5.5364113,-0.53115094,-0.983238,-6.5701637,4.504602,84.3,-172.5,-30.300001,,,,,x,
1056815,5.2020493,8.229849,-0.44142953,-0.07622,-4.657042,3.7576458,72.3,-165.3,-33.9,,,,,x,
1056878,3.6534572,7.706474,-1.422384,0.80793196,0.94512796,-1.471046,79.5,-167.70001,-33.300003,,,,,x,
1056918,2.6449883,9.167139,-2.8603196,1.707328,2.118916,-1.935988,72.3,-170.1,-30.900002,,,,,x,
1056943,2.606109,9.486547,-3.1276896,1.737816,1.48629,-1.6311079,77.100006,-162.90001,-30.900002,,,,,x,
1056964,2.5044246,9.511071,-3.0852215,1.013726,1.1204339,-1.501534,79.5,-162.90001,-32.7,,,,,x,
1056984,2.2370548,8.527126,-2.7299244,0.388722,0.792688,-1.5244,74.700005,-165.3,-30.900002,,,,,x,
1057004,2.5127985,8.586941,-2.4816952,0.449698,0.41921,-0.541162,72.3,-165.3,-29.1,,,,,x,
1057048,2.682073,8.353066,-1.9643015,0.41158798,0.40396598,-0.213416,79.5,-165.3,-29.1,,,,,,
1057068,2.6509697,8.865077,-1.9589182,0.35061198,0.625004,-0.274392,79.5,-167.70001,-30.900002,,,,,,
1057128,1.6795855,8.653933,-2.1431463,0.15244,0.602138,-0.777444,84.3,-170.1,-30.300001,,,,,,
1057176,1.5473958,9.564306,-2.2663636,-0.03811,1.02897,-0.739334,84.3,-170.1,-29.7,,,,,,
1057200,1.4469079,9.628905,-2.2878969,-0.251526,1.02897,-0.998482,86.700005,-160.5,-28.500002,,,,,,
1057240,1.2866055,8.720924,-2.1646795,0.106708,0.55640596,-1.074702,81.9,-162.90001,-29.7,,,,,,
1057264,1.49775,9.398023,-2.3022523,-0.121952,0.82317597,-0.3811,84.3,-165.3,-27.900002,,,,,,
1057284,1.5384238,9.099549,-2.3267763,-0.20579399,1.074702,-0.503052,91.5,-162.90001,-29.1,,,,,,
1057304,1.4582726,9.040333,-2.2669618,-0.243904,1.196654,-0.525918,86.700005,-160.5,-29.7,,,,,,
1057324,1.4032434,8.903358,-2.5361261,-0.060976,1.455802,-0.510674,81.9,-162.90001,-30.900002,,,,,,
1057367,1.4134119,9.374097,-2.4942563,-0.198172,0.655492,-0.243904,86.700005,-162.90001,-29.1,,,,,,
1057387,1.4624596,9.288562,-2.2693543,-0.327746,0.23628199,-0.35061198,86.700005,-170.1,-28.500002,,,,,,
1057407,1.4020472,8.760402,-2.1323798,-0.35061198,0.15244,-0.480186,84.3,-158.1,-28.500002,,,,,,
1057427,1.4122156,9.523632,-2.2364566,-0.106708,0.259148,0.251526,86.700005,-165.3,-30.900002,,,,,,
1057451,1.1956878,9.932762,-2.3022523,-0.26677,-0.083841994,0.083841994,84.3,-165.3,-30.900002,,,,,,
1057471,0.99889874,9.959679,-1.954133,-0.045732,-1.097568,0.07622,81.9,-167.70001,-30.300001,,,,,,
1057491,0.7082013,9.500305,-1.4020472,-0.663114,-2.050318,-0.160062,89.100006,-165.3,-30.300001,,,,,x,
1057511,0.673509,9.384863,-1.0048802,-1.1128119,-2.850628,0.144818,91.5,-165.3,-28.500002,,,,,x,
1057534,0.55746925,8.81902,-0.18602246,-1.8978779,-4.314052,-0.160062,89.100006,-167.70001,-29.7,,,,,x,
1057554,0.38221335,8.009732,-0.32120278,-1.9054999,-4.778994,-0.22865999,89.100006,-167.70001,-30.300001,,,,,x,
1057574,0.047253296,7.6951094,-0.41451308,-0.861286,-6.890288,0.41921,89.100006,-167.70001,-30.300001,,,,,x,
1057595,0.3271842,7.367925,-0.10826388,0.091464,-9.573232,1.3719599,86.700005,-165.3,-32.100002,,,,,x,
1057615,1.0575168,7.3176813,0.57660985,0.251526,-11.821722,2.332332,89.100006,-165.3,-31.500002,,,,,x,
1057635,0.9618139,6.13276,1.0658908,-0.503052,-11.417756,1.8902559,84.3,-167.70001,-32.100002,,,,,x,
1057658,1.2160246,5.2014513,0.8475686,-0.11432999,-11.1586075,1.974098,86.700005,-167.70001,-33.300003,,,,,x,
1057678,1.3954675,5.0949817,0.78895056,0.129574,-11.16623,2.088428,86.700005,-167.70001,-32.7,,,,,x,
1057698,0.95702875,3.7802637,0.37204492,-0.72409,-10.160126,0.68597996,77.100006,-170.1,-32.100002,,,,,x,
1057718,0.933103,3.234159,-0.066992015,0.11432999,-9.695184,0.68597996,77.100006,-167.70001,-33.300003,,,,,x,
1057738,1.3236904,4.096681,-0.3648672,0.60976,-8.666214,0.548784,86.700005,-172.5,-33.300003,,,,,x,
1057759,1.3230922,4.5716066,-1.5641439,0.617382,-6.814068,-0.617382,79.5,-170.1,-32.100002,,,,,x,
1057779,1.0240208,3.4297519,-1.9708811,1.6006199,-6.410102,-1.951232,86.700005,-165.3,-34.5,,,,,x,
1057799,1.4445152,3.3226843,-2.2783265,3.033556,-5.67839,-1.310984,89.100006,-170.1,-32.100002,,,,,x,
1057839,2.292682,6.4246535,-3.359171,3.7728899,-2.560992,-0.868908,86.700005,-162.90001,-30.900002,,,,,x,
1057862,1.8829541,6.647761,-3.8059838,3.2241058,-1.806414,-1.9054999,84.3,-162.90001,-30.900002,,,,,x,
1057882,1.7429886,6.6274242,-4.435828,3.597584,-0.274392,-3.330814,84.3,-160.5,-31.500002,,,,,x,
1057905,1.3356533,6.385774,-5.569907,4.733262,2.507638,-4.214966,89.100006,-162.90001,-27.900002,,,,,x,
1057925,1.5635457,8.066556,-7.44688,5.884184,3.338436,-3.170752,96.3,-162.90001,-26.7,,,,,x,
1057945,1.9427683,9.0977545,-7.550359,5.076252,1.996964,-2.85825,101.100006,-158.1,-25.500002,,,,,x,
1057965,2.104267,9.845433,-7.647856,4.53509,1.8445239,-2.507638,96.3,-153.3,-26.1,,,,,x,
1058028,2.4272642,10.4040985,-7.266839,0.891774,3.338436,-3.88722,108.3,-150.90001,-23.1,,,,,x,
1058049,2.1431463,11.182282,-8.241214,0.68597996,6.791202,-3.910086,110.700005,-155.70001,-23.7,,,,,x,
1058069,1.1011813,10.243796,-7.6161547,-0.7622,5.52595,-5.586926,113.100006,-150.90001,-24.300001,,,,,x,
1058089,1.6939409,10.768966,-6.94444,-0.93750596,6.333882,-4.710396,117.9,-148.5,-21.900002,,,,,x,
1058109,1.2507169,11.149385,-6.5532546,-1.3719599,7.751574,-5.60217,127.50001,-148.5,-22.5,,,,,x,
1058131,0.6304427,12.485038,-7.4163747,-0.83842,9.824758,-5.464974,127.50001,-143.70001,-22.5,,,,,x,
1058151,-0.12501188,12.614836,-7.7489424,-0.891774,10.510737,-6.13571,132.3,-143.70001,-21.300001,,,,,x,
1058171,-0.6657331,12.214678,-7.1472106,-1.5929979,9.71805,-6.66925,134.70001,-146.1,-20.7,,,,,x,
1058193,-1.2058562,11.296528,-6.97973,-1.432936,11.029034,-6.303394,134.70001,-146.1,-20.7,,,,,x,
1058213,-1.2943814,12.792483,-7.1848936,-0.716468,10.884215,-4.413138,139.5,-141.3,-19.5,,,,,x,
1058233,-1.9690866,14.439172,-6.965375,-1.242386,10.243968,-4.199722,141.90001,-136.5,-18.900002,,,,,x,
1058253,-2.6952322,15.065427,-7.2686334,-1.6463519,11.471109,-5.251558,141.90001,-136.5,-18.900002,,,,,x,
1058273,-3.154606,13.771046,-7.629912,-1.722572,10.731775,-6.5854077,139.5,-136.5,-16.5,,,,,x,
1058296,-3.071464,12.918692,-7.6191454,-0.45731997,9.923843,-4.199722,146.70001,-134.1,-15.3,,,,,x,
1058316,-2.275934,17.427494,-7.2321467,-1.455802,8.391822,-0.327746,141.90001,-136.5,-16.5,,,,,x,
1058336,-3.7916284,16.804827,-7.577873,-2.423796,10.960436,-3.6966698,144.3,-136.5,-17.7,,,,,x,
1058359,-2.4027402,13.638856,-6.981525,-1.044214,6.0594897,-2.43904,144.3,-129.3,-16.5,,,,,x,
1058379,-1.0467502,15.999726,-5.4658303,-1.532022,6.067112,0.640248,144.3,-129.3,-15.3,,,,,x,
1058399,-2.0558174,15.871724,-5.8629975,-2.309466,8.6509695,-1.532022,137.1,-131.70001,-13.500001,,,,,x,
1058419,-3.1791298,13.41216,-6.706379,-2.7896519,8.300358,-2.088428,137.1,-138.90001,-15.900001,,,,,x,
1058439,-3.012248,13.208791,-6.224874,-3.4299,5.0228977,0.426832,139.5,-134.1,-16.5,,,,,x,
1058459,-2.7197561,12.784708,-5.3569684,-4.413138,3.064044,1.33385,132.3,-129.3,-15.900001,,,,,x,
1058479,-2.62824,11.752912,-4.551868,-5.121984,0.708846,1.516778,127.50001,-134.1,-17.7,,,,,x,
1058499,-2.1880069,10.212095,-3.2814124,-5.4421077,-1.44818,1.272874,137.1,-136.5,-17.7,,,,,x,
1058519,-1.8452711,9.155176,-2.0665839,-5.282046,-1.9131219,1.5244,129.90001,-146.1,-19.5,,,,,x,
1058539,-1.8907299,8.411086,-1.7752883,-5.0228977,-0.93750596,1.806414,129.90001,-141.3,-20.1,,,,,x,
1058559,-2.0988836,7.4726,-1.5133017,-5.045764,-1.3948259,2.317088,132.3,-148.5,-21.300001,,,,,x,
1058579,-1.2238005,8.1150055,-0.76502484,-4.748506,-2.332332,3.910086,129.90001,-148.5,-21.900002,,,,,x,
1058599,-1.6813799,7.1597714,-0.82603544,-5.83083,-0.769822,2.7972739,125.100006,-146.1,-23.1,,,,,x,
1058623,-1.8500562,5.94255,-1.305148,-5.388754,-1.6082419,2.6829438,120.3,-155.70001,-23.7,,,,,x,
1058683,-0.5748154,5.334239,-0.8685036,-2.40093,-5.3811316,2.843006,120.3,-158.1,-26.1,,,,,x,
1058703,-0.25002375,5.230162,-0.78655803,-2.065562,-5.632658,3.140264,108.3,-155.70001,-26.1,,,,,x,
1058723,0.2506219,5.589048,-0.753062,-1.928366,-5.777476,4.214966,110.700005,-158.1,-27.300001,,,,,x,
1058743,0.3618765,5.083019,-0.799119,-2.6905658,-5.464974,4.100636,108.3,-160.5,-29.7,,,,,x,
1058763,0.9492529,4.961596,-0.9815526,-2.126538,-5.79272,4.5884438,103.50001,-162.90001,-27.300001,,,,,x,
1058783,1.1932952,5.0740466,-0.91994387,-1.3490939,-6.196686,4.4817357,93.9,-158.1,-30.300001,,,,,x,
1058803,1.3374476,5.228368,-0.85235375,-0.884152,-6.4024796,4.359784,101.100006,-165.3,-29.7,,,,,x,
1058867,2.4631526,5.8175387,-0.5138048,0.274392,-5.746988,2.347576,84.3,-162.90001,-31.500002,,,,,x,
1058889,3.2156167,6.5682077,-0.37324122,0.33536798,-5.3658876,2.47715,86.700005,-162.90001,-29.7,,,,,x,
1058909,3.2850013,6.903766,-0.5473008,0.030488,-3.8033779,1.8978779,84.3,-165.3,-30.300001,,,,,x,
1058929,3.2347572,6.656135,-0.93190676,0.030488,-2.7210538,1.21952,84.3,-165.3,-31.500002,,,,,x,
1058949,3.5069122,7.11192,-0.9043922,1.02897,-2.2713559,1.3719599,84.3,-165.3,-30.900002,,,,,x,
1058969,3.7497582,8.293851,-0.8852516,1.204276,-1.3414719,1.318606,81.9,-162.90001,-29.7,,,,,x,
1059030,2.6425955,7.982816,-1.9822458,0.891774,1.204276,-1.966476,77.100006,-167.70001,-30.300001,,,,,,
1059050,2.527154,8.232242,-2.659942,2.004586,0.67835796,-1.189032,81.9,-165.3,-27.900002,,,,,,
1059070,2.3369446,9.09297,-2.7843556,1.958854,0.251526,-0.91463995,81.9,-172.5,-29.7,,,,,,
1059090,2.2908876,9.024781,-2.996098,1.692084,0.388722,-1.150922,84.3,-162.90001,-28.500002,,,,,,
1059114,2.1951847,9.38606,-3.237748,1.5244,0.358234,-1.097568,74.700005,-165.3,-26.7,,,,,,
1059134,2.0384712,8.625221,-3.099577,1.036592,0.56402797,-1.1204339,81.9,-167.70001,-27.300001,,,,,,
1059154,1.9708811,8.625221,-3.145634,0.92226195,0.868908,-0.632626,81.9,-165.3,-27.900002,,,,,,
1059174,2.096491,9.262842,-3.317301,0.846042,1.089946,-0.198172,89.100006,-162.90001,-26.7,,,,,,
1059194,2.0767524,9.441687,-3.2820106,0.731712,1.158544,-0.434454,84.3,-167.70001,-27.900002,,,,,,
1059218,2.1563053,9.425537,-2.9667892,0.358234,1.250008,-0.426832,91.5,-165.3,-28.500002,,,,,,
1059239,1.9230297,8.666493,-2.8250291,-0.67835796,1.71495,-0.731712,84.3,-162.90001,-26.1,,,,,,
1059259,1.9619089,8.844142,-2.6503716,-0.28201398,1.440558,0.0,84.3,-165.3,-25.500002,,,,,,
1059279,2.0091622,9.107325,-2.6874564,-0.259148,1.425314,-0.030488,86.700005,-162.90001,-26.7,,,,,,
1059300,1.8129714,8.80287,-2.6013238,-0.41921,1.3948259,-0.47256398,84.3,-167.70001,-27.300001,,,,,,
1059320,1.7220536,8.768178,-2.5361261,-0.144818,1.150922,-0.49543,89.100006,-172.5,-26.1,,,,,,
1059342,1.5461996,8.874647,-2.560052,-0.221038,1.051836,-0.45731997,89.100006,-167.70001,-27.900002,,,,,,
1059363,1.5473958,8.886012,-2.388983,-0.068598,0.853664,-0.320124,86.700005,-167.70001,-26.7,,,,,,
1059383,1.4798057,8.941639,-2.3566833,-0.083841994,0.907018,-0.15244,86.700005,-160.5,-25.500002,,,,,,
1059403,1.4187951,8.930873,-2.3566833,-0.23628199,0.70122397,0.091464,84.3,-165.3,-27.300001,,,,,,
1059444,1.3781214,8.887208,-2.2376528,-0.716468,0.213416,0.297258,81.9,-162.90001,-26.1,,,,,,
1059464,1.5067221,9.07981,-2.4499936,-0.55640596,-0.068598,0.198172,84.3,-162.90001,-27.900002,,,,,,
1059486,1.3410366,9.482959,-2.5720148,-0.40396598,-0.259148,-0.289636,81.9,-165.3,-26.7,,,,,,
1059507,1.3338588,9.239514,-2.6653252,-0.449698,-0.449698,-0.731712,91.5,-162.90001,-26.7,,,,,,
1059527,1.1801361,9.130652,-2.8017018,-0.35061198,-0.449698,-0.33536798,86.700005,-170.1,-26.1,,,,,,
1059587,0.99172103,10.005137,-2.7604299,-0.060976,-0.998482,0.525918,86.700005,-162.90001,-28.500002,,,,,,
1059607,0.71478087,9.781432,-2.8316088,-0.594516,-1.509156,-0.144818,89.100006,-160.5,-26.1,,,,,,
1059630,0.76622117,9.489538,-2.6832693,-0.739334,-2.347576,-0.243904,86.700005,-165.3,-26.7,,,,,,
1059650,0.82424104,9.803563,-2.2867005,-0.967994,-3.368924,0.15244,86.700005,-160.5,-27.300001,,,,,x,
1059670,0.6268538,8.721522,-1.9003003,-1.928366,-4.4664917,0.160062,84.3,-162.90001,-27.300001,,,,,x,
1059690,0.6364241,7.876945,-1.2441374,-2.042696,-5.9680257,0.95274997,86.700005,-167.70001,-27.300001,,,,,x,
1059710,0.7626323,7.2399225,-0.5694321,-2.2713559,-7.218034,2.2256238,79.5,-165.3,-27.900002,,,,,x,
1059733,0.8248392,6.894196,-0.08134744,-2.355198,-8.757678,3.498498,84.3,-172.5,-29.1,,,,,x,
1059754,0.916355,6.057992,-0.0059814295,-2.301844,-10.083906,3.50612,79.5,-170.1,-30.900002,,,,,x,
1059774,1.1861175,5.6368995,0.20217232,-1.806414,-11.364402,3.589962,77.100006,-174.90001,-32.100002,,,,,x,
1059794,1.8081862,6.4097,0.51799184,-1.158544,-12.23331,3.6661818,74.700005,-172.5,-29.7,,,,,x,
1059814,2.0713692,6.732099,0.8391946,-1.41007,-12.035138,2.004586,72.3,-172.5,-31.500002,,,,,x,
1059834,1.3960657,5.2816024,0.35350248,-1.707328,-10.960436,-0.518296,69.9,-170.1,-33.9,,,,,x,
1059854,0.57840425,4.1265883,0.30565107,-0.83842,-11.440621,-1.577754,72.3,-172.5,-33.9,,,,,x,
1059878,0.87747574,4.568616,0.23626648,-0.586894,-10.701288,-0.93750596,79.5,-170.1,-32.7,,,,,x,
1059899,1.2261931,5.715256,0.26079035,-1.4024479,-9.71805,-1.33385,74.700005,-167.70001,-35.7,,,,,x,
1059919,1.0640963,5.0686636,0.20277047,-1.966476,-8.780544,-2.088428,74.700005,-165.3,-34.5,,,,,x,
1059941,0.38340965,3.815554,-0.93848634,-2.13416,-6.196686,-3.025934,74.700005,-165.3,-35.100002,,,,,x,
1060007,1.4744225,5.1781235,-4.413697,2.7362978,-3.346058,0.160062,86.700005,-165.3,-36.300003,,,,,x,
1060027,1.8111769,6.970758,-4.4621468,2.332332,-4.108258,1.1432999,86.700005,-165.3,-36.300003,,,,,x,
1060087,3.1444376,9.448865,-6.64477,1.585376,-0.525918,-5.4725957,84.3,-162.90001,-35.7,,,,,x,
1060116,1.7926345,9.0756235,-6.9091496,1.798792,0.57164997,-7.233278,93.9,-162.90001,-35.100002,,,,,x,
1060176,1.3817103,10.939437,-7.4911427,0.17530599,7.522914,-5.091496,117.9,-153.3,-33.9,,,,,x,
1060216,0.5150011,10.428622,-5.689536,-0.754578,7.820172,-7.256144,125.100006,-155.70001,-32.100002,,,,,x,
1060243,0.17166704,11.54715,-6.8983827,-0.754578,11.082388,-6.082356,134.70001,-153.3,-32.100002,,,,,x,
1060283,-0.001196286,12.105217,-6.508394,0.083841994,11.150986,-4.4664917,139.5,-146.1,-31.500002,,,,,x,
1060303,-0.7763896,15.146176,-6.7823434,-0.510674,12.683008,-3.6585598,141.90001,-143.70001,-30.300001,,,,,x,
1060323,-2.334552,14.422423,-7.513872,-0.28201398,14.085456,-6.4634557,146.70001,-143.70001,-30.300001,,,,,x,
1060363,-1.7310258,16.064325,-6.1130214,-0.099086,12.1799555,-4.5579557,149.1,-141.3,-28.500002,,,,,x,
1060404,-3.3041418,16.575739,-8.881227,0.64787,13.551916,-5.884184,156.3,-138.90001,-24.300001,,,,,x,
1060424,-3.3137121,15.860359,-6.0992637,-0.746956,9.992442,-6.051868,165.90001,-138.90001,-23.1,,,,,x,
1060444,-4.0356708,15.8029375,-7.3948417,-0.358234,15.945224,-4.024416,158.70001,-136.5,-23.1,,,,,x,
1060486,-5.0351677,15.027146,-5.982626,-1.5929979,11.402512,-3.2698379,165.90001,-131.70001,-20.1,,,,,x,
1060508,-5.09558,14.321936,-6.8726625,-2.7439198,12.484836,-0.91463995,158.70001,-126.9,-18.900002,,,,,x,
1060528,-4.697815,14.229223,-6.3953447,-2.43904,9.093046,0.259148,161.1,-134.1,-17.1,,,,,x,
1060548,-4.118214,13.630482,-4.823425,-2.6905658,6.227174,0.53354,156.3,-129.3,-18.300001,,,,,x,
1060568,-4.1726456,12.875028,-4.1612806,-3.513742,6.74547,0.960372,158.70001,-134.1,-18.300001,,,,,x,
1060590,-4.5907474,11.844427,-4.657141,-4.428382,6.425346,1.41007,151.5,-134.1,-19.5,,,,,x,
1060610,-4.063783,11.483149,-4.2677503,-4.0320377,2.97258,2.423796,153.90001,-131.70001,-19.5,,,,,x,
1060630,-3.3824985,10.467502,-3.1803262,-4.169234,0.289636,2.2103798,146.70001,-138.90001,-20.1,,,,,x,
1060650,-2.974565,9.214991,-2.012751,-4.733262,-0.739334,2.652456,151.5,-138.90001,-19.5,,,,,x,
1060670,-2.3034487,9.431519,-1.5677327,-5.37351,0.442076,4.489358,144.3,-143.70001,-20.7,,,,,x,
1060690,-2.3859923,8.83517,-1.5013388,-6.295772,0.83842,3.96344,139.5,-150.90001,-23.1,,,,,x,
1060710,-2.234662,8.014518,-1.5515828,-5.52595,-0.327746,2.987824,141.90001,-148.5,-23.1,,,,,x,
1060730,-1.9864328,7.1196957,-0.9145606,-4.580822,-2.7591639,1.75306,137.1,-153.3,-23.7,,,,,x,
1060750,-1.677791,5.5208597,-0.22729433,-3.7728899,-4.100636,0.586894,132.3,-146.1,-24.300001,,,,,x,
1060770,-1.359579,4.664319,0.023925718,-3.1783738,-4.45887,1.79117,125.100006,-150.90001,-24.900002,,,,,x,
1060790,-0.6753034,5.8671846,-0.07058087,-3.2469718,-5.045764,4.131124,125.100006,-160.5,-27.300001,,,,,x,
1060810,-0.698631,5.3485947,-0.0077758585,-3.368924,-5.251558,3.54423,122.700005,-153.3,-26.7,,,,,x,
1060830,-0.29428634,4.965783,-0.09510473,-2.408552,-6.1052217,3.422278,127.50001,-160.5,-29.1,,,,,x,
1060850,0.07835673,4.329359,0.09211402,-1.8978779,-6.875044,3.170752,120.3,-155.70001,-27.900002,,,,,x,
1060899,1.309335,4.6619263,0.21413518,0.259148,-7.3323636,4.4360037,113.100006,-167.70001,-30.900002,,,,,x,
1060919,1.2094451,4.066774,0.36008206,-0.23628199,-6.44059,3.46801,113.100006,-170.1,-30.900002,,,,,x,
1060961,2.050434,4.903576,0.26378104,0.899396,-5.312534,4.0015497,108.3,-162.90001,-30.300001,,,,,x,
1060982,1.9302074,5.1236925,0.012561003,-0.11432999,-4.03966,3.071666,101.100006,-167.70001,-30.900002,,,,,x,
1061002,2.2741396,5.3539777,-0.30804363,-0.053354,-3.8262439,2.6905658,101.100006,-165.3,-30.900002,,,,,x,
1061022,3.1689615,6.774567,-0.37204492,0.525918,-3.650938,3.528986,98.700005,-172.5,-31.500002,,,,,x,
1061042,4.268946,9.222168,-0.7183697,0.320124,-2.62959,4.1921,96.3,-177.3,-31.500002,,,,,x,
1061062,5.3862777,10.871248,-1.1251069,-0.11432999,-2.2865999,2.179892,89.100006,-167.70001,-32.100002,,,,,x,
1061082,4.5201664,9.229944,-1.7603347,-0.28201398,-0.731712,-1.059458,91.5,-167.70001,-32.100002,,,,,x,
1061145,2.7771778,8.463723,-3.066679,0.26677,-0.243904,-1.06708,91.5,-160.5,-30.300001,,,,,,
1061440,0.43664438,8.539089,-2.4123106,-0.518296,0.22865999,-1.821658,96.3,-174.90001,-29.1,,,,,,
1061461,0.5054308,9.382471,-2.924321,0.53354,0.0,-0.525918,96.3,-162.90001,-30.900002,,,,,,
1061501,1.3105313,9.992577,-2.698821,0.579272,-0.388722,0.259148,93.9,-162.90001,-27.300001,,,,,,
1061543,1.5515828,8.810048,-2.354889,-0.602138,0.41921,0.121952,93.9,-165.3,-29.7,,,,,,
1061583,1.6078084,9.578662,-2.3704405,0.007622,0.525918,-0.16768399,98.700005,-162.90001,-27.300001,,,,,,
1061623,1.23038,9.262842,-2.5421076,-0.17530599,0.69360197,-1.6539739,89.100006,-162.90001,-27.900002,,,,,,
1061643,1.300961,9.040931,-2.4661434,0.129574,0.541162,-1.71495,98.700005,-165.3,-29.7,,,,,,
1061663,1.083835,8.921303,-2.3064394,0.07622,0.602138,-1.1432999,103.50001,-158.1,-29.7,,,,,,
1061683,1.1071626,9.257459,-2.2693543,-0.388722,0.884152,-0.289636,96.3,-162.90001,-27.900002,,,,,,
1061706,1.1370698,9.030165,-2.200568,-0.69360197,1.06708,-0.274392,98.700005,-162.90001,-29.7,,,,,,
1061727,0.94985104,8.497817,-2.3154113,-0.49543,1.1280559,-0.312502,98.700005,-162.90001,-28.500002,,,,,,
1061747,1.1651825,8.744252,-2.4697323,0.007622,0.594516,0.53354,101.100006,-167.70001,-27.900002,,,,,,
1061771,1.6299396,9.433312,-2.1018744,-0.129574,0.221038,0.396344,101.100006,-162.90001,-27.900002,,,,,,
1061791,1.5366293,9.175513,-2.238251,-0.625004,0.35061198,-0.586894,96.3,-165.3,-27.900002,,,,,,
1061812,1.4493004,8.720924,-2.146137,-0.083841994,0.243904,-0.82317597,103.50001,-158.1,-27.300001,,,,,,
1061832,1.4068322,8.881825,-2.133576,-0.053354,0.274392,-0.365856,101.100006,-162.90001,-29.1,,,,,,
1061854,1.2184173,8.539687,-2.3225892,0.053354,0.625004,-0.320124,108.3,-165.3,-27.900002,,,,,,
1061874,1.1801361,9.314282,-2.2017643,0.510674,0.426832,0.41158798,98.700005,-167.70001,-27.900002,,,,,,
1061895,0.6501814,9.357946,-2.556463,-0.015244,0.846042,-0.022866,93.9,-165.3,-28.500002,,,,,,
1061915,0.84697044,9.429126,-2.51878,0.56402797,0.053354,-0.11432999,101.100006,-165.3,-28.500002,,,,,,
1061937,0.89900887,9.519445,-1.9732736,0.55640596,-0.259148,-0.358234,96.3,-162.90001,-28.500002,,,,,,
1061957,0.7895487,10.584738,-2.3148134,-0.068598,0.57164997,0.243904,98.700005,-165.3,-26.7,,,,,,
1061977,0.62266684,11.4622135,-2.899199,0.26677,0.007622,-0.41921,98.700005,-165.3,-27.300001,,,,,,
1061997,-0.15491903,9.905846,-2.3985534,-0.40396598,-1.768304,-1.272874,96.3,-167.70001,-25.500002,,,,,x,
1062037,-0.6639387,8.332131,-0.9366919,-1.3795819,-5.0838737,0.830798,96.3,-165.3,-27.300001,,,,,x,
1062057,0.14833945,9.284973,-0.3923818,-2.080806,-5.83083,1.8292799,98.700005,-160.5,-27.900002,,,,,x,
1062077,-0.2643792,7.8267007,-0.49586052,-2.461906,-7.187546,1.33385,101.100006,-165.3,-29.7,,,,,x,
1062097,0.22430362,7.4726,0.045458864,-0.868908,-9.618964,2.36282,98.700005,-167.70001,-29.7,,,,,x,
1062117,0.35828763,7.1436214,0.2601922,-0.69360197,-10.381164,2.644834,96.3,-170.1,-29.1,,,,,x,
1062137,0.69564027,6.7500434,0.736314,-0.82317597,-11.593061,3.2545938,101.100006,-165.3,-31.500002,,,,,x,
1062158,0.8840553,4.7929196,0.76741743,-1.577754,-12.149467,2.179892,93.9,-162.90001,-32.7,,,,,x,
1062178,1.401449,4.1905894,0.82184845,-0.16768399,-12.2409315,2.660078,91.5,-160.5,-33.300003,,,,,x,
1062200,1.7818679,4.6206546,0.46296266,0.213416,-11.35678,2.7820299,84.3,-167.70001,-33.300003,,,,,x,
1062220,1.4845909,4.099074,-0.1447506,-0.053354,-10.754642,1.516778,84.3,-167.70001,-34.5,,,,,x,
1062241,1.6550616,3.8592184,-0.46834594,0.731712,-10.373542,0.34298998,81.9,-162.90001,-34.5,,,,,x,
1062261,1.8045974,4.2659554,-0.90798104,1.051836,-9.359816,-0.861286,89.100006,-167.70001,-34.5,,,,,x,
1062281,1.7322221,3.622952,-1.6347247,0.67835796,-7.911636,-2.51526,89.100006,-160.5,-35.100002,,,,,x,
1062301,1.677791,3.3298619,-2.6509697,1.6387299,-6.608274,-2.6677,93.9,-165.3,-34.5,,,,,x,
1062321,1.6508746,3.9734638,-3.5499785,2.7896519,-6.4482117,-1.8369019,91.5,-160.5,-33.300003,,,,,x,
1062341,1.9236279,4.883837,-4.146327,2.7515419,-6.5091877,-1.1432999,91.5,-162.90001,-33.9,,,,,x,
1062364,2.1383612,5.286986,-4.450782,1.692084,-5.686012,-1.75306,96.3,-160.5,-33.300003,,,,,x,
1062384,2.9051805,6.2601643,-4.7797604,2.187514,-4.634176,-1.8521459,98.700005,-160.5,-32.7,,,,,x,
1062404,2.6928396,7.050311,-5.115319,2.080806,-2.545748,-3.46801,98.700005,-160.5,-33.300003,,,,,x,
1062424,2.284308,7.777055,-6.2499957,2.47715,0.70122397,-4.969544,101.100006,-160.5,-32.7,,,,,x,
1062444,1.865608,8.468508,-6.9360657,2.492394,0.33536798,-6.608274,108.3,-160.5,-32.7,,,,,x,
1062464,1.786653,8.343496,-6.4031205,1.806414,0.975616,-8.429932,117.9,-158.1,-32.7,,,,,x,
1062485,1.7166703,9.853807,-7.023993,2.164648,4.474114,-7.3933396,120.3,-153.3,-31.500002,,,,,x,
1062505,1.1532197,10.853304,-7.634697,1.989342,5.960404,-9.1463995,125.100006,-148.5,-31.500002,,,,,x,
1062527,-0.022729432,9.230542,-6.8840275,2.621968,7.179924,-12.53819,149.1,-150.90001,-29.1,,,,,x,
1062547,-0.9887303,10.901753,-7.441497,2.111294,10.830862,-10.602201,156.3,-138.90001,-26.1,,,,,x,
1062568,-2.4422178,11.16374,-8.476882,1.1128119,12.980266,-10.907082,161.1,-138.90001,-26.7,,,,,x,
1062588,-1.79084,9.921995,-8.802272,1.8902559,9.733294,-10.06104,168.3,-129.3,-26.1,,,,,x,
1062611,-3.4046297,9.304712,-6.9133363,-1.074702,7.50767,-8.452798,170.70001,-126.9,-23.7,,,,,x,
1062673,-3.673196,11.442475,-7.9547033,-2.408552,10.846106,-5.617414,182.70001,-114.9,-20.7,,,,,x,
1062703,-3.7994041,13.049088,-7.5790696,-3.041178,12.629654,-4.23021,177.90001,-119.700005,-21.300001,,,,,x,
1062723,-3.983632,14.670652,-8.704177,-2.2942219,15.693698,-3.033556,182.70001,-124.50001,-20.1,,,,,x,
1062763,-4.230665,13.975013,-7.257269,-3.2469718,9.41317,-4.222588,177.90001,-119.700005,-15.3,,,,,x,
1062784,-4.18401,15.968623,-8.890199,-2.2637339,18.087006,-3.7042918,182.70001,-114.9,-15.3,,,,,x,
1062804,-4.6469727,13.712428,-9.689917,-0.289636,14.466556,-4.679908,177.90001,-112.50001,-14.1,,,,,x,
1062824,-4.3120127,15.162326,-7.4397025,-3.6738038,8.948228,-1.6387299,182.70001,-117.3,-13.500001,,,,,x,
1062844,-5.1308703,15.292722,-7.074237,-2.7134318,14.542776,-2.492394,175.5,-112.50001,-11.1,,,,,x,
1062868,-5.004662,13.739344,-9.001453,-2.080806,14.893388,-2.088428,173.1,-114.9,-11.700001,,,,,x,
1062888,-4.766003,12.848111,-7.559929,-3.7271578,8.292736,0.365856,165.90001,-114.9,-11.700001,,,,,x,
1062908,-4.6667113,15.582223,-6.0920863,-4.34454,8.833898,2.926848,165.90001,-119.700005,-10.5,,,,,x,
1062928,-5.2439194,11.62132,-6.6579294,-4.9466777,8.399444,-1.3414719,158.70001,-117.3,-12.3,,,,,x,
1062948,-5.17932,10.855697,-5.936569,-4.778994,5.0381417,0.15244,161.1,-122.100006,-11.700001,,,,,x,
1062991,-4.0841203,11.804352,-3.3155065,-5.9985137,2.7972739,3.079288,151.5,-129.3,-12.900001,,,,,x,
1063011,-4.061391,9.964464,-2.878264,-5.236314,1.5244,2.500016,149.1,-129.3,-12.900001,,,,,x,
1063034,-3.2317665,9.515259,-1.7974197,-4.9314337,0.907018,4.093014,149.1,-138.90001,-14.1,,,,,x,
1063054,-3.028996,9.318469,-2.4278624,-4.550334,1.06708,3.955818,146.70001,-136.5,-15.3,,,,,x,
1063075,-3.2395422,7.7585125,-2.4822934,-3.948196,-1.1432999,2.949714,141.90001,-134.1,-17.1,,,,,x,
1063095,-2.0677803,7.940946,-1.2686613,-2.6905658,-4.4664917,4.870458,137.1,-141.3,-15.900001,,,,,x,
1063115,-1.661043,8.024686,-0.72136045,-4.862836,-3.39179,4.87808,129.90001,-143.70001,-18.900002,,,,,x,
1063135,-1.4708335,7.2871757,-1.7693069,-5.282046,-2.7210538,4.352162,134.70001,-146.1,-20.1,,,,,x,
1063155,-1.2889981,6.4102983,-1.8087844,-3.92533,-5.0838737,3.932952,129.90001,-146.1,-18.300001,,,,,x,
1063175,-0.8021097,5.364146,-1.309335,-2.835384,-7.4390717,4.15399,129.90001,-153.3,-22.5,,,,,x,
1063195,-0.09031959,5.28878,-0.8415872,-3.399412,-8.468041,6.006136,117.9,-150.90001,-23.1,,,,,x,
1063215,0.38101706,5.154198,-0.8696999,-3.940574,-8.391822,6.3719916,115.50001,-155.70001,-22.5,,,,,x,
1063279,1.7878493,4.6236453,-0.63223714,-1.692084,-9.6723175,6.257662,101.100006,-158.1,-26.7,,,,,x,
1063322,2.1431463,3.693533,-0.773997,-0.846042,-7.766818,4.984788,101.100006,-160.5,-29.1,,,,,x,
1063360,2.4799008,4.443006,-0.7016217,-0.861286,-6.875044,5.14485,89.100006,-170.1,-29.7,,,,,x,
1063380,3.008061,5.157787,-0.8738869,-0.55640596,-6.067112,4.733262,86.700005,-162.90001,-29.1,,,,,x,
1063420,3.7838523,6.526338,-1.2094451,0.708846,-5.3963757,3.628072,79.5,-167.70001,-29.1,,,,,x,
1063440,4.6188602,7.8135414,-0.91695315,0.312502,-4.786616,3.2241058,72.3,-170.1,-28.500002,,,,,x,
1063460,4.6547484,7.940348,-1.3278774,-0.68597996,-1.6463519,0.388722,74.700005,-165.3,-27.900002,,,,,x,
1063480,4.534522,7.8721595,-1.9804513,0.35061198,-0.26677,-0.07622,74.700005,-170.1,-28.500002,,,,,x,
1063501,3.975258,8.275308,-2.3919737,0.72409,0.198172,0.11432999,72.3,-165.3,-30.300001,,,,,x,
1063521,3.8861349,8.642568,-2.9183395,1.02897,1.006104,-0.46494198,67.5,-167.70001,-29.1,,,,,x,
1063541,3.8520408,9.142017,-3.0732586,1.5929979,0.625004,-0.640248,69.9,-165.3,-29.7,,,,,x,
1063561,3.3771152,9.026576,-3.104362,1.3643379,1.1280559,-1.9131219,69.9,-162.90001,-29.1,,,,,x,
1063581,3.058305,8.484658,-3.506314,1.8292799,1.006104,-2.484772,77.100006,-165.3,-30.300001,,,,,x,
1063601,2.8017018,8.489443,-3.49794,1.097568,0.137196,-1.1356779,77.100006,-162.90001,-26.1,,,,,x,
1063621,2.4649472,8.905152,-3.158793,0.602138,0.137196,-0.396344,79.5,-167.70001,-26.7,,,,,x,
1063645,2.167072,9.099549,-3.2365515,0.312502,0.731712,-1.1128119,81.9,-162.90001,-27.300001,,,,,,
1063665,1.8440747,8.619839,-3.1558022,-0.121952,0.81555396,-1.6082419,79.5,-167.70001,-27.300001,,,,,,
1063685,1.4564781,8.559426,-3.1510172,-0.365856,0.94512796,-1.1280559,74.700005,-160.5,-28.500002,,,,,,
1063750,1.5713216,8.864479,-2.3734312,-1.021348,0.503052,-0.243904,84.3,-167.70001,-26.7,,,,,,
1063801,1.493563,8.984706,-2.5331354,-1.150922,1.1280559,-0.388722,79.5,-170.1,-27.300001,,,,,,
1063841,1.7124833,9.340601,-2.234064,-0.045732,0.19055,-0.967994,84.3,-167.70001,-27.900002,,,,,,
1063862,1.8213453,9.1946535,-2.137763,0.11432999,0.45731997,-1.158544,79.5,-160.5,-28.500002,,,,,,
1063902,1.594051,9.171327,-2.3082337,0.198172,0.960372,-1.196654,84.3,-167.70001,-27.900002,,,,,,
1063922,1.3296719,8.620437,-2.3112245,0.35061198,1.021348,-1.3643379,89.100006,-162.90001,-28.500002,,,,,,
1063942,1.3823084,8.659914,-2.3955626,-0.007622,1.288118,-0.47256398,86.700005,-160.5,-27.300001,,,,,,
1063963,1.4140099,8.53251,-2.3979552,-0.40396598,1.326228,-0.33536798,91.5,-165.3,-29.1,,,,,,
1064025,1.108957,9.1731205,-2.4858823,-0.121952,0.49543,0.35061198,93.9,-162.90001,-26.7,,,,,,
1064046,1.0652926,9.51466,-2.2777283,-0.274392,0.41158798,0.28201398,86.700005,-167.70001,-25.500002,,,,,,
1064086,0.51141226,10.152879,-2.1682682,-0.83842,-0.03811,-0.15244,81.9,-167.70001,-26.1,,,,,,
1064106,0.3283805,9.704869,-2.021125,-1.4024479,-0.57164997,-0.47256398,86.700005,-167.70001,-27.900002,,,,,x,
1064126,0.42946666,9.560119,-1.8099806,-1.661596,-1.806414,0.46494198,89.100006,-167.70001,-26.7,,,,,x,
1064146,0.5891708,9.384863,-1.5491903,-1.814036,-3.2088618,1.1432999,84.3,-165.3,-27.900002,,,,,x,
1064208,1.1735566,7.83986,-0.22729433,-1.8597679,-7.58389,0.960372,81.9,-167.70001,-28.500002,,,,,x,
1064260,1.0605075,4.565027,0.6639387,-0.899396,-10.548848,0.80030996,84.3,-165.3,-32.100002,,,,,x,
1064280,1.1478363,3.890322,1.004282,-0.99086,-10.228724,1.33385,86.700005,-172.5,-31.500002,,,,,x,
1064324,0.97377676,3.0553143,0.3259879,-0.28201398,-8.872007,0.731712,84.3,-170.1,-31.500002,,,,,x,
1064344,1.313522,3.3585727,0.2829216,0.998482,-8.940606,0.95274997,79.5,-167.70001,-32.100002,,,,,x,
