time,sensor_accX,sensor_accY,sensor_accZ,sensor_gyroX,sensor_gyroY,sensor_gyroZ,sensor_magX,sensor_magY,sensor_magZ,label_Boxing_slip_left,label_Boxing_slip_right,label_Boxing_pullback,label_Boxing_roll_left,label_Boxing_roll_right,label_Boxing_recording_cut
703357,0.086132586,8.755617,-2.3883848,0.487808,-0.41158798,-1.9131219,72.3,-167.70001,-27.300001,,,,,,
703377,0.26497734,8.81902,-2.5474908,0.480186,-0.548784,-1.234764,81.9,-170.1,-27.900002,,,,,,
703417,0.60472256,8.994276,-2.0103586,0.358234,-0.053354,-1.204276,84.3,-165.3,-27.300001,,,,,,
703437,0.840989,8.99607,-2.0665839,0.373478,0.259148,-1.303362,79.5,-160.5,-25.500002,,,,,,
703477,1.0605075,9.951304,-2.1287909,0.663114,0.49543,-1.013726,84.3,-170.1,-26.1,,,,,,
703497,0.77938026,9.27002,-2.292682,0.602138,0.94512796,-2.812518,86.700005,-170.1,-26.1,,,,,,
703520,0.97138417,8.738869,-2.4170957,1.48629,0.106708,-2.6677,84.3,-167.70001,-26.1,,,,,,
703540,1.3500087,8.604286,-2.1766422,1.6006199,-0.030488,-2.47715,86.700005,-172.5,-22.5,,,,,,
703560,1.6430987,8.278298,-2.4164977,1.013726,0.625004,-2.370442,84.3,-165.3,-23.1,,,,,,
703580,1.7728958,8.064163,-3.041557,1.44818,1.25763,-1.760682,96.3,-162.90001,-24.900002,,,,,,
703602,2.7508595,9.8209095,-3.2186074,1.8902559,0.731712,0.16768399,93.9,-165.3,-24.300001,,,,,,
703622,3.5541656,11.149983,-3.4482942,0.60976,0.72409,-0.365856,89.100006,-167.70001,-23.7,,,,,,
703642,2.9649947,9.596606,-3.736001,0.19055,0.518296,-2.7820299,98.700005,-162.90001,-24.300001,,,,,,
703662,2.8968065,9.143213,-3.8418722,0.91463995,-0.518296,-2.187514,101.100006,-162.90001,-24.900002,,,,,,
703682,3.032585,9.374097,-3.7330103,0.35061198,-0.785066,-1.6463519,98.700005,-165.3,-24.300001,,,,,,
703702,2.9673872,9.142017,-3.795217,0.068598,-0.64787,-1.75306,103.50001,-162.90001,-23.1,,,,,,
703722,3.0086591,9.136634,-3.689944,0.015244,-0.708846,-1.585376,101.100006,-160.5,-23.7,,,,,,
703742,3.0050702,9.068445,-3.438724,-0.56402797,-0.541162,-1.722572,98.700005,-155.70001,-23.1,,,,,,
703762,2.874675,8.727504,-3.1719522,-0.91463995,-0.41921,-1.821658,108.3,-165.3,-23.7,,,,,,
703783,2.8561327,8.692214,-2.8387866,-1.211898,-0.30488,-1.699706,108.3,-155.70001,-23.1,,,,,,
703803,2.991313,8.596511,-2.497845,-1.4024479,-0.20579399,-1.41007,105.9,-162.90001,-24.300001,,,,,,
703823,2.8980026,8.295047,-2.1162298,-1.3948259,-0.053354,-1.33385,108.3,-162.90001,-24.900002,,,,,,
703843,2.7347097,8.18439,-1.907478,-1.1128119,0.243904,-0.93750596,108.3,-160.5,-23.1,,,,,,
703886,2.9051805,8.284879,-1.6981279,-0.442076,0.739334,-1.463424,108.3,-165.3,-23.7,,,,,,
703906,3.1492229,8.898573,-2.0797431,0.746956,0.129574,-1.25763,117.9,-158.1,-24.300001,,,,,,
703926,2.6796806,7.7537274,-1.9738718,1.1128119,-0.67835796,-2.675322,113.100006,-160.5,-24.300001,,,,,,
703946,2.585772,7.6358933,-1.9098705,2.13416,-1.173788,-1.432936,113.100006,-160.5,-23.7,,,,,,
703967,2.3782165,9.405798,-2.4194884,1.440558,-0.396344,0.106708,117.9,-162.90001,-23.1,,,,,,
704008,0.5544785,9.419556,-3.4297519,2.027452,-2.2256238,-0.33536798,120.3,-150.90001,-21.900002,,,,,,
704028,0.093310304,9.919004,-3.0744548,1.288118,-1.996964,-1.326228,115.50001,-158.1,-23.7,,,,,,
704049,-0.39178365,9.989586,-3.292777,0.754578,-1.204276,-2.027452,117.9,-155.70001,-22.5,,,,,,
704070,-0.9468603,9.731786,-3.2389443,0.3811,-0.82317597,-2.332332,117.9,-150.90001,-21.900002,,,,,,
704090,-1.4911704,9.348974,-3.154008,0.030488,-0.26677,-2.17227,125.100006,-148.5,-20.1,,,,,,
704110,-2.079145,8.841749,-3.250309,0.045732,-0.022866,-1.974098,127.50001,-150.90001,-21.900002,,,,,,
704130,-2.1844182,8.769972,-3.4782014,0.297258,-0.083841994,-1.1204339,129.90001,-150.90001,-22.5,,,,,,
704195,-1.3242885,8.086295,-3.3101232,0.274392,-1.9131219,0.20579399,134.70001,-150.90001,-22.5,,,,,,
704215,-1.1556122,8.321963,-3.179728,-0.22865999,-1.684462,0.602138,129.90001,-153.3,-23.1,,,,,,
704235,-0.5203844,9.316077,-3.2263832,-0.49543,-1.265252,1.18141,127.50001,-155.70001,-22.5,,,,,,
704255,0.4360462,10.755807,-3.2676551,-0.708846,-0.792688,1.326228,127.50001,-153.3,-22.5,,,,,,
704275,-0.25660333,9.243103,-3.3418248,-1.310984,0.259148,-1.21952,132.3,-153.3,-23.1,,,,,,
704295,-0.047253296,9.137232,-3.8675923,-0.045732,0.251526,-0.55640596,132.3,-153.3,-23.1,,,,,,
704315,0.1573116,8.993678,-3.380106,-0.503052,0.35061198,-0.975616,120.3,-148.5,-23.1,,,,,,
704336,0.015551717,8.077921,-3.4961457,-0.373478,0.754578,-1.036592,125.100006,-153.3,-22.5,,,,,,
704356,0.08314187,7.8267007,-3.685757,0.47256398,0.56402797,-0.548784,127.50001,-148.5,-23.1,,,,,,
704376,0.43484995,8.911732,-3.9058735,0.861286,0.106708,0.289636,127.50001,-153.3,-23.1,,,,,,
704396,0.820054,9.746739,-4.002175,0.998482,-0.312502,-0.11432999,134.70001,-148.5,-22.5,,,,,,
704416,0.8350076,9.100147,-3.7665062,0.625004,-0.93750596,-1.3795819,134.70001,-150.90001,-23.7,,,,,,
704436,0.9773656,8.547463,-3.4285555,0.320124,-1.173788,-1.509156,134.70001,-148.5,-21.900002,,,,,,
704456,1.1903045,8.677858,-3.075053,0.053354,-0.983238,-1.288118,132.3,-153.3,-22.5,,,,,,
704476,1.1699677,8.737075,-2.882451,-0.510674,-0.274392,-1.6082419,137.1,-150.90001,-22.5,,,,,,
704519,1.4301598,10.115794,-2.6324272,-0.373478,-0.022866,-2.560992,134.70001,-153.3,-23.7,,,,,,
704569,0.21772404,9.555932,-2.7670095,0.320124,0.960372,-2.2027578,137.1,-148.5,-21.900002,,,,,,
704637,-1.0898165,8.535501,-2.949443,0.182928,0.579272,-1.935988,146.70001,-141.3,-21.300001,,,,,,
704693,-0.8655129,8.874647,-3.2347572,0.55640596,0.182928,-1.737816,149.1,-138.90001,-21.300001,,,,,,
704875,-1.7830642,8.2442045,-3.72344,-1.189032,-0.67835796,-0.46494198,158.70001,-136.5,-21.900002,,,,,,
704931,-0.97616935,7.8554115,-3.167167,-1.051836,-1.417692,0.16768399,151.5,-143.70001,-21.300001,,,,,,
704971,-0.3074455,9.238916,-3.3107214,0.503052,-1.051836,1.432936,158.70001,-141.3,-23.1,,,,,,
704991,-0.4133168,9.226356,-3.7222438,-0.396344,-0.251526,0.33536798,149.1,-141.3,-21.900002,,,,,,
705031,-0.4605701,9.027772,-3.9722674,-0.365856,0.640248,-0.33536798,158.70001,-146.1,-22.5,,,,,,
705093,-0.16329303,8.580959,-3.551773,-0.769822,1.3643379,0.320124,158.70001,-138.90001,-23.1,,,,,,
705113,-0.099889874,8.509182,-3.5709136,-0.93750596,1.6311079,0.182928,149.1,-136.5,-22.5,,,,,,
705133,0.027514577,8.52892,-3.6516628,-0.716468,1.699706,0.129574,156.3,-141.3,-23.1,,,,,,
705156,0.037084863,8.939845,-3.8287132,-0.442076,1.8369019,0.030488,151.5,-143.70001,-20.7,,,,,,
705177,0.06280501,8.957789,-3.8125632,-0.548784,1.730194,-0.388722,153.90001,-136.5,-23.7,,,,,,
705217,0.36367092,8.940443,-4.7965083,-1.1204339,3.1936178,-0.297258,151.5,-136.5,-21.300001,,,,,,
705237,0.4581775,8.188578,-5.7643037,-0.769822,4.085392,-0.274392,153.90001,-138.90001,-21.900002,,,,x,,
705259,0.8086893,6.3157916,-6.6453686,1.1128119,6.234796,-0.56402797,151.5,-141.3,-20.7,,,,x,,
705279,3.3196936,8.30043,-6.836176,3.2850819,1.692084,3.2927039,149.1,-141.3,-20.7,,,,x,,
705341,2.9895186,5.918625,-2.45119,-1.471046,7.85066,-6.768336,153.90001,-138.90001,-18.900002,,,,x,,
705361,2.8106737,5.025597,-1.27225,-2.2027578,8.368956,-7.69822,158.70001,-131.70001,-18.300001,,,,x,,
705381,2.840581,4.4322395,-0.4940661,-2.339954,9.22262,-7.743952,161.1,-129.3,-16.5,,,,x,,
705401,2.6958303,4.054811,-0.01794429,-2.042696,9.954331,-7.9497457,161.1,-134.1,-17.1,,,,x,,
705424,2.6593437,3.5583525,0.47133666,-1.440558,10.388785,-8.399444,168.3,-126.9,-17.7,,,,x,,
705444,1.7100908,3.0421553,0.50842154,-1.4024479,10.541225,-8.864386,177.90001,-126.9,-17.1,,,,x,,
705516,-3.016435,1.6131916,0.85414815,2.111294,5.67839,-7.294254,189.90001,-110.100006,-13.500001,,,,x,,
705538,-4.0721574,4.956811,-0.69564027,3.490876,3.140264,-4.870458,185.1,-105.3,-12.3,,,,x,,
705558,-3.2652624,9.0002575,1.430758,1.036592,-3.460388,-4.321674,201.90001,-110.100006,-10.5,,,,x,,
705578,-5.6500583,7.538994,1.91645,0.213416,-1.6387299,-6.265284,201.90001,-102.9,-12.3,,,,x,,
705599,-7.171136,9.64984,-0.15910603,0.91463995,-1.455802,-2.903982,209.1,-100.50001,-12.3,,,,x,,
705619,-7.8434486,11.965252,-0.14116174,0.525918,-2.7210538,-1.8673899,206.70001,-102.9,-11.700001,,,,x,,
705639,-9.963267,9.1946535,-1.9098705,2.2256238,-3.376546,-5.14485,209.1,-98.100006,-12.3,,,,x,,
705663,-8.592922,10.0476055,-2.2998598,3.902464,-7.789684,0.640248,221.1,-95.700005,-14.700001,,,,x,,
705683,-8.852516,13.401992,-3.1695597,1.48629,-8.285114,4.908568,211.50002,-98.100006,-12.3,,,,x,,
705703,-9.968651,12.998245,-4.2157116,-0.41158798,-8.658592,2.6677,211.50002,-98.100006,-15.3,,,,x,,
705725,-7.3230643,13.962451,-4.877258,1.745438,-12.515324,4.855214,211.50002,-100.50001,-18.300001,,,,x,,
705745,-9.585839,13.339187,-4.497437,-0.388722,-12.019894,2.835384,213.90001,-100.50001,-18.300001,,,,x,,
705805,-8.152091,12.763175,-3.777871,-2.47715,-10.36592,2.385686,209.1,-107.700005,-21.300001,,,,x,,
705825,-9.228149,12.5310955,-8.03306,0.754578,-4.260698,5.03052,206.70001,-112.50001,-22.5,,,,x,,
705845,-5.572898,14.914097,-8.833974,1.722572,-12.08087,8.6814575,204.3,-112.50001,-23.1,,,,x,,
705865,-6.8014836,14.389525,-6.4491777,-0.198172,-12.362884,5.9832697,199.50002,-114.9,-24.900002,,,,x,,
705885,-7.0521054,13.541957,-9.679748,2.05794,-3.7042918,5.5793037,197.1,-112.50001,-24.300001,,,,x,,
705907,-3.3358433,14.403283,-11.642255,2.164648,-11.067143,10.1982355,192.3,-122.100006,-26.1,,,,x,,
705927,-2.8686936,15.676729,-10.383163,0.35061198,-14.420824,10.983302,185.1,-122.100006,-27.900002,,,,x,,
705947,-3.8227317,14.164623,-8.592324,-0.487808,-9.283596,5.617414,182.70001,-124.50001,-27.300001,,,,x,,
705968,-2.8561327,12.404887,-10.118785,0.3811,-5.000032,6.158576,173.1,-129.3,-27.300001,,,,x,,
705988,-2.0761542,12.6178255,-10.422043,0.106708,-7.400962,9.436036,170.70001,-136.5,-29.7,,,,x,,
706008,-0.78655803,13.2058,-8.758009,-0.55640596,-8.300358,10.541225,161.1,-136.5,-30.300001,,,,x,,
706031,-0.34153965,12.219462,-7.6370893,-1.1432999,-4.61131,8.46042,156.3,-146.1,-31.500002,,,,x,,
706051,0.10886202,11.636273,-8.740065,-1.6539739,0.07622,8.186028,146.70001,-148.5,-32.100002,,,,x,,
706113,1.2471281,7.4115896,-6.291866,-1.463424,-0.022866,6.8826656,125.100006,-158.1,-32.7,,,,x,,
706133,1.8530469,8.135941,-5.8384733,-2.2789779,1.3948259,8.132674,122.700005,-155.70001,-32.100002,,,,x,,
706153,1.9230297,7.19566,-5.3964458,-0.884152,2.926848,5.327778,113.100006,-158.1,-32.100002,,,,x,,
706173,1.8805615,6.3062215,-4.794714,1.6006199,2.47715,2.881116,110.700005,-158.1,-30.300001,,,,x,,
706193,2.2448306,5.898886,-3.9172382,1.9131219,2.560992,1.455802,108.3,-153.3,-32.100002,,,,x,,
706213,2.1162298,5.6303196,-3.1653726,1.478668,3.414656,-0.137196,108.3,-167.70001,-30.900002,,,,x,,
706236,1.8111769,5.1476183,-2.158698,1.3643379,2.644834,-2.980202,110.700005,-158.1,-30.300001,,,,x,,
706256,1.9020946,4.7008057,-1.1735566,0.81555396,2.644834,-5.0076537,113.100006,-158.1,-28.500002,,,,x,,
706276,1.7830642,4.2396374,-0.90798104,0.579272,3.2469718,-6.21193,115.50001,-153.3,-28.500002,,,,x,,
706296,1.7734939,3.2640662,-0.30086592,0.20579399,3.902464,-6.9588857,122.700005,-155.70001,-29.7,,,,x,,
706356,2.840581,4.1194105,0.46714967,-0.83842,7.9192576,-2.919226,132.3,-158.1,-26.7,,,,x,,
706376,2.217914,4.5596437,-0.2075556,-0.884152,9.154022,-2.141782,134.70001,-148.5,-26.1,,,,x,,
706396,2.0007882,5.1721425,-0.6896588,-0.45731997,9.245486,-2.7134318,127.50001,-150.90001,-25.500002,,,,x,,
706416,1.5964435,6.702192,-0.57122654,0.899396,8.30798,-2.85825,132.3,-150.90001,-26.1,,,,x,,
706436,0.60173184,7.203436,-0.7751933,0.03811,8.025966,-4.664664,129.90001,-148.5,-24.900002,,,,x,,
706456,0.055627298,7.5910325,-1.16279,0.160062,7.118948,-4.748506,137.1,-150.90001,-24.300001,,,,x,,
706477,-1.1466401,8.795692,-1.4678428,0.23628199,6.158576,-2.888738,146.70001,-148.5,-24.300001,,,,x,,
706497,-1.2680631,10.236021,-1.5557699,-1.227142,4.969544,-1.059458,144.3,-150.90001,-25.500002,,,,x,,
706517,-1.527059,9.025977,-1.9529368,-2.454284,5.52595,-1.8826339,137.1,-138.90001,-23.7,,,,,,
706537,-1.7047075,9.101343,-2.5163875,-1.6539739,4.4969797,-0.47256398,151.5,-148.5,-23.1,,,,,,
706597,-0.96241206,9.241907,-2.515191,-0.586894,0.312502,0.28201398,146.70001,-150.90001,-23.7,,,,,,
706617,-0.38640037,9.788012,-2.4236753,-0.53354,-0.297258,0.525918,144.3,-146.1,-23.7,,,,,,
706639,-0.15551718,9.61156,-2.1246037,-0.625004,-0.49543,0.312502,149.1,-143.70001,-24.900002,,,,,,
706659,-0.4970568,9.227551,-2.2436342,-0.998482,-0.16768399,0.129574,149.1,-143.70001,-23.7,,,,,,
706681,-0.5526841,8.971546,-2.2938783,-0.297258,-0.69360197,0.23628199,141.90001,-148.5,-23.1,,,,,,
706701,-0.37264308,9.190467,-2.0881171,0.129574,-1.3567159,0.655492,141.90001,-141.3,-24.300001,,,,,,
706721,-0.6430037,8.703578,-2.2753358,-0.137196,-1.3643379,0.60976,139.5,-146.1,-24.900002,,,,,,
706744,-0.52935654,8.734084,-2.7197561,0.64787,-2.332332,1.288118,139.5,-150.90001,-24.300001,,,,,,
706764,-0.37623194,8.758608,-2.7042043,0.708846,-2.644834,1.425314,144.3,-148.5,-22.5,,,,,,
706826,0.12919888,9.126466,-3.05352,-1.18141,-2.004586,0.57164997,139.5,-146.1,-24.300001,,,,,,
706846,0.29189378,8.952406,-3.2485144,-0.632626,-1.722572,0.769822,141.90001,-148.5,-23.7,,,,,,
706866,0.40853164,8.826796,-2.9757612,-0.586894,-1.707328,0.785066,137.1,-148.5,-24.300001,,,,,,
706888,0.18602246,8.823207,-3.0493329,-0.45731997,-0.92226195,0.846042,137.1,-148.5,-23.7,,,,,,
706910,0.51021594,9.316675,-3.0678754,0.129574,-0.541162,0.289636,134.70001,-150.90001,-25.500002,,,,,,
706950,0.48569208,8.960181,-3.2365515,-0.34298998,0.007622,-0.23628199,132.3,-150.90001,-23.7,,,,,,
706970,0.86611104,8.969752,-3.2592812,-0.129574,0.28201398,-0.259148,132.3,-153.3,-24.900002,,,,,,
706990,0.78595984,8.972743,-3.7126734,-0.68597996,1.6158639,-0.64787,137.1,-148.5,-26.7,,,,,,
707010,0.83082056,8.499014,-4.4119024,-0.34298998,2.2942219,-0.83842,137.1,-146.1,-24.300001,,,,,,
707030,1.0395725,8.513369,-4.5458865,-0.731712,2.583858,-0.72409,137.1,-148.5,-23.1,,,,,,
707050,1.1789398,8.61924,-5.2481065,-0.769822,3.6890478,-0.891774,134.70001,-148.5,-24.300001,,,,,,
707070,1.4696373,8.499014,-5.9132414,0.55640596,3.871976,-1.250008,141.90001,-150.90001,-23.7,,,,,,
707090,2.1598942,8.612062,-5.925802,1.173788,2.621968,-1.097568,134.70001,-146.1,-22.5,,,,x,,
707111,2.6916435,7.8805337,-4.8497434,0.739334,2.6829438,-2.164648,134.70001,-146.1,-22.5,,,,x,,
707131,2.9021897,7.3487844,-4.083522,0.396344,4.024416,-3.01069,141.90001,-146.1,-23.7,,,,x,,
707212,2.6366143,5.4885597,-0.6705183,-0.40396598,7.66011,-4.580822,153.90001,-138.90001,-21.900002,,,,x,,
707252,2.1401556,3.9710712,-0.117834166,-1.158544,10.076283,-7.286632,153.90001,-136.5,-18.300001,,,,x,,
707272,1.7011186,3.957912,0.5359361,-0.785066,9.054935,-7.2409,158.70001,-134.1,-18.300001,,,,x,,
707314,0.085534446,1.6466876,1.1609955,-1.1280559,6.562542,-10.190614,170.70001,-129.3,-18.300001,,,,x,,
707354,-0.26258478,3.0888102,2.5522761,1.98172,2.080806,-4.253076,175.5,-119.700005,-18.900002,,,,x,,
707374,-2.0653877,4.799499,1.8763745,2.157026,2.85825,-3.8262439,185.1,-122.100006,-17.1,,,,x,,
707394,-2.9847333,6.814045,1.5330404,2.926848,-0.030488,-3.864354,182.70001,-114.9,-13.500001,,,,x,,
707434,-6.5371046,6.736884,0.35350248,2.89636,1.158544,-2.484772,189.90001,-114.9,-14.1,,,,x,,
707454,-8.322561,9.5619135,-2.1222112,1.8978779,1.02897,0.91463995,192.3,-117.3,-12.900001,,,,x,,
707474,-7.427141,10.563205,-2.941069,1.196654,-2.469528,1.21952,189.90001,-117.3,-14.1,,,,x,,
707494,-7.929581,10.637375,-2.6180718,3.071666,-5.9527817,1.585376,192.3,-117.3,-14.1,,,,x,,
707557,-7.988199,13.812916,-6.706379,2.080806,-6.890288,2.6981878,182.70001,-114.9,-14.700001,,,,x,,
707578,-6.0567956,15.834639,-6.3062215,-0.746956,-12.561056,6.341504,182.70001,-119.700005,-15.3,,,,x,,
707598,-5.828903,15.511044,-5.242723,-2.080806,-12.683008,5.129606,180.3,-117.3,-16.5,,,,x,,
707618,-7.2782035,14.080285,-6.547871,-0.91463995,-8.452798,4.245454,182.70001,-122.100006,-17.7,,,,x,,
707638,-4.412501,17.727163,-7.243511,0.213416,-13.628136,8.5899935,180.3,-122.100006,-20.1,,,,x,,
707678,-6.3187823,13.278175,-7.8930945,-0.434454,-6.425346,3.628072,173.1,-126.9,-22.5,,,,x,,
707698,-4.121205,14.568969,-9.083998,1.250008,-10.769886,7.1265697,170.70001,-126.9,-22.5,,,,x,,
707718,-3.463846,15.372872,-6.98631,-0.030488,-13.856795,6.78358,163.5,-131.70001,-24.900002,,,,x,,
707738,-3.421378,14.921274,-8.053995,-0.17530599,-9.306461,5.4268637,163.5,-131.70001,-24.300001,,,,x,,
707760,-3.527249,13.156753,-8.603688,-0.17530599,-8.894874,4.054904,156.3,-138.90001,-23.7,,,,x,,
707780,-2.8555346,12.659696,-8.944032,0.030488,-7.5152917,5.4116197,153.90001,-136.5,-26.1,,,,x,,
707800,-1.4881797,13.568275,-9.760497,1.074702,-5.205826,7.522914,146.70001,-138.90001,-25.500002,,,,x,,
707863,0.47073853,12.085479,-9.256263,-1.280496,-3.7271578,5.929916,134.70001,-148.5,-27.300001,,,,x,,
707883,1.0700778,11.082991,-9.200037,-0.617382,-1.966476,5.419242,125.100006,-146.1,-29.1,,,,x,,
707907,2.2274845,11.390436,-7.882926,-1.6387299,-1.5244,6.890288,120.3,-146.1,-28.500002,,,,x,,
707928,2.3530943,11.12546,-6.623237,-2.89636,0.297258,4.45887,117.9,-150.90001,-28.500002,,,,x,,
707968,1.2315763,6.6597238,-6.074142,-0.015244,2.51526,-0.15244,110.700005,-162.90001,-28.500002,,,,x,,
707989,1.7591385,6.9641786,-4.787536,-1.94361,2.2484899,3.2012398,113.100006,-160.5,-28.500002,,,,x,,
708031,1.326083,6.218294,-3.250309,-2.82014,4.222588,0.213416,108.3,-160.5,-30.300001,,,,x,,
708051,1.631734,6.0807214,-2.4129088,-1.67684,3.8262439,-0.213416,105.9,-165.3,-30.300001,,,,x,,
708071,1.4804039,5.630918,-1.493563,-1.432936,3.8262439,-2.050318,103.50001,-167.70001,-29.1,,,,x,,
708091,1.0957979,4.282704,-0.8726906,-0.777444,4.5427117,-3.8109999,110.700005,-160.5,-29.1,,,,x,,
708155,1.2321745,4.2904797,-0.0723753,0.853664,6.753092,-2.111294,115.50001,-158.1,-27.900002,,,,x,,
708175,1.1783416,4.1594863,-0.18602246,0.487808,7.385718,-2.408552,120.3,-155.70001,-26.1,,,,x,,
708195,1.384701,4.6427855,-0.24105161,0.975616,7.157058,-2.004586,117.9,-155.70001,-25.500002,,,,x,,
708215,1.6640338,5.062084,-0.13278773,1.044214,6.78358,-1.8902559,117.9,-155.70001,-25.500002,,,,,,
708239,1.8195509,5.322874,-0.043664437,0.663114,6.6158957,-2.042696,117.9,-148.5,-24.300001,,,,,,
708259,1.9882272,5.732602,-0.33017492,0.434454,6.684494,-2.088428,125.100006,-158.1,-25.500002,,,,,,
708279,1.8333082,6.3110065,-0.6495833,0.72409,6.067112,-2.2103798,122.700005,-155.70001,-23.7,,,,,,
708301,1.8991039,6.972553,-0.95702875,1.089946,5.015276,-2.6981878,120.3,-150.90001,-22.5,,,,,,
708321,1.0593112,8.090482,-1.4911704,1.303362,3.62045,-1.94361,127.50001,-153.3,-21.900002,,,,,,
708342,0.6214706,8.797487,-1.911665,1.006104,3.46801,-1.471046,122.700005,-143.70001,-22.5,,,,,,
708362,0.5078234,9.504492,-2.4188902,0.396344,1.8826339,-1.493912,129.90001,-148.5,-21.300001,,,,,,
708382,0.12919888,7.6735764,-1.8297193,-0.053354,1.089946,-1.5929979,127.50001,-146.1,-22.5,,,,,,
708402,-0.28112718,9.229944,-2.7843556,-0.449698,1.8521459,1.554888,127.50001,-148.5,-20.7,,,,,,
708422,-0.59036714,9.93336,-3.543997,-0.297258,1.234764,1.6082419,120.3,-148.5,-21.300001,,,,,,
708442,-0.3355582,10.042222,-3.3454137,0.45731997,-0.632626,1.097568,127.50001,-148.5,-21.300001,,,,,,
708462,0.085534446,9.813732,-3.1246989,-0.137196,-0.907018,0.56402797,125.100006,-148.5,-22.5,,,,,,
708486,0.44800907,9.870555,-3.16298,-0.594516,-0.983238,0.106708,127.50001,-155.70001,-20.7,,,,,,
708506,0.4396351,9.373499,-3.0385664,-0.87653,-1.089946,-0.060976,129.90001,-153.3,-22.5,,,,,,
708526,0.44023323,9.474585,-3.0116498,-1.013726,-1.044214,0.22865999,129.90001,-153.3,-21.900002,,,,,,
708546,0.5748154,9.365125,-2.7963183,-1.013726,-1.18141,0.129574,127.50001,-150.90001,-23.7,,,,,,
708566,0.4133168,8.890797,-2.4051328,-1.242386,-1.021348,-0.26677,129.90001,-153.3,-23.1,,,,,,
708586,0.37683007,8.438003,-2.3076355,-1.310984,-0.69360197,-0.274392,129.90001,-150.90001,-21.900002,,,,,,
708606,0.4551868,8.680849,-2.1156316,-0.830798,-0.67073596,0.22865999,129.90001,-153.3,-22.5,,,,,,
708626,0.4384388,8.540883,-2.0683784,-0.853664,-0.129574,0.083841994,125.100006,-150.90001,-24.300001,,,,,,
708646,0.27873462,8.469107,-2.392572,-0.525918,0.259148,0.160062,122.700005,-150.90001,-24.900002,,,,,,
708666,0.16269489,8.6868305,-2.6569512,-0.053354,0.259148,0.19055,120.3,-150.90001,-23.1,,,,,,
708686,0.44860724,9.294543,-2.9021897,0.480186,0.129574,0.40396598,125.100006,-155.70001,-21.300001,,,,,,
708706,0.6334334,9.855003,-3.2198036,0.121952,0.213416,0.182928,120.3,-146.1,-23.7,,,,,,
708746,0.30445477,8.945827,-3.5218658,0.121952,-0.617382,0.0,129.90001,-153.3,-22.5,,,,,,
708766,0.3923818,9.1946535,-3.4195833,-0.26677,-0.81555396,0.53354,129.90001,-155.70001,-22.5,,,,,,
708790,0.49227166,9.325647,-3.401041,-0.663114,-0.55640596,0.213416,125.100006,-158.1,-21.900002,,,,,,
708810,0.556273,9.078614,-3.2933753,-0.81555396,-0.503052,-0.289636,117.9,-155.70001,-23.1,,,,,,
708873,0.37563378,8.351273,-2.6725028,-0.769822,-0.68597996,-0.030488,120.3,-162.90001,-23.7,,,,,,
708894,0.36965236,8.79629,-2.652166,-0.998482,-0.586894,0.358234,125.100006,-153.3,-26.1,,,,,,
708914,0.48688838,9.125867,-2.887236,-0.92226195,-0.503052,0.198172,127.50001,-160.5,-24.300001,,,,,,
708934,0.4509998,9.0188,-2.9811447,-0.754578,-0.45731997,-0.060976,125.100006,-153.3,-24.300001,,,,,,
708994,1.0138524,9.663,-3.5589507,-0.373478,-0.30488,0.17530599,122.700005,-162.90001,-24.300001,,,,x,,
709014,1.0168431,9.081007,-3.9519305,-1.1128119,0.41921,-0.87653,120.3,-150.90001,-24.900002,,,,x,,
709034,1.4026452,8.75143,-4.7026,-0.060976,1.288118,-0.69360197,122.700005,-158.1,-24.900002,,,,x,,
709054,1.6203693,8.527126,-4.8975945,0.007622,0.983238,-0.30488,127.50001,-153.3,-24.900002,,,,x,,
709078,1.9834421,8.223867,-5.5005226,0.160062,2.7439198,-0.221038,120.3,-153.3,-23.7,,,,x,,
709098,2.7855518,9.078614,-5.693125,0.853664,2.32471,0.579272,127.50001,-158.1,-25.500002,,,,x,,
709118,3.0200238,8.641372,-5.029784,0.221038,2.644834,-0.198172,120.3,-155.70001,-24.900002,,,,x,,
709178,3.275431,7.4145803,-2.5576594,0.45731997,4.169234,-2.164648,122.700005,-148.5,-23.7,,,,x,,
709198,3.443509,6.045431,-2.07436,-0.312502,5.320156,-4.314052,125.100006,-153.3,-23.1,,,,x,,
709218,3.7467675,5.1984606,-1.7872512,-0.121952,5.884184,-4.550334,129.90001,-150.90001,-22.5,,,,x,,
709238,4.0883074,5.006457,-1.4804039,-0.80030996,6.9283977,-4.702774,139.5,-148.5,-21.300001,,,,x,,
709280,3.2957678,5.1404405,-1.1747528,-0.998482,8.346089,-7.446694,141.90001,-143.70001,-18.900002,,,,x,,
709300,2.3339539,3.6929348,-0.4438221,-0.960372,6.951264,-10.160126,139.5,-136.5,-19.5,,,,x,,
709320,0.73511773,1.3290737,0.49346796,-0.72409,6.006136,-12.408616,156.3,-136.5,-22.5,,,,x,,
709340,-0.5012438,0.8212503,0.81048375,0.7622,5.815586,-10.495494,161.1,-141.3,-20.7,,,,x,,
709360,-0.7476787,2.3740294,1.0126561,1.516778,4.4817357,-8.338468,168.3,-126.9,-17.7,,,,x,,
709380,-2.2322695,4.350892,1.4110193,2.507638,2.89636,-6.890288,170.70001,-126.9,-15.3,,,,x,,
709400,-3.2329628,6.6106763,1.0383762,1.6006199,2.431418,-6.9893737,173.1,-117.3,-16.5,,,,x,,
709420,-3.6761868,5.768491,1.6670245,1.463424,0.274392,-8.361334,192.3,-122.100006,-15.3,,,,x,,
709440,-5.992196,5.993991,1.2429411,2.027452,0.129574,-7.294254,194.70001,-114.9,-16.5,,,,x,,
709463,-8.037247,9.015211,-1.0969942,3.2012398,-0.121952,-2.7591639,189.90001,-107.700005,-15.900001,,,,x,,
709483,-7.0778255,11.672162,-1.3183072,1.44818,-4.359784,-0.23628199,199.50002,-110.100006,-16.5,,,,x,,
709503,-6.685444,9.962071,-0.13039517,1.303362,-6.722604,-2.911604,197.1,-105.3,-16.5,,,,x,,
709523,-7.6957073,9.501501,-1.9756663,1.6006199,-5.746988,-1.150922,204.3,-110.100006,-16.5,,,,x,,
709545,-6.739277,11.660797,-3.6068022,1.6463519,-5.686012,2.157026,204.3,-105.3,-16.5,,,,x,,
709565,-6.0352626,13.104714,-3.467435,2.446662,-8.948228,2.111294,199.50002,-105.3,-17.7,,,,x,,
709589,-7.5228443,12.306193,-4.7133665,1.280496,-7.667732,1.692084,206.70001,-110.100006,-17.1,,,,x,,
709610,-5.89769,14.048584,-3.8311057,1.1051899,-10.449761,4.123502,199.50002,-110.100006,-20.1,,,,x,,
709630,-7.157977,13.131033,-4.1642714,-0.312502,-7.705842,2.408552,204.3,-110.100006,-19.5,,,,x,,
709650,-6.9767394,12.114189,-4.912548,-0.030488,-8.704324,3.6966698,194.70001,-112.50001,-20.7,,,,x,,
709670,-4.9795403,14.045593,-3.401639,0.16768399,-11.067143,6.5091877,199.50002,-117.3,-22.5,,,,x,,
709690,-6.8541203,14.142492,-4.877856,-1.692084,-5.769854,3.445144,194.70001,-117.3,-21.900002,,,,x,,
709713,-7.2895684,12.042413,-7.571294,1.272874,-5.061008,3.62045,192.3,-114.9,-21.300001,,,,x,,
709773,-5.3791,13.906824,-8.060575,0.55640596,-2.050318,4.375028,185.1,-122.100006,-26.1,,,,x,,
709795,-3.3406284,13.415749,-10.217478,3.041178,-7.225656,5.10674,180.3,-126.9,-27.300001,,,,x,,
709815,-2.4260678,14.692185,-6.765595,0.137196,-13.856795,6.646384,173.1,-129.3,-30.300001,,,,x,,
709836,-3.1133342,15.365695,-8.38716,-0.106708,-2.347576,4.275942,173.1,-131.70001,-29.1,,,,x,,
709856,-2.7747853,15.081577,-9.308301,0.518296,-2.157026,3.88722,173.1,-129.3,-27.300001,,,,x,,
709878,-1.9625071,14.662279,-8.183792,-0.30488,-6.32626,4.4207597,158.70001,-136.5,-29.7,,,,x,,
709898,-1.4199914,14.841124,-7.5043015,-1.425314,-3.6738038,4.298808,156.3,-141.3,-29.7,,,,x,,
709919,-1.2064544,13.623902,-7.3434014,-2.339954,-0.785066,2.2637339,156.3,-136.5,-32.7,,,,x,,
709939,-0.98035634,12.404887,-7.806962,-2.2865999,1.1432999,1.798792,151.5,-134.1,-30.900002,,,,x,,
709963,-1.271652,10.891585,-7.809355,-1.920744,1.303362,2.347576,149.1,-143.70001,-30.900002,,,,x,,
709983,-0.17346147,10.678048,-6.5819654,-2.36282,-1.059458,4.4664917,153.90001,-141.3,-31.500002,,,,x,,
710003,0.5054308,10.4363985,-4.895202,-3.35368,-0.830798,4.184478,144.3,-143.70001,-31.500002,,,,x,,
710023,-0.046655152,8.214895,-4.9346795,-2.530504,2.568614,1.6158639,146.70001,-146.1,-32.100002,,,,x,,
710043,0.47014037,6.546077,-5.1769276,-0.70122397,2.576236,2.614346,144.3,-148.5,-33.9,,,,x,,
710063,1.5318441,7.7626996,-4.3831916,-1.158544,1.989342,6.5701637,139.5,-153.3,-30.900002,,,,x,,
710083,1.7962234,7.889506,-3.6085966,-1.661596,3.033556,5.838452,132.3,-143.70001,-33.9,,,,x,,
710143,1.6383137,5.61417,-2.1030707,0.746956,5.3963757,0.70122397,115.50001,-158.1,-29.7,,,,x,,
710273,0.681883,3.8873312,-0.5945541,-0.251526,4.03966,-4.5731997,137.1,-153.3,-26.7,,,,x,,
710313,1.1119478,4.648169,-0.3271842,-1.044214,3.7042918,-3.018312,141.90001,-155.70001,-26.7,,,,x,,
710334,1.1322846,5.098571,-0.12860073,-1.021348,3.612828,-2.01983,149.1,-146.1,-27.300001,,,,x,,
710376,0.732127,7.953507,-0.7548564,0.198172,3.917708,0.137196,149.1,-153.3,-27.300001,,,,x,,
710416,0.10766573,8.697597,-1.3314662,0.68597996,4.093014,-1.074702,149.1,-148.5,-26.7,,,,x,,
710436,-0.9025977,9.200037,-2.2412417,0.708846,4.15399,-0.365856,146.70001,-143.70001,-25.500002,,,,x,,
710456,-1.2824185,8.676064,-2.4828916,0.663114,2.637212,-0.121952,151.5,-146.1,-24.900002,,,,x,,
710496,-0.97796375,10.148692,-2.8543382,0.868908,0.853664,0.434454,151.5,-143.70001,-23.7,,,,,,
710554,-0.5203844,9.3890505,-2.6719046,0.56402797,-1.554888,-0.83842,139.5,-143.70001,-24.900002,,,,,,
710574,-0.36905423,9.4536495,-2.3279724,0.396344,-1.532022,0.083841994,146.70001,-148.5,-22.5,,,,,,
710615,-0.36307278,8.917115,-2.3728333,-0.868908,-0.640248,0.868908,144.3,-148.5,-25.500002,,,,,,
710635,-0.04246815,9.214991,-2.2358584,-0.297258,-0.64787,1.326228,141.90001,-146.1,-26.1,,,,,,
710655,-0.000598143,8.738869,-2.0336862,-0.525918,-0.20579399,1.326228,141.90001,-138.90001,-26.1,,,,,,
710675,-0.1268063,9.007435,-2.4799008,-0.541162,0.541162,1.1128119,146.70001,-148.5,-24.300001,,,,,,
710719,-0.2087519,8.722719,-2.7143729,0.45731997,0.121952,1.75306,141.90001,-150.90001,-24.900002,,,,,,
710739,0.030505292,9.29574,-3.142045,0.434454,0.160062,1.44818,134.70001,-146.1,-23.1,,,,,,
710759,0.12740445,9.219177,-3.033183,0.579272,-0.23628199,1.318606,134.70001,-143.70001,-23.1,,,,,,
710779,0.36367092,9.750329,-3.128886,0.518296,-0.320124,1.150922,132.3,-148.5,-23.7,,,,,,
710802,0.2266962,9.099549,-3.4399202,-0.053354,-0.19055,0.26677,129.90001,-150.90001,-24.300001,,,,,,
710822,0.28591233,9.218579,-3.5433989,-0.045732,-0.72409,0.41921,137.1,-143.70001,-22.5,,,,,,
710842,0.42707407,9.296338,-3.4572663,-0.35061198,-0.960372,0.358234,132.3,-150.90001,-24.300001,,,,,,
710905,0.681883,9.133643,-2.7951221,-1.189032,-0.46494198,-0.23628199,134.70001,-141.3,-25.500002,,,,,,
710969,0.29966962,8.988893,-2.4685361,-0.46494198,-0.15244,0.106708,129.90001,-146.1,-24.900002,,,,x,,
710989,0.42408335,8.982911,-2.6605399,-0.739334,0.26677,-0.3811,132.3,-141.3,-24.900002,,,,x,,
711009,0.4803088,9.182691,-3.091801,-0.868908,0.983238,-0.510674,139.5,-148.5,-24.900002,,,,x,,
711032,0.19140574,8.406899,-4.471717,-0.56402797,2.431418,-1.1051899,137.1,-143.70001,-26.1,,,,x,,
711053,0.5754135,7.981022,-5.7290134,1.288118,3.12502,-0.602138,134.70001,-150.90001,-24.300001,,,,x,,
711114,3.1952798,8.814833,-5.0238028,1.48629,2.2180018,0.68597996,134.70001,-146.1,-21.900002,,,,x,,
711218,2.9739668,4.1923842,-0.59754485,-1.272874,7.157058,-5.693634,146.70001,-146.1,-21.300001,,,,x,,
711238,3.0870159,4.2193007,-0.030505292,-1.41007,7.682976,-5.8918056,141.90001,-150.90001,-18.900002,,,,x,,
711278,1.5121055,1.6538653,0.958225,-0.579272,9.207376,-8.841519,161.1,-141.3,-18.300001,,,,x,,
711298,1.5545735,1.9230297,0.97796375,0.182928,9.359816,-7.9649897,161.1,-134.1,-18.900002,,,,x,,
711318,0.84697044,3.1534097,0.59275967,0.92226195,9.161644,-6.547298,163.5,-131.70001,-17.1,,,,x,,
711342,0.14714317,5.6063943,0.053234726,2.157026,5.9832697,-4.855214,170.70001,-126.9,-17.1,,,,x,,
711362,-1.3392421,4.799499,1.2357634,1.272874,3.7652678,-6.280528,168.3,-122.100006,-15.900001,,,,x,,
711382,-3.0696697,5.605796,-0.0059814295,1.204276,4.237832,-5.769854,177.90001,-129.3,-14.700001,,,,x,,
711402,-3.6797755,8.121585,-0.70939755,1.8445239,1.471046,-3.948196,170.70001,-119.700005,-13.500001,,,,x,,
711422,-3.9597065,9.34718,-0.40015766,1.501534,-0.274392,-2.911604,177.90001,-119.700005,-12.3,,,,x,,
711442,-5.3162947,8.415274,-0.68606997,-0.251526,-0.3811,-3.971062,177.90001,-114.9,-14.700001,,,,x,,
711462,-6.2428184,9.269422,-2.16767,1.288118,-0.967994,-2.446662,187.5,-110.100006,-14.1,,,,x,,
711482,-5.447886,12.375578,-3.3723302,1.33385,-2.40093,0.617382,180.3,-114.9,-15.3,,,,x,,
711502,-5.814548,11.917998,-3.0511272,0.449698,-5.198204,-2.01983,185.1,-119.700005,-14.1,,,,x,,
711542,-6.4150834,12.934842,-3.6498685,0.426832,-6.36437,0.91463995,189.90001,-112.50001,-14.1,,,,x,,
711578,-6.97016,12.269707,-4.2581797,1.013726,-8.788166,2.36282,197.1,-117.3,-15.900001,,,,x,,
711598,-5.8749604,14.393712,-3.8945088,0.083841994,-9.771403,4.832348,189.90001,-114.9,-16.5,,,,x,,
711638,-7.5862474,13.480947,-6.614265,-0.106708,-5.7165,1.6006199,185.1,-117.3,-18.900002,,,,x,,
711658,-5.824716,14.155651,-7.8314857,0.358234,-10.51836,4.969544,185.1,-117.3,-19.5,,,,x,,
711682,-5.392857,14.727476,-5.8713713,-2.05794,-11.943674,5.0228977,189.90001,-114.9,-21.900002,,,,x,,
711702,-5.175731,14.417638,-7.943937,-0.746956,-7.8582816,4.222588,182.70001,-119.700005,-23.1,,,,x,,
711726,-3.5703154,14.936827,-7.6047897,0.358234,-13.041242,5.701256,177.90001,-126.9,-23.7,,,,x,,
711746,-3.4447055,15.034922,-6.360054,-0.503052,-13.711978,5.3963757,175.5,-124.50001,-25.500002,,,,x,,
711768,-3.614578,13.664577,-8.3740015,0.045732,-6.6311398,3.58234,175.5,-126.9,-26.7,,,,x,,
711788,-2.489471,13.38943,-8.361441,1.509156,-9.710428,4.809482,175.5,-136.5,-25.500002,,,,x,,
711808,-2.075556,13.056863,-6.684846,1.516778,-9.931466,6.0290017,165.90001,-129.3,-27.300001,,,,x,,
711828,-1.5779011,13.549733,-7.6293135,2.2865999,-6.158576,6.5854077,170.70001,-134.1,-28.500002,,,,x,,
711848,-1.786653,13.004825,-8.309402,2.652456,-4.207344,5.899428,161.1,-136.5,-29.1,,,,x,,
711868,-0.5796005,13.477956,-8.709559,2.164648,-4.093014,6.714982,163.5,-143.70001,-28.500002,,,,x,,
711888,-0.23566833,12.895963,-7.8637857,1.013726,-2.7439198,5.86894,153.90001,-141.3,-24.900002,,,,x,,
711908,-0.27514577,11.496906,-7.500713,0.0,-0.960372,4.4969797,149.1,-148.5,-27.300001,,,,x,,
711928,-0.13996546,10.260545,-7.351775,-0.541162,0.716468,4.260698,144.3,-143.70001,-28.500002,,,,x,,
711948,0.27873462,9.959679,-7.00246,-1.242386,1.3414719,5.152472,134.70001,-146.1,-28.500002,,,,x,,
711968,0.26138848,9.1192875,-6.1130214,-1.318606,1.6463519,4.5122237,134.70001,-146.1,-26.7,,,,x,,
711990,0.9677953,8.4714985,-5.569309,-0.655492,2.195136,3.986306,132.3,-150.90001,-28.500002,,,,x,,
712052,1.5838826,6.56761,-3.7282252,-1.06708,4.0472817,1.570132,125.100006,-150.90001,-27.900002,,,,x,,
712074,1.7914382,6.034066,-3.2018592,-0.434454,4.626554,0.602138,113.100006,-148.5,-27.300001,,,,x,,
712094,1.7053056,5.746958,-2.9972944,-0.40396598,4.710396,0.30488,115.50001,-160.5,-26.1,,,,x,,
712116,1.2190154,4.994494,-2.5391169,-0.983238,5.121984,-0.137196,117.9,-153.3,-26.1,,,,x,,
712177,1.4941611,4.6051025,-1.2985684,-1.577754,5.0228977,0.15244,110.700005,-160.5,-25.500002,,,,x,,
712237,1.3248867,4.053615,-0.8421853,-1.166166,5.846074,-1.021348,113.100006,-153.3,-27.900002,,,,x,,
712257,1.5701253,5.0728507,-0.80091345,-0.373478,5.693634,-0.625004,122.700005,-150.90001,-26.7,,,,x,,
712277,1.4481041,6.1112266,-0.8834572,-0.17530599,5.686012,-1.3948259,115.50001,-160.5,-25.500002,,,,x,,
712297,1.1801361,5.7475557,-1.0922091,-0.30488,5.312534,-2.6829438,110.700005,-153.3,-24.900002,,,,x,,
712320,0.62745196,6.0843105,-0.83859646,0.23628199,4.23021,-2.050318,115.50001,-155.70001,-25.500002,,,,x,,
712340,0.36247465,8.821412,-1.0640963,-0.358234,2.7134318,-0.92226195,115.50001,-155.70001,-23.7,,,,x,,
712360,0.820054,8.460732,-0.22908875,-1.326228,1.75306,-1.760682,115.50001,-155.70001,-23.7,,,,x,,
712381,0.7506694,7.8667765,-0.16030231,-1.547266,2.576236,-1.516778,120.3,-153.3,-24.900002,,,,x,,
712401,0.45578495,8.762197,-0.8230447,-1.699706,3.513742,0.297258,120.3,-153.3,-25.500002,,,,x,,
712423,0.7787821,10.309592,-1.6389117,-1.440558,2.881116,0.35061198,117.9,-158.1,-23.7,,,,x,,
712443,0.6268538,9.451257,-1.5025351,-1.3872039,2.050318,-1.013726,115.50001,-158.1,-24.300001,,,,,,
712463,0.5484971,9.342993,-1.606612,-0.64787,1.661596,-0.785066,117.9,-155.70001,-25.500002,,,,,,
712486,0.38041893,8.993079,-1.752559,-0.33536798,1.463424,-1.02897,117.9,-155.70001,-24.300001,,,,,,
712530,0.34153965,9.256861,-2.288495,0.22865999,0.67073596,-0.830798,115.50001,-155.70001,-24.300001,,,,,,
712551,0.73033255,9.633691,-2.3118227,0.68597996,-0.045732,-0.480186,113.100006,-158.1,-24.300001,,,,,,
712571,0.5299547,9.036146,-2.338141,0.144818,-0.358234,-0.83842,117.9,-158.1,-24.300001,,,,,,
712591,0.53892684,8.876442,-2.4045348,0.251526,-0.49543,-0.83842,115.50001,-150.90001,-23.1,,,,,,
712653,0.60232997,9.085194,-2.9733686,0.503052,-0.69360197,-0.28201398,120.3,-158.1,-23.7,,,,,,
712673,0.5586655,9.054688,-2.9590132,0.586894,-0.655492,-0.137196,120.3,-150.90001,-24.300001,,,,,,
712693,0.38400778,9.325048,-3.2311683,0.327746,-0.243904,0.03811,125.100006,-153.3,-24.900002,,,,,,
712713,0.3355582,9.001453,-3.3238804,0.030488,-0.16768399,-0.030488,125.100006,-153.3,-24.900002,,,,,,
712737,0.35828763,8.787318,-3.3143103,-0.106708,-0.23628199,0.274392,117.9,-153.3,-23.7,,,,,,
712757,0.5861801,9.2807865,-3.2072427,-0.045732,-0.617382,0.625004,120.3,-153.3,-23.7,,,,,,
712777,0.7249493,9.438696,-2.9984908,-0.129574,-0.80030996,0.3811,115.50001,-150.90001,-24.300001,,,,,,
712799,0.6794904,9.121082,-2.9751632,-0.3811,-0.92988396,-0.053354,120.3,-153.3,-24.900002,,,,,,
712819,0.7805766,8.889601,-2.777776,-0.20579399,-1.1204339,0.022866,122.700005,-150.90001,-23.7,,,,,,
712839,0.8015116,8.973939,-2.5821831,-0.23628199,-1.051836,0.17530599,117.9,-162.90001,-24.300001,,,,,,
712859,0.7428936,9.158765,-2.597735,-0.487808,-0.846042,0.16768399,110.700005,-158.1,-24.900002,,,,,,
712903,0.6968366,8.713747,-2.9021897,-0.41158798,-0.617382,-0.060976,120.3,-153.3,-24.300001,,,,,,
712923,1.121518,8.994874,-3.183317,-0.67835796,-0.22865999,-0.129574,115.50001,-150.90001,-23.7,,,,,,
712947,1.3864954,9.152185,-3.999184,-0.92988396,1.272874,-0.899396,122.700005,-153.3,-24.900002,,,,,,
712967,1.4104211,7.9714513,-4.8306026,-0.327746,1.8369019,-1.8521459,120.3,-158.1,-23.7,,,,x,,
712987,2.2209048,7.736381,-5.367137,0.70122397,1.21952,-0.72409,115.50001,-146.1,-24.900002,,,,x,,
713049,4.0697646,8.061771,-2.8842454,-0.34298998,2.40093,-2.903982,120.3,-155.70001,-23.7,,,,x,,
713069,3.7922266,6.732099,-1.8967113,-1.463424,4.4817357,-4.1921,125.100006,-143.70001,-23.1,,,,x,,
713089,3.4704256,5.8396697,-1.3410366,-1.75306,6.272906,-4.786616,127.50001,-153.3,-23.1,,,,x,,
713153,2.489471,3.5398102,0.778184,-1.082324,10.25159,-6.082356,141.90001,-150.90001,-23.7,,,,x,,
713213,0.5209825,3.6660182,0.011364716,1.493912,11.623549,-5.785098,144.3,-141.3,-18.900002,,,,x,,
713273,-1.5204794,5.2451158,-0.40613908,3.628072,4.009172,-3.92533,151.5,-131.70001,-15.900001,,,,x,,
713375,-5.1655626,9.314282,-2.2705507,2.507638,-2.347576,-2.187514,173.1,-117.3,-12.900001,,,,x,,
713395,-5.0806265,10.882613,-2.4063292,1.966476,-4.131124,-0.3811,168.3,-119.700005,-12.3,,,,x,,
713435,-5.532224,11.717621,-4.047035,0.861286,-3.856732,-1.722572,173.1,-117.3,-16.5,,,,x,,
713475,-4.7743773,12.826578,-3.9399679,1.6311079,-9.07018,1.539644,170.70001,-119.700005,-12.900001,,,,x,,
713495,-4.044643,13.946899,-4.003371,0.480186,-7.5457797,1.204276,180.3,-119.700005,-17.1,,,,x,,
713515,-4.7552366,13.300905,-4.530335,0.053354,-6.4177237,1.036592,177.90001,-117.3,-16.5,,,,x,,
713557,-5.016027,14.381749,-6.004159,-0.396344,-3.346058,1.074702,173.1,-119.700005,-18.300001,,,,x,,
713577,-6.269735,13.147182,-8.764589,0.68597996,-1.6234859,0.868908,180.3,-122.100006,-17.7,,,,x,,
713600,-4.0584,14.997239,-9.478173,0.28201398,-10.007686,4.131124,177.90001,-114.9,-18.900002,,,,x,,
713620,-3.3878818,14.487621,-6.066964,-1.189032,-13.384232,2.7744079,177.90001,-122.100006,-19.5,,,,x,,
713642,-3.916042,12.867251,-6.5825634,-1.3643379,-8.6509695,1.8978779,177.90001,-124.50001,-21.900002,,,,x,,
713662,-3.560147,13.732764,-8.537892,-0.30488,-7.553402,3.6814258,173.1,-119.700005,-22.5,,,,x,,
713682,-3.3190954,13.510255,-8.334524,0.49543,-10.083906,4.0625257,177.90001,-126.9,-20.7,,,,x,,
713702,-2.5779963,13.372683,-6.3917556,-0.060976,-12.683008,4.603688,175.5,-131.70001,-24.300001,,,,x,,
713722,-2.8429735,12.626798,-7.6119676,-1.303362,-5.975648,4.131124,177.90001,-131.70001,-23.1,,,,x,,
713742,-2.9177413,12.645939,-8.430227,-0.625004,-5.510706,4.4055157,168.3,-131.70001,-25.500002,,,,x,,
713785,-0.98095447,12.522123,-6.0023646,-0.92226195,-9.03207,6.455834,156.3,-134.1,-25.500002,,,,x,,
713805,-0.719566,12.595097,-6.2386312,-1.478668,-6.36437,6.3719916,161.1,-134.1,-28.500002,,,,x,,
713825,-0.61429286,12.078899,-8.09407,-0.434454,-3.056422,5.853696,149.1,-141.3,-27.300001,,,,x,,
713845,0.16568561,12.221855,-6.937262,-0.053354,-5.5030837,6.722604,144.3,-138.90001,-27.900002,,,,x,,
713868,0.53653425,11.551935,-5.4676247,-2.111294,-3.384168,6.0290017,137.1,-148.5,-27.900002,,,,x,,
713910,0.2673699,9.807751,-6.492244,-1.935988,1.730194,3.2927039,127.50001,-153.3,-29.1,,,,x,,
713930,1.0545261,9.609167,-6.6322093,-0.26677,1.509156,3.597584,127.50001,-146.1,-28.500002,,,,x,,
713952,1.0928072,9.958483,-5.737387,-0.68597996,0.70122397,4.321674,120.3,-153.3,-29.1,,,,x,,
713972,1.3715419,8.725112,-4.994494,-1.3567159,1.775926,3.147886,120.3,-153.3,-29.1,,,,x,,
713992,1.3613734,7.643669,-4.2599745,-1.02897,1.94361,2.195136,115.50001,-158.1,-28.500002,,,,x,,
714012,1.6466876,6.459346,-3.1875038,-0.91463995,2.2180018,0.95274997,113.100006,-160.5,-29.1,,,,x,,
714034,2.0821357,6.23265,-2.752056,-0.129574,4.5884438,0.861286,115.50001,-158.1,-30.300001,,,,x,,
714054,1.422384,5.4502788,-2.376422,-0.015244,4.718018,-0.221038,115.50001,-158.1,-29.7,,,,x,,
714075,1.2578946,4.353883,-1.6831744,-0.15244,3.940574,-0.28201398,117.9,-162.90001,-28.500002,,,,x,,
714095,1.3464198,4.389173,-1.117331,-0.396344,3.993928,0.861286,108.3,-162.90001,-29.1,,,,x,,
714155,1.8446729,3.7425807,-0.61429286,-0.777444,4.0320377,1.3414719,108.3,-158.1,-26.1,,,,x,,
714175,2.1694646,3.4357333,-0.36127836,-0.67073596,4.298808,0.46494198,110.700005,-155.70001,-27.900002,,,,x,,
714197,2.6425955,4.250404,0.13518031,-0.030488,3.910086,0.434454,108.3,-162.90001,-27.900002,,,,x,,
714217,2.526556,5.0782337,0.1268063,-0.67073596,5.0381417,-0.80030996,101.100006,-160.5,-27.900002,,,,x,,
714238,2.2657657,4.936474,-0.053234726,-0.312502,5.29729,-2.2027578,105.9,-160.5,-26.1,,,,x,,
714258,2.1287909,5.7050877,0.019738719,0.41921,4.893324,-1.974098,105.9,-160.5,-24.900002,,,,x,,
714278,0.72734183,7.16336,-0.8248392,0.518296,5.000032,-1.6158639,108.3,-155.70001,-24.900002,,,,x,,
714298,0.38759664,8.109024,-1.0192356,0.95274997,4.519846,-0.998482,105.9,-160.5,-26.1,,,,x,,
714318,1.0108616,10.915511,-1.3302699,0.586894,3.155508,0.28201398,108.3,-155.70001,-24.900002,,,,,,
714338,0.21174261,9.695299,-1.1538178,-1.3719599,3.841488,-2.507638,105.9,-160.5,-25.500002,,,,,,
714358,-0.025122005,8.868666,-1.9194407,-1.3872039,3.445144,-1.455802,108.3,-158.1,-26.7,,,,,,
714381,-0.20935003,9.716234,-1.9678904,-0.548784,2.2332458,-0.579272,110.700005,-162.90001,-24.300001,,,,,,
714401,-0.10228245,9.99138,-2.1234076,-1.021348,1.3719599,-0.67073596,110.700005,-160.5,-26.1,,,,,,
714464,0.55029154,9.5511465,-1.799214,-1.074702,-1.303362,-1.1356779,113.100006,-160.5,-25.500002,,,,,,
714514,0.8762795,9.017005,-1.418197,-0.80793196,-0.70122397,-0.22865999,120.3,-155.70001,-27.300001,,,,,,
714535,0.6376204,8.90575,-1.5587605,-0.868908,-0.17530599,-0.30488,117.9,-162.90001,-28.500002,,,,,,
714577,0.25002375,8.889003,-2.22569,0.23628199,-0.137196,0.20579399,115.50001,-160.5,-29.7,,,,,,
714597,0.22729433,9.067249,-2.3901794,0.579272,-0.632626,0.541162,120.3,-160.5,-24.900002,,,,,,
714617,0.38520408,9.335815,-2.4906673,0.92226195,-1.1051899,0.899396,117.9,-165.3,-27.900002,,,,,,
714637,0.539525,9.327441,-2.5439022,0.68597996,-1.326228,0.891774,110.700005,-160.5,-25.500002,,,,,,
714658,0.5796005,9.374695,-2.765813,0.251526,-1.3490939,0.93750596,110.700005,-160.5,-25.500002,,,,,,
714679,0.6920514,9.64685,-2.857927,0.426832,-1.493912,0.92226195,110.700005,-155.70001,-26.1,,,,,,
714700,1.0946016,9.429126,-2.7664113,0.045732,-1.585376,-0.03811,108.3,-160.5,-26.7,,,,,,
714720,1.1430513,9.085194,-2.6575491,0.0,-1.539644,0.03811,115.50001,-158.1,-26.7,,,,,,
714740,0.80809116,9.013416,-2.4589658,-0.47256398,-1.082324,0.57164997,110.700005,-162.90001,-25.500002,,,,,,
714760,1.0138524,9.181495,-2.5163875,-0.358234,-0.899396,0.243904,113.100006,-158.1,-26.7,,,,,,
714781,1.1448456,9.432714,-2.393768,-0.26677,-0.80030996,0.23628199,113.100006,-160.5,-27.900002,,,,,,
714801,0.96839345,8.94463,-2.423077,-0.754578,-0.663114,-0.160062,108.3,-160.5,-27.300001,,,,,,
714821,1.1263032,8.73528,-2.3022523,-0.3811,-0.777444,-0.11432999,110.700005,-155.70001,-27.300001,,,,,,
714841,1.2967739,8.694008,-2.3279724,-0.251526,-0.518296,-0.121952,113.100006,-155.70001,-28.500002,,,,,,
714904,2.1323798,9.197046,-3.03737,-1.3795819,0.80793196,-1.059458,110.700005,-158.1,-27.900002,,,,,,
714934,1.7507645,7.7333903,-4.288087,-0.853664,2.385686,-1.8826339,113.100006,-158.1,-28.500002,,,,,,
714954,2.4625547,8.344692,-4.6589355,0.3811,1.288118,-0.69360197,113.100006,-160.5,-24.900002,,,,,,
714994,3.1235025,8.196353,-4.652356,1.082324,1.745438,-1.8673899,113.100006,-158.1,-26.7,,,,x,,
715014,3.9764545,8.93805,-4.1636734,1.783548,1.082324,-1.547266,117.9,-155.70001,-26.1,,,,x,,
715034,4.163075,8.618044,-2.9297042,1.41007,2.32471,-3.597584,115.50001,-155.70001,-26.1,,,,x,,
715054,4.208534,7.5132737,-2.0970893,0.442076,4.718018,-5.670768,122.700005,-158.1,-26.7,,,,x,,
715076,4.0679703,6.178219,-1.108359,-0.312502,6.661628,-7.225656,122.700005,-148.5,-25.500002,,,,x,,
715097,3.1869059,4.2839,-0.3295768,-0.95274997,9.161644,-8.3842,134.70001,-153.3,-26.1,,,,x,,
715117,2.8256273,3.4423127,0.2757439,-0.480186,11.806478,-7.721086,139.5,-146.1,-23.1,,,,x,,
715137,2.5504816,3.4004428,0.21951847,-0.53354,12.469592,-7.9040136,146.70001,-138.90001,-21.300001,,,,x,,
715159,1.305148,1.5456015,0.38400778,-0.015244,12.317152,-9.626586,158.70001,-143.70001,-20.7,,,,x,,
715179,0.81467074,1.3236904,0.6101058,1.539644,11.303426,-8.841519,158.70001,-141.3,-20.7,,,,x,,
715199,-0.17106889,1.3870935,0.22250919,2.347576,10.396408,-8.23176,161.1,-136.5,-18.900002,,,,x,,
715219,-0.5449082,3.1558022,0.047851436,4.11588,7.789684,-5.746988,165.90001,-129.3,-16.5,,,,x,,
715242,-0.74408984,5.6213474,0.95463616,3.490876,3.910086,-4.984788,165.90001,-122.100006,-16.5,,,,x,,
715262,-2.7454762,4.0177264,1.4271691,1.814036,4.64942,-7.9954777,170.70001,-126.9,-14.700001,,,,x,,
715282,-4.104457,5.342613,-0.47791624,3.39179,4.702774,-5.304912,173.1,-122.100006,-14.1,,,,x,,
715305,-4.711572,7.985807,-0.974973,2.644834,0.891774,-2.97258,180.3,-117.3,-14.700001,,,,x,,
715346,-5.6560397,9.752721,-1.8608228,2.545748,-0.33536798,-2.355198,182.70001,-112.50001,-12.900001,,,,x,,
715410,-6.6208444,12.839139,-4.507007,0.525918,-4.61131,0.121952,182.70001,-112.50001,-12.3,,,,x,,
715430,-6.592732,11.296528,-2.6413994,0.708846,-7.629622,0.998482,192.3,-110.100006,-14.700001,,,,x,,
715451,-6.535908,13.394814,-4.3144054,-0.388722,-1.806414,4.1921,192.3,-112.50001,-14.700001,,,,x,,
715472,-7.7914104,15.339974,-7.3278494,0.213416,1.989342,4.718018,185.1,-117.3,-15.3,,,,x,,
715593,-5.685349,12.498198,-7.785429,-0.426832,-8.224138,3.140264,177.90001,-119.700005,-18.900002,,,,x,,
715613,-3.8496482,14.76157,-9.760497,2.080806,-8.742434,6.8674216,173.1,-119.700005,-20.7,,,,x,,
715655,-2.6982229,15.877107,-7.706474,-0.7622,-13.49094,5.9070497,163.5,-124.50001,-22.5,,,,x,,
715675,-2.9386764,15.342965,-7.911039,-1.661596,-10.876594,4.76375,168.3,-131.70001,-23.7,,,,x,,
715695,-1.6293415,14.649119,-10.185179,-0.099086,-7.4543157,6.486322,163.5,-126.9,-25.500002,,,,x,,
715715,-1.0634983,14.5288925,-8.282486,-2.2027578,-11.722635,7.881148,153.90001,-138.90001,-26.7,,,,x,,
715739,-0.30146405,13.874524,-6.2517905,-3.2088618,-9.809514,7.69822,153.90001,-141.3,-27.900002,,,,x,,
715759,0.22011662,12.895365,-5.798996,-3.1936178,-4.855214,6.189064,141.90001,-143.70001,-29.7,,,,x,,
715779,0.19738717,12.025066,-6.392952,-2.2789779,-2.301844,4.72564,137.1,-138.90001,-30.900002,,,,x,,
715799,-0.24224791,9.905248,-6.2942586,-1.798792,-1.493912,3.414656,132.3,-146.1,-30.300001,,,,x,,
715819,0.57840425,10.743246,-6.496431,-1.8826339,-1.1432999,6.966508,132.3,-148.5,-30.900002,,,,x,,
715839,0.63403153,10.190562,-5.55615,-2.995446,-0.579272,6.3719916,125.100006,-150.90001,-31.500002,,,,x,,
715859,0.9073829,8.620437,-5.138646,-2.6677,0.41158798,5.198204,117.9,-153.3,-32.100002,,,,x,,
715920,1.8273268,5.05371,-3.3777134,-0.57164997,2.317088,2.7744079,113.100006,-158.1,-31.500002,,,,x,,
715953,2.0887153,5.6668067,-3.0953898,-1.158544,5.4573517,3.3155699,101.100006,-158.1,-31.500002,,,,x,,
715973,2.0851264,5.2528915,-2.9685836,-0.868908,5.4725957,2.7591639,101.100006,-162.90001,-30.900002,,,,x,,
716016,2.1622868,4.650562,-1.752559,-0.03811,6.0747337,1.539644,96.3,-162.90001,-30.300001,,,,x,,
716036,2.0277047,4.2193007,-1.300961,-0.091464,6.150954,0.365856,93.9,-162.90001,-30.300001,,,,x,,
716056,1.8632153,3.7240381,-0.9019996,0.15244,6.1052217,-0.47256398,96.3,-160.5,-28.500002,,,,x,,
716077,2.0982854,3.6391017,-0.62027425,0.40396598,6.143332,-0.868908,89.100006,-165.3,-27.300001,,,,x,,
716098,2.372235,4.1140275,-0.20935003,0.56402797,6.006136,-0.80793196,93.9,-165.3,-27.900002,,,,x,,
716119,2.3309631,4.447193,0.08194559,0.327746,6.455834,-1.41007,89.100006,-165.3,-26.7,,,,x,,
716139,2.2657657,4.7917233,-0.25779963,0.137196,6.8979096,-2.103672,89.100006,-165.3,-26.7,,,,x,,
716159,2.296869,4.935876,-0.33316565,0.221038,6.66925,-2.103672,96.3,-165.3,-27.300001,,,,x,,
716179,1.9894235,5.6578345,-0.26138848,0.785066,5.884184,-1.814036,101.100006,-160.5,-27.900002,,,,x,,
716203,2.2155216,7.015619,-0.26079035,0.70122397,4.794238,-1.44818,101.100006,-158.1,-26.7,,,,x,,
716223,1.388888,6.9193177,-0.28172535,0.731712,4.53509,-0.548784,91.5,-165.3,-26.1,,,,x,,
716243,1.313522,8.580361,-0.4396351,1.425314,3.88722,1.79117,101.100006,-160.5,-25.500002,,,,x,,
716305,0.099889874,10.836556,-2.5361261,-0.274392,3.7805119,-0.16768399,96.3,-162.90001,-24.300001,,,,x,,
716325,-0.24763119,9.852013,-2.6473808,0.03811,1.699706,-0.83842,89.100006,-162.90001,-24.300001,,,,x,,
716345,0.38759664,10.111607,-2.577398,0.40396598,-0.07622,0.068598,91.5,-165.3,-23.7,,,,x,,
716365,1.0389743,10.770163,-2.388983,-0.03811,-0.739334,0.160062,93.9,-162.90001,-24.300001,,,,,,
716445,1.0533298,8.440395,-2.0869207,0.060976,-0.617382,-1.166166,98.700005,-162.90001,-24.900002,,,,,,
716468,1.1430513,8.212503,-2.217914,0.251526,-0.708846,-0.67835796,96.3,-160.5,-25.500002,,,,,,
716489,1.3416346,8.692214,-2.3614686,0.68597996,-0.95274997,-0.144818,96.3,-158.1,-24.300001,,,,,,
716509,1.4457116,8.360843,-2.2872987,0.518296,-0.998482,0.045732,93.9,-160.5,-25.500002,,,,,,
716529,1.2704557,8.296842,-2.4942563,0.26677,-0.7622,0.40396598,96.3,-162.90001,-24.300001,,,,,,
716553,1.1753509,8.673073,-3.1988685,0.7622,-0.525918,0.388722,96.3,-165.3,-23.7,,,,,,
716573,1.4869834,9.262244,-3.3322544,1.1280559,-0.99086,0.3811,96.3,-158.1,-23.1,,,,,,
716593,1.8261305,9.513464,-3.1743448,0.80030996,-1.1204339,0.068598,101.100006,-158.1,-24.300001,,,,,,
716614,1.8823559,9.817919,-3.083427,0.49543,-0.975616,-0.083841994,98.700005,-162.90001,-22.5,,,,,,
716634,1.7005205,9.642065,-3.1025677,-0.160062,-0.67073596,-0.80030996,91.5,-160.5,-24.300001,,,,,,
716654,1.5198812,9.197046,-2.9596114,-0.198172,-0.68597996,-1.082324,103.50001,-158.1,-23.1,,,,,,
716674,1.3518031,9.031361,-2.9859297,-0.35061198,-0.708846,-0.87653,98.700005,-158.1,-24.300001,,,,,,
716694,1.2417448,8.764589,-2.970378,-0.442076,-1.089946,-0.579272,98.700005,-153.3,-24.300001,,,,,,
716714,1.4325525,8.75442,-2.7412891,-0.358234,-1.516778,-0.060976,101.100006,-160.5,-23.1,,,,,,
716734,1.7519608,8.950013,-2.4781063,-0.434454,-1.684462,0.137196,98.700005,-160.5,-23.1,,,,,,
716754,1.83271,8.65154,-2.3309631,-0.80030996,-1.417692,-0.16768399,98.700005,-165.3,-24.300001,,,,,,
716774,1.8602246,8.473293,-2.485284,-1.097568,-0.716468,-0.312502,98.700005,-162.90001,-24.300001,,,,,,
716794,2.2514102,9.310096,-2.7981129,-1.1432999,-0.022866,-0.35061198,98.700005,-158.1,-24.300001,,,,,,
716814,2.16767,8.582155,-3.4106112,-2.2484899,1.432936,-1.577754,98.700005,-160.5,-23.1,,,,,,
716834,1.6377155,7.20523,-4.745068,-0.60976,3.01069,-2.195136,103.50001,-162.90001,-23.7,,,,,,
716854,2.6449883,7.7298017,-5.4676247,1.3490939,1.021348,-0.41158798,98.700005,-155.70001,-23.7,,,,x,,
716875,3.606204,9.320264,-4.6780763,0.967994,0.16768399,-0.19055,101.100006,-158.1,-23.7,,,,x,,
716895,4.233058,9.073231,-4.3909674,-0.091464,1.6463519,-1.760682,103.50001,-160.5,-23.7,,,,x,,
716915,4.4448004,8.761599,-3.4632478,-0.449698,2.47715,-2.987824,113.100006,-155.70001,-22.5,,,,x,,
716975,3.9058735,5.9389615,-0.878672,-0.091464,5.9527817,-5.746988,117.9,-155.70001,-21.900002,,,,x,,
716995,3.7623193,5.643479,0.105273165,0.182928,6.714982,-6.303394,117.9,-150.90001,-21.300001,,,,x,,
717015,3.3950596,4.2839,0.73990285,0.07622,7.942124,-7.667732,129.90001,-150.90001,-23.1,,,,x,,
717035,2.957817,2.6952322,1.2477262,0.083841994,8.833898,-8.57475,129.90001,-148.5,-21.300001,,,,x,,
717055,1.9960032,1.6149861,1.2668668,0.716468,10.571713,-8.247004,134.70001,-146.1,-21.300001,,,,x,,
717075,1.489376,1.7358109,0.68367743,1.9131219,11.128119,-7.4695597,139.5,-146.1,-18.900002,,,,x,,
717095,0.45578495,1.7722976,0.10826388,3.2393498,9.885734,-7.614378,141.90001,-138.90001,-18.300001,,,,x,,
717115,-0.48090696,1.7495682,-0.08972145,3.7805119,7.187546,-7.339986,146.70001,-136.5,-16.5,,,,x,,
717138,-0.5233751,3.8974996,0.80510044,4.169234,2.538126,-5.388754,156.3,-131.70001,-15.900001,,,,x,,
717158,-2.146137,3.73959,0.5347398,2.644834,2.2103798,-6.272906,156.3,-126.9,-14.1,,,,x,,
717178,-3.7994041,5.7457614,-0.5544785,4.11588,0.320124,-4.634176,161.1,-122.100006,-14.700001,,,,x,,
717198,-3.0720623,8.5576315,0.5885727,2.675322,-4.413138,-3.528986,163.5,-126.9,-15.3,,,,x,,
717218,-5.2241807,8.476284,0.4761218,1.082324,-2.012208,-5.3658876,170.70001,-117.3,-14.1,,,,x,,
717238,-5.9880095,9.945323,-1.9565257,2.035074,-1.684462,-3.3003259,177.90001,-117.3,-14.700001,,,,x,,
717262,-5.2534895,11.422736,-1.6640338,3.2012398,-5.37351,-2.05794,177.90001,-112.50001,-12.3,,,,x,,
717282,-8.087491,10.481857,-3.024211,1.4024479,-3.102154,-2.484772,182.70001,-114.9,-13.500001,,,,x,,
717302,-7.830888,12.259539,-5.312706,2.568614,-2.500016,1.814036,185.1,-114.9,-12.900001,,,,x,,
717342,-7.3912525,15.433285,-5.249901,0.83842,-7.3933396,2.301844,187.5,-110.100006,-14.1,,,,x,,
717362,-7.889506,14.448742,-7.0305724,0.35061198,-6.5244317,3.589962,182.70001,-119.700005,-14.1,,,,x,,
717382,-6.7823434,14.071314,-7.0640683,-0.49543,-10.312566,3.8109999,187.5,-117.3,-15.3,,,,x,,
717402,-7.3392143,13.110098,-6.564021,-0.739334,-10.960436,3.8262439,185.1,-114.9,-16.5,,,,x,,
717444,-3.447696,17.99872,-7.46303,-1.196654,-14.199785,9.817136,175.5,-124.50001,-19.5,,,,x,,
717464,-4.384986,14.644933,-5.8474455,-2.522882,-11.859832,3.955818,173.1,-119.700005,-21.900002,,,,x,,
717487,-4.5494757,15.917183,-9.363928,-0.129574,-8.353712,7.9497457,168.3,-126.9,-21.900002,,,,x,,
717507,-3.0301924,17.201395,-8.522341,-2.2103798,-13.048863,6.676872,163.5,-124.50001,-21.900002,,,,x,,
717527,-3.1067545,15.139597,-7.606584,-2.027452,-12.614409,3.597584,163.5,-136.5,-23.7,,,,x,,
717547,-3.3077307,13.366103,-8.473293,-0.983238,-9.916222,4.329296,153.90001,-134.1,-26.7,,,,x,,
717567,-1.9966012,13.99176,-9.011622,-0.69360197,-11.410133,7.263766,156.3,-138.90001,-26.7,,,,x,,
717587,-1.4313561,13.454628,-8.194559,0.099086,-11.425378,7.179924,151.5,-138.90001,-26.7,,,,x,,
717607,-0.5610581,13.48633,-8.736476,0.960372,-8.330846,7.789684,141.90001,-136.5,-27.300001,,,,x,,
717631,0.22849062,13.745325,-8.756215,-0.182928,-7.667732,8.224138,137.1,-148.5,-27.300001,,,,x,,
717691,1.3870935,11.592608,-7.6460614,-1.6463519,-3.856732,8.056454,115.50001,-148.5,-28.500002,,,,x,,
717711,1.7794753,11.518439,-6.8834295,-2.40093,-2.050318,7.157058,110.700005,-160.5,-30.900002,,,,x,,
717731,1.661043,10.212693,-6.200948,-3.025934,-0.899396,5.266802,105.9,-158.1,-31.500002,,,,x,,
717755,1.8374952,8.479275,-5.020812,-2.6677,0.388722,4.176856,98.700005,-158.1,-30.900002,,,,x,,
717816,2.3578796,7.1220884,-3.8293114,-0.92988396,3.605206,4.4512477,96.3,-165.3,-33.300003,,,,x,,
717837,2.1383612,6.866083,-3.0385664,-1.8673899,4.245454,3.2622159,89.100006,-162.90001,-31.500002,,,,x,,
717857,1.8608228,5.539402,-2.6031182,-1.1432999,5.03052,1.6082419,93.9,-167.70001,-32.7,,,,x,,
717877,2.0306954,4.6828613,-1.6879594,-0.312502,5.29729,0.967994,86.700005,-160.5,-30.900002,,,,x,,
717897,2.0737617,4.40951,-0.9283179,-0.23628199,6.890288,0.518296,84.3,-165.3,-32.100002,,,,x,,
717917,2.0229194,4.137355,-1.0120579,0.23628199,8.894874,-0.594516,84.3,-167.70001,-32.100002,,,,x,,
717937,1.8955151,3.8131614,-0.91755134,1.006104,9.054935,-1.1356779,86.700005,-162.90001,-30.300001,,,,x,,
717980,1.3751307,2.974565,-0.6453963,0.40396598,8.429932,-2.454284,86.700005,-162.90001,-28.500002,,,,x,,
718000,1.3823084,2.9919112,-0.6059188,0.49543,8.132674,-1.8597679,84.3,-162.90001,-29.1,,,,x,,
718020,2.1066597,4.284498,-0.40613908,0.57164997,7.4543157,-0.99086,89.100006,-167.70001,-26.7,,,,x,,
718040,2.405731,4.995092,-0.26497734,0.434454,7.08846,-0.739334,81.9,-167.70001,-27.300001,,,,x,,
718060,2.4051328,6.0005703,0.14415246,-0.297258,6.791202,-1.1356779,84.3,-165.3,-29.1,,,,x,,
718080,2.0235176,6.3301473,0.011364716,-0.853664,6.638762,-2.40093,86.700005,-162.90001,-26.7,,,,x,,
718100,2.1275945,6.1883874,0.08852516,-0.30488,5.541194,-3.01069,91.5,-170.1,-26.7,,,,x,,
718120,1.8081862,9.088782,-0.2715569,0.525918,5.0076537,-1.3719599,89.100006,-170.1,-27.300001,,,,x,,
718140,1.3900843,9.53739,-0.6878644,0.40396598,4.748506,-1.8673899,96.3,-160.5,-26.7,,,,x,,
718162,1.6323322,8.71614,-0.5496934,1.310984,2.583858,-2.7439198,96.3,-160.5,-25.500002,,,,x,,
718182,1.3727381,10.020689,-1.0515354,0.983238,3.1859958,-0.868908,93.9,-162.90001,-25.500002,,,,x,,
718202,0.77220255,10.273704,-1.9140575,-0.137196,3.2545938,-1.250008,96.3,-162.90001,-26.1,,,,,,
718222,0.76741743,10.4040985,-1.9750681,0.144818,2.09605,-1.493912,98.700005,-158.1,-24.300001,,,,,,
718242,0.5945541,10.380173,-2.3399353,-0.15244,1.44818,-2.2561119,101.100006,-155.70001,-24.300001,,,,,,
718263,0.4886828,9.645056,-2.246625,-0.121952,-0.106708,-2.7362978,98.700005,-158.1,-24.900002,,,,,,
718283,0.30266035,8.749037,-1.9589182,-0.243904,-1.1051899,-2.2713559,103.50001,-153.3,-24.900002,,,,,,
718303,0.65496653,9.000855,-2.0761542,-0.442076,-1.432936,-1.013726,105.9,-155.70001,-25.500002,,,,,,
718323,0.64898515,8.985902,-2.3405335,-0.442076,-1.516778,-0.35061198,110.700005,-160.5,-25.500002,,,,,,
718343,0.656761,8.57079,-2.2908876,-0.510674,-1.75306,0.129574,103.50001,-155.70001,-25.500002,,,,,,
718363,1.1035738,8.868068,-2.2609804,-0.23628199,-1.471046,0.548784,103.50001,-155.70001,-26.7,,,,,,
718383,1.5097128,9.652831,-2.6240532,0.030488,-0.87653,0.7622,105.9,-160.5,-24.900002,,,,,,
718406,1.3189052,9.052894,-2.577398,-0.274392,-0.83842,0.099086,101.100006,-158.1,-24.900002,,,,,,
718469,1.03718,9.159364,-2.844768,-0.099086,-0.846042,-0.11432999,103.50001,-158.1,-26.1,,,,,,
718489,0.995908,9.086988,-2.6372123,-0.099086,-1.1432999,-0.251526,101.100006,-160.5,-23.1,,,,,,
718511,0.773997,8.94463,-2.6539605,-0.34298998,-0.983238,0.23628199,103.50001,-158.1,-26.7,,,,,,
718532,0.83740014,9.070838,-2.6168754,-0.45731997,-1.021348,0.396344,103.50001,-158.1,-26.7,,,,,,
718552,0.86371845,8.847731,-2.5498836,-0.442076,-0.998482,0.525918,101.100006,-165.3,-26.1,,,,,,
718572,1.1998748,9.390246,-2.3961608,-0.07622,-1.1204339,0.785066,105.9,-160.5,-27.900002,,,,,,
718592,1.5150962,9.557128,-2.2573917,-0.28201398,-0.95274997,0.426832,103.50001,-162.90001,-27.300001,,,,,,
718616,1.4343468,8.902162,-2.2669618,-0.548784,-0.68597996,-0.121952,101.100006,-158.1,-27.300001,,,,,,
718636,1.2830167,8.606081,-2.5576594,-0.518296,-0.625004,-0.022866,103.50001,-162.90001,-26.1,,,,,,
718656,1.6395099,8.885414,-2.5277522,-0.57164997,-1.211898,0.129574,101.100006,-160.5,-27.300001,,,,,,
718716,2.6934378,9.043921,-4.317396,-0.312502,-0.137196,0.274392,103.50001,-160.5,-27.900002,,,,,,
718736,2.8609178,8.606679,-4.262367,-1.044214,-0.3811,-0.708846,103.50001,-165.3,-27.300001,,,,,,
718756,3.2192054,8.829188,-4.514185,-0.160062,0.541162,-0.846042,105.9,-160.5,-26.7,,,,,,
718776,3.7306178,9.025977,-3.957912,0.434454,1.288118,-1.722572,108.3,-155.70001,-27.300001,,,,x,,
718836,3.0744548,7.116107,-2.819646,0.548784,6.219552,-3.7424018,117.9,-162.90001,-25.500002,,,,x,,
718858,3.4183872,6.560432,-1.5402181,-0.121952,7.759196,-4.314052,108.3,-150.90001,-24.900002,,,,x,,
718878,3.1767373,5.7463593,-0.82424104,-0.891774,8.978716,-5.18296,120.3,-153.3,-25.500002,,,,x,,
718898,3.1575968,4.688245,-0.25301448,-1.158544,9.237864,-6.0442457,120.3,-158.1,-24.300001,,,,x,,
718918,3.0092573,3.773684,0.5945541,-1.150922,9.336949,-5.8765616,125.100006,-153.3,-23.7,,,,x,,
718940,2.5582576,3.84905,0.83082056,-1.6311079,9.939088,-5.617414,122.700005,-150.90001,-23.7,,,,x,,
718960,1.9092723,3.59783,0.60472256,-1.547266,10.266833,-6.0594897,134.70001,-150.90001,-23.7,,,,x,,
718980,1.2124358,2.8633103,1.0784518,-0.907018,8.19365,-6.692116,134.70001,-146.1,-21.300001,,,,x,,
719000,0.66752756,1.8452711,1.305148,-0.548784,7.3476076,-6.699738,141.90001,-143.70001,-23.1,,,,x,,
719020,-1.108359,1.384701,1.380514,0.26677,6.5854077,-6.0442457,141.90001,-136.5,-21.900002,,,,x,,
719040,-1.418197,3.798806,1.067087,0.739334,4.756128,-3.422278,146.70001,-138.90001,-20.7,,,,x,,
719060,-1.0850314,6.178219,1.5067221,-0.632626,3.902464,-3.92533,149.1,-146.1,-21.300001,,,,x,,
719101,-4.0105486,7.1735287,0.17764847,2.080806,0.93750596,-4.8857017,153.90001,-138.90001,-20.7,,,,x,,
719137,-5.2199936,9.5511465,-0.34333408,0.70122397,-1.98172,-2.339954,158.70001,-124.50001,-18.900002,,,,x,,
719177,-4.9771476,11.592608,-1.9146557,2.55337,-3.460388,-1.02897,163.5,-131.70001,-18.900002,,,,x,,
719197,-6.1435266,10.690011,-3.3125157,2.187514,-3.330814,-1.71495,161.1,-129.3,-20.7,,,,x,,
719217,-5.529832,11.557917,-3.8879292,4.824726,-5.838452,1.44818,170.70001,-129.3,-19.5,,,,x,,
719257,-5.036962,14.366198,-4.678674,1.234764,-5.343022,2.59148,163.5,-126.9,-20.1,,,,x,,
719277,-5.4987283,13.314663,-6.254183,3.368924,-6.1052217,3.1783738,165.90001,-134.1,-18.300001,,,,x,,
719297,-4.648169,14.5911,-5.3665385,2.339954,-11.539708,5.015276,163.5,-134.1,-18.300001,,,,x,,
719317,-3.8179467,15.893257,-5.2947617,0.56402797,-10.350676,5.236314,156.3,-134.1,-20.1,,,,x,,
719337,-3.768899,16.183355,-6.2655478,-0.22865999,-9.085423,4.26832,161.1,-131.70001,-21.900002,,,,x,,
719360,-3.6600368,15.557698,-6.8038764,-0.289636,-9.695184,3.589962,156.3,-136.5,-21.900002,,,,x,,
719380,-4.3861823,14.597081,-7.471404,0.55640596,-9.138778,3.589962,158.70001,-138.90001,-21.300001,,,,x,,
719400,-3.1306803,16.98726,-7.706474,0.975616,-11.905563,7.172302,153.90001,-141.3,-22.5,,,,x,,
719420,-2.0091622,17.530972,-5.995187,-2.2561119,-12.942156,4.550334,146.70001,-138.90001,-25.500002,,,,x,,
719440,-3.1360636,14.382348,-7.4403005,-1.3795819,-9.436036,2.675322,144.3,-138.90001,-27.900002,,,,x,,
719460,-2.515191,14.818992,-7.9720497,-0.160062,-10.40403,4.100636,146.70001,-141.3,-25.500002,,,,x,,
719480,-1.8351027,15.579232,-6.1728354,-0.87653,-14.077834,4.9314337,144.3,-146.1,-26.7,,,,x,,
719501,-1.0993868,15.052268,-5.636301,-1.928366,-11.082388,4.336918,144.3,-146.1,-29.7,,,,x,,
719521,-2.0677803,13.37029,-6.8505316,-1.98172,-8.1250515,3.39179,137.1,-148.5,-29.7,,,,x,,
719543,-1.0940034,12.430009,-7.777653,0.480186,-9.504634,5.175338,139.5,-146.1,-30.900002,,,,x,,
719563,0.50363636,14.235803,-5.598618,-0.594516,-13.010754,8.239382,129.90001,-146.1,-32.7,,,,x,,
719587,0.4300648,12.419841,-5.5082984,-2.7515419,-5.495462,4.138746,117.9,-153.3,-32.100002,,,,x,,
719607,0.035290435,10.9226885,-6.7141547,-1.006104,-4.336918,3.4299,117.9,-158.1,-32.7,,,,x,,
719627,0.36965236,10.776742,-6.303231,-0.68597996,-6.02138,5.251558,105.9,-158.1,-33.9,,,,x,,
719667,1.0455539,9.595409,-5.2600694,-1.935988,-3.330814,4.336918,113.100006,-158.1,-33.300003,,,,x,,
719729,1.9104687,6.948627,-3.8831441,0.007622,1.585376,2.408552,91.5,-160.5,-35.100002,,,,x,,
719749,1.8524488,6.270333,-3.8215353,0.358234,2.347576,1.577754,91.5,-162.90001,-33.9,,,,x,,
719769,2.0606024,5.4197736,-3.4997346,1.1204339,3.536608,1.554888,91.5,-170.1,-33.9,,,,x,,
719789,2.3249817,5.4580545,-3.0020795,0.60976,5.0228977,2.621968,86.700005,-167.70001,-33.300003,,,,x,,
719809,2.087519,5.0351677,-2.6425955,-0.640248,6.3567476,2.606724,86.700005,-165.3,-32.100002,,,,x,,
719829,2.0647895,4.14214,-2.4206846,-0.777444,7.58389,2.446662,86.700005,-162.90001,-33.9,,,,x,,
719849,2.301056,4.627832,-1.995405,-0.327746,8.086942,3.1783738,81.9,-167.70001,-32.100002,,,,x,,
719869,2.4200864,5.296556,-1.6957353,-0.26677,8.277492,2.576236,74.700005,-160.5,-32.100002,,,,x,,
719909,2.4541807,4.4035287,-0.70521057,-0.26677,8.04121,0.106708,74.700005,-167.70001,-30.900002,,,,x,,
719929,2.3710387,4.0859146,-0.3200065,-0.312502,8.742434,-0.365856,74.700005,-162.90001,-30.900002,,,,x,,
719949,2.6641288,4.284498,-0.48210323,-0.015244,9.275973,-0.19055,74.700005,-165.3,-30.300001,,,,x,,
719969,2.8310106,4.688843,-0.20935003,0.41158798,9.07018,-0.274392,74.700005,-172.5,-32.100002,,,,x,,
719991,2.9715743,5.233751,-0.009570288,0.3811,9.253108,-0.625004,77.100006,-170.1,-28.500002,,,,x,,
720011,3.1049602,5.8749604,-0.35709137,0.434454,9.809514,-1.196654,74.700005,-172.5,-29.7,,,,x,,
720032,2.7442799,7.496526,-0.8056986,1.1432999,8.559505,-2.309466,72.3,-170.1,-29.7,,,,,,
720093,1.4905723,8.25856,-0.8655129,0.785066,4.108258,-3.8033779,86.700005,-170.1,-27.900002,,,,,,
720113,1.2866055,9.20243,-1.1280977,0.93750596,3.361302,-3.437522,86.700005,-165.3,-27.900002,,,,,,
720133,0.6382185,9.196448,-1.1304902,0.426832,2.987824,-3.7728899,89.100006,-167.70001,-29.1,,,,,,
720154,0.32479164,9.718627,-1.6347247,-0.358234,2.7820299,-2.89636,91.5,-162.90001,-27.900002,,,,,,
720217,0.043664437,9.818517,-2.2878969,-0.28201398,0.129574,-1.074702,96.3,-167.70001,-27.900002,,,,,,
720237,0.539525,9.808349,-2.0534248,0.091464,-1.044214,-0.365856,96.3,-170.1,-28.500002,,,,,,
720258,0.86611104,9.420154,-1.8147658,0.129574,-1.425314,-0.060976,93.9,-165.3,-27.900002,,,,,,
720278,1.1418549,9.176709,-1.7376053,0.121952,-1.318606,0.259148,98.700005,-165.3,-28.500002,,,,,,
720338,1.4516929,8.621035,-2.1222112,0.34298998,-0.891774,-0.15244,96.3,-162.90001,-26.7,,,,,,
720359,1.4313561,8.313589,-2.2621768,0.15244,-0.754578,0.221038,96.3,-162.90001,-25.500002,,,,,,
720379,1.4624596,8.52892,-2.4206846,0.030488,-0.67073596,0.81555396,101.100006,-165.3,-27.300001,,,,,,
720419,2.1096504,10.027867,-2.4990413,0.129574,-0.967994,0.56402797,89.100006,-162.90001,-26.1,,,,,,
720453,1.7681106,9.06067,-2.5636408,-0.20579399,-0.510674,-0.274392,91.5,-165.3,-28.500002,,,,,,
720473,1.4983481,9.132447,-2.5594537,-0.137196,-0.434454,-0.274392,93.9,-160.5,-26.7,,,,,,
720513,1.3123257,9.122876,-2.530743,0.22865999,-0.579272,-0.67073596,98.700005,-162.90001,-27.300001,,,,,,
720553,1.2620816,8.923097,-2.5193782,-0.297258,-0.35061198,-0.663114,98.700005,-165.3,-25.500002,,,,x,,
720577,1.2465299,8.71255,-2.484686,-0.45731997,-0.35061198,-0.449698,98.700005,-165.3,-26.7,,,,x,,
720598,1.3159145,9.08639,-2.4535825,-0.160062,-0.739334,0.129574,91.5,-160.5,-26.7,,,,x,,
720638,1.7088945,9.280189,-2.1808293,-0.16768399,-0.632626,-0.320124,93.9,-162.90001,-27.900002,,,,x,,
720660,1.6616411,9.25387,-2.505621,-0.388722,0.121952,-0.87653,96.3,-160.5,-27.900002,,,,x,,
720680,2.0432563,9.398621,-2.6497734,-0.243904,0.274392,-1.173788,98.700005,-162.90001,-27.300001,,,,x,,
720700,2.1066597,9.2377205,-2.7981129,-0.594516,0.967994,-1.5929979,101.100006,-160.5,-27.300001,,,,x,,
720720,2.0265083,8.90276,-3.3699374,-0.625004,1.966476,-1.8902559,101.100006,-160.5,-27.300001,,,,x,,
720743,2.3865905,8.774159,-3.459061,0.03811,1.570132,-1.417692,101.100006,-158.1,-26.7,,,,x,,
720763,2.9057786,8.524734,-3.2855992,0.045732,2.103672,-1.288118,105.9,-160.5,-27.300001,,,,x,,
720784,3.2335608,8.076126,-3.1683633,0.365856,2.7210538,-1.463424,101.100006,-158.1,-27.300001,,,,x,,
720804,3.6839626,8.121585,-2.7789721,1.089946,3.109776,-1.79117,98.700005,-160.5,-27.300001,,,,x,,
720824,3.9692767,7.7465496,-2.3824034,1.25763,4.15399,-3.033556,108.3,-160.5,-25.500002,,,,x,,
720844,3.924416,7.0491147,-2.037275,1.6006199,5.061008,-3.96344,108.3,-160.5,-26.1,,,,x,,
720868,3.5631378,5.5740943,-0.88285905,1.67684,5.960404,-5.3354,110.700005,-158.1,-21.900002,,,,x,,
720888,3.710879,4.2013564,-0.19977975,1.8902559,6.577786,-5.9680257,117.9,-153.3,-21.900002,,,,x,,
720908,3.9878192,3.1348674,0.55746925,2.599102,7.3323636,-5.8765616,122.700005,-148.5,-21.900002,,,,x,,
720932,3.4357333,2.2621768,1.1352754,2.408552,8.986338,-6.242418,125.100006,-153.3,-21.300001,,,,x,,
720952,3.3280675,2.8226366,0.8601296,3.2927039,10.891838,-5.8765616,125.100006,-153.3,-20.7,,,,x,,
720972,2.7490652,2.9602096,0.64838696,3.536608,11.112876,-7.5000477,122.700005,-148.5,-17.7,,,,x,,
720994,1.4104211,2.037275,0.085534446,3.993928,11.006167,-9.26073,134.70001,-143.70001,-15.900001,,,,x,,
721059,-3.5134919,5.3659406,0.6573591,2.7058098,4.9543,-7.286632,149.1,-134.1,-12.3,,,,x,,
721115,-4.1355605,9.61754,-3.0768476,2.7210538,-1.1204339,-3.917708,156.3,-114.9,-7.5000005,,,,x,,
721135,-4.150514,8.994276,-2.5127985,1.5929979,-4.30643,-3.361302,163.5,-117.3,-7.5000005,,,,x,,
721175,-4.952026,10.501596,-4.322181,1.6539739,-4.5731997,-1.6006199,168.3,-112.50001,-9.3,,,,x,,
721195,-5.0782337,11.559711,-4.6942263,1.996964,-5.4268637,-1.089946,168.3,-112.50001,-9.3,,,,x,,
721215,-5.787033,11.159554,-4.9627924,1.3490939,-8.330846,-2.355198,175.5,-110.100006,-9.3,,,,x,,
721235,-5.008251,9.423742,-3.8556297,2.2103798,-10.602201,-1.432936,180.3,-112.50001,-9.3,,,,x,,
721297,-4.8886223,15.092343,-7.7166424,0.160062,-4.9466777,4.070148,182.70001,-112.50001,-12.3,,,,x,,
721318,-6.719538,11.355744,-7.747746,1.928366,-7.896392,1.1128119,180.3,-110.100006,-12.900001,,,,x,,
721338,-5.5202613,13.329018,-9.615149,4.11588,-6.0594897,7.835416,180.3,-112.50001,-12.3,,,,x,,
721358,-3.1151285,17.393997,-9.84005,0.55640596,-10.129638,9.923843,175.5,-117.3,-15.3,,,,x,,
721378,-3.5565581,15.54753,-7.4576464,-2.530504,-12.980266,4.100636,173.1,-117.3,-15.3,,,,x,,
721398,-4.296461,12.836148,-9.173718,-0.41921,-7.057972,3.528986,177.90001,-117.3,-15.3,,,,x,,
721421,-2.9566207,14.332104,-10.9113245,0.434454,-7.5457797,7.256144,175.5,-117.3,-17.7,,,,x,,
721441,-1.1077608,17.622488,-9.802965,-2.126538,-13.551916,8.734812,161.1,-122.100006,-18.900002,,,,x,,
721482,-2.8316088,13.252456,-9.600793,-1.775926,-4.923812,3.2469718,161.1,-124.50001,-19.5,,,,x,,
721502,-1.9278148,14.156848,-9.99796,-1.44818,-8.635726,6.303394,156.3,-126.9,-21.300001,,,,x,,
721522,-1.8793652,14.393712,-8.169436,-2.949714,-10.083906,6.8979096,156.3,-134.1,-23.1,,,,x,,
721542,-1.3535975,13.498891,-7.733989,-3.117398,-8.559505,6.966508,151.5,-134.1,-22.5,,,,x,,
721562,-0.85235375,12.8194,-6.8547187,-3.8109999,-8.445176,6.8826656,149.1,-138.90001,-23.7,,,,x,,
721582,-0.31821206,11.947906,-6.510786,-3.58234,-6.6006517,7.027484,139.5,-143.70001,-26.7,,,,x,,
721602,-0.14415246,11.292341,-6.147115,-3.8109999,-5.724122,7.3780956,132.3,-146.1,-27.300001,,,,x,,
721622,0.25002375,10.885604,-5.508897,-4.0320377,-4.9924097,7.210412,125.100006,-153.3,-27.900002,,,,x,,
721642,0.3295768,9.539783,-5.393455,-3.7957559,-3.2850819,5.647902,122.700005,-153.3,-29.7,,,,x,,
721666,1.4445152,9.5182495,-5.74935,-1.6311079,-2.995446,6.623518,110.700005,-150.90001,-29.1,,,,x,,
721686,1.8979076,9.467407,-4.777966,-1.8750119,-3.0488,6.082356,103.50001,-155.70001,-30.900002,,,,x,,
721708,1.8249342,8.493032,-4.2276745,-2.149404,-1.71495,4.11588,105.9,-153.3,-30.900002,,,,x,,
721730,2.0534248,7.2692313,-4.0219135,-1.783548,0.602138,3.1859958,101.100006,-158.1,-30.900002,,,,x,,
721751,1.6897539,7.167547,-4.024306,-2.149404,3.1783738,4.070148,98.700005,-158.1,-29.7,,,,x,,
721771,1.8458692,7.241717,-4.360462,-2.13416,4.5274677,4.108258,93.9,-155.70001,-32.7,,,,x,,
721793,1.5222739,6.123788,-3.150419,-1.3872039,3.833866,2.01983,91.5,-162.90001,-30.900002,,,,x,,
721813,1.4666466,5.036962,-2.6114922,-0.625004,4.847592,1.242386,91.5,-160.5,-30.300001,,,,x,,
721833,1.7836623,4.989709,-2.1431463,0.053354,5.6097918,1.196654,86.700005,-167.70001,-30.300001,,,,x,,
721853,1.66523,4.6679077,-1.8273268,0.213416,6.8521776,0.16768399,93.9,-167.70001,-30.300001,,,,x,,
721873,1.9188427,4.4956427,-1.8476636,0.94512796,7.50767,-0.022866,89.100006,-162.90001,-30.900002,,,,x,,
721896,1.7998122,4.7833495,-1.2776334,0.69360197,7.073216,-0.11432999,84.3,-167.70001,-29.1,,,,x,,
721916,1.6102009,4.523157,-1.1358736,-0.30488,7.92688,-0.625004,79.5,-162.90001,-28.500002,,,,x,,
721937,2.0940986,4.898193,-1.1735566,-0.289636,7.865904,-0.785066,86.700005,-162.90001,-28.500002,,,,x,,
721957,2.1287909,5.3162947,-0.83141875,-0.33536798,7.157058,-1.935988,86.700005,-162.90001,-29.1,,,,x,,
721977,1.3841028,4.5883546,-0.7805766,-0.746956,7.599134,-3.018312,89.100006,-167.70001,-30.300001,,,,x,,
722000,1.7842605,4.9275017,-0.9510473,-0.358234,7.6372437,-2.2484899,86.700005,-165.3,-29.7,,,,x,,
722020,1.5599569,5.2576766,-1.0228245,-0.17530599,7.370474,-2.6905658,86.700005,-167.70001,-27.900002,,,,x,,
722040,1.0461521,5.138048,-1.2411467,0.81555396,6.6158957,-3.2698379,93.9,-172.5,-27.300001,,,,x,,
722062,1.9020946,8.348282,-0.79313755,2.042696,4.336918,-1.9131219,98.700005,-162.90001,-27.900002,,,,x,,
722082,1.3966638,8.376394,-0.6968366,0.55640596,3.971062,-3.940574,93.9,-162.90001,-26.1,,,,x,,
722103,1.9308056,7.44688,-0.20396675,0.480186,2.614346,-3.635694,105.9,-162.90001,-27.900002,,,,x,,
722123,1.4128137,8.374599,-0.26378104,-0.663114,3.399412,-1.44818,93.9,-160.5,-26.7,,,,x,,
722145,1.0347873,9.402209,-1.1849213,-1.3414719,4.085392,-0.746956,101.100006,-158.1,-24.900002,,,,x,,
722185,0.6292464,10.254563,-1.79084,-0.434454,1.6539739,-1.692084,98.700005,-158.1,-26.7,,,,x,,
722206,0.5778061,9.825695,-1.7974197,-0.960372,1.150922,-1.760682,101.100006,-153.3,-25.500002,,,,,,
722226,0.7644267,9.592419,-1.7274369,-0.28201398,0.853664,-1.3872039,105.9,-162.90001,-26.1,,,,,,
722246,0.76083785,9.581653,-1.8805615,-0.746956,0.80030996,-0.960372,110.700005,-155.70001,-25.500002,,,,,,
722267,0.7309307,9.002051,-1.91645,-0.792688,0.33536798,-0.64787,103.50001,-158.1,-24.900002,,,,,,
722287,0.8625222,8.699989,-1.8584303,-0.548784,-0.358234,-0.144818,103.50001,-162.90001,-25.500002,,,,,,
722309,1.1233125,8.790309,-2.1359684,-0.251526,-0.68597996,0.365856,103.50001,-165.3,-26.7,,,,,,
722329,1.1370698,8.929676,-2.1981754,-0.007622,-1.3567159,0.49543,110.700005,-155.70001,-26.1,,,,,,
722351,1.2824185,9.00923,-2.1024725,-0.07622,-1.8445239,0.518296,105.9,-155.70001,-24.300001,,,,,,
722371,1.3314662,9.494324,-2.5002377,-0.26677,-1.29574,0.41921,115.50001,-162.90001,-26.1,,,,,,
722391,1.0276096,9.223963,-2.8716843,-0.22865999,-1.303362,-0.221038,103.50001,-165.3,-27.300001,,,,,,
722411,1.1526215,8.987697,-2.8878343,0.22865999,-1.8978779,-0.23628199,101.100006,-160.5,-24.900002,,,,,,
722431,1.1406586,9.192261,-2.7556446,0.26677,-1.958854,0.198172,105.9,-155.70001,-26.1,,,,,,
722451,1.3165127,9.336413,-2.727532,0.160062,-1.509156,0.053354,103.50001,-162.90001,-26.7,,,,,,
722471,1.3278774,9.212,-2.6760917,0.03811,-0.998482,-0.16768399,103.50001,-162.90001,-24.300001,,,,,,
722491,1.2872037,8.953602,-2.7323172,-0.274392,-0.3811,-0.20579399,103.50001,-160.5,-26.1,,,,,,
722513,1.2285857,9.049903,-2.9440596,-0.213416,-0.07622,-0.022866,103.50001,-158.1,-26.1,,,,,,
722533,1.27225,9.0433235,-2.95363,-0.388722,-0.17530599,-0.083841994,105.9,-165.3,-26.1,,,,,,
722553,1.5497885,8.9865,-2.8040943,-0.57164997,-0.22865999,-0.442076,108.3,-160.5,-26.1,,,,,,
722573,1.5294516,8.890199,-3.0068648,-0.72409,0.41921,-1.082324,105.9,-158.1,-26.1,,,,,,
722593,1.6885576,8.766383,-3.648074,-0.3811,1.150922,-1.6311079,103.50001,-148.5,-26.7,,,,,,
722613,2.1371648,8.418862,-3.6917384,-0.137196,1.036592,-1.966476,108.3,-160.5,-24.300001,,,,,,
722677,3.5966337,8.956593,-3.3023474,1.661596,2.621968,-1.966476,108.3,-160.5,-24.900002,,,,x,,
722698,3.5691192,7.71425,-2.5415094,0.663114,5.350644,-4.603688,117.9,-153.3,-24.900002,,,,x,,
722719,3.4447055,6.59333,-1.7621292,0.80030996,5.960404,-5.282046,115.50001,-150.90001,-23.1,,,,x,,
722739,3.5505767,6.066366,-0.9576269,1.013726,6.6006517,-5.388754,117.9,-155.70001,-21.900002,,,,x,,
722779,2.8704882,4.840173,0.09510473,0.64787,8.452798,-6.8598,127.50001,-148.5,-23.1,,,,x,,
722799,2.5558648,3.7832544,0.38939106,0.69360197,8.61286,-7.942124,134.70001,-146.1,-20.7,,,,x,,
722819,1.6448932,2.3818054,0.45399052,0.87653,8.971094,-8.521396,139.5,-141.3,-19.5,,,,x,,
722839,0.93370116,1.8141676,-0.11005831,2.09605,8.95585,-7.43145,151.5,-141.3,-19.5,,,,x,,
722859,0.49586052,2.2956727,0.13518031,3.01069,6.82169,-5.4878397,149.1,-138.90001,-18.900002,,,,x,,
722879,-0.086132586,3.0529218,0.25839776,2.7210538,5.762232,-4.672286,146.70001,-134.1,-15.900001,,,,x,,
722920,-0.5664414,5.548972,0.5778061,1.9054999,2.103672,-2.644834,158.70001,-134.1,-14.700001,,,,x,,
722940,-1.3183072,6.572395,0.14056359,0.34298998,2.55337,-2.484772,153.90001,-129.3,-14.1,,,,x,,
722963,-2.2896912,8.151492,-0.28232348,0.487808,0.426832,-1.798792,156.3,-124.50001,-15.900001,,,,x,,
722983,-3.4171908,7.8458414,-0.20635933,0.22865999,-1.082324,-3.094532,161.1,-136.5,-15.900001,,,,x,,
723003,-4.3975472,8.688624,-0.51978624,0.67073596,-3.018312,-2.62959,165.90001,-124.50001,-14.1,,,,x,,
723023,-5.169152,8.765187,-0.83740014,0.625004,-3.147886,-2.6677,165.90001,-129.3,-15.3,,,,x,,
723043,-6.425252,9.710253,-2.455975,0.373478,-3.08691,-0.967994,168.3,-126.9,-15.3,,,,x,,
723063,-5.9975796,11.324042,-3.2778234,0.80793196,-5.899428,-0.03811,168.3,-124.50001,-17.7,,,,x,,
723083,-5.7583222,11.576459,-3.6056058,1.783548,-8.208894,-0.221038,177.90001,-124.50001,-17.1,,,,x,,
723103,-5.664414,12.357036,-4.082924,1.493912,-9.535122,1.509156,173.1,-124.50001,-15.900001,,,,x,,
723123,-5.204442,13.355934,-3.6391017,0.632626,-10.807996,2.599102,173.1,-122.100006,-16.5,,,,x,,
723143,-6.130965,12.796073,-3.9794452,-0.426832,-8.742434,1.3567159,175.5,-124.50001,-17.7,,,,x,,
723163,-8.315384,12.05916,-6.2063313,0.53354,-5.7165,2.012208,177.90001,-124.50001,-18.900002,,,,x,,
723184,-5.2810044,15.554708,-6.7715764,1.539644,-11.6845255,6.5396757,173.1,-124.50001,-20.1,,,,x,,
723204,-4.527942,15.360909,-4.1977673,-1.02897,-13.208925,4.778994,175.5,-122.100006,-19.5,,,,x,,
723224,-5.157787,13.345168,-5.760715,-2.042696,-8.894874,3.7195358,173.1,-129.3,-22.5,,,,x,,
723244,-4.2647595,14.360815,-7.6969037,0.060976,-8.475664,4.9314337,165.90001,-131.70001,-24.300001,,,,x,,
723264,-3.4734163,14.460106,-7.760307,1.33385,-11.836966,5.541194,165.90001,-134.1,-24.300001,,,,x,,
723284,-3.133671,15.069614,-6.8924017,0.083841994,-12.065626,5.9680257,163.5,-134.1,-23.7,,,,x,,
723307,-2.2352602,16.22702,-7.9541054,-0.99086,-8.6509695,5.0381417,156.3,-134.1,-26.7,,,,x,,
723327,-2.2914858,14.933237,-9.240711,-0.312502,-6.8979096,3.2545938,153.90001,-134.1,-26.1,,,,x,,
723347,-1.2543058,15.301095,-9.354358,-0.091464,-11.349157,5.251558,151.5,-138.90001,-28.500002,,,,x,,
723367,-0.21413518,16.273077,-6.4581494,-1.951232,-13.696733,5.37351,149.1,-146.1,-30.300001,,,,x,,
723390,0.067590155,15.268197,-6.621443,-3.2622159,-6.692116,2.004586,141.90001,-143.70001,-30.300001,,,,x,,
723470,0.4019521,13.266811,-5.9335785,-3.54423,-1.806414,2.32471,137.1,-143.70001,-32.7,,,,x,,
723576,0.958225,8.713747,-4.430445,-1.250008,1.8521459,4.9314337,120.3,-162.90001,-35.100002,,,,x,,
723596,1.0216281,8.408694,-4.015932,-2.004586,3.018312,4.923812,115.50001,-153.3,-34.5,,,,x,,
723638,1.409823,7.4444876,-2.991313,-2.080806,2.881116,3.879598,108.3,-162.90001,-35.7,,,,x,,
723658,1.7914382,6.4898515,-1.9403758,-2.164648,3.574718,1.94361,103.50001,-160.5,-34.5,,,,x,,
723678,1.6556598,5.79122,-1.7681106,-1.974098,3.978684,1.1128119,103.50001,-160.5,-33.9,,,,x,,
723702,2.0970893,5.268443,-1.1298921,-0.23628199,4.939056,1.455802,101.100006,-165.3,-35.100002,,,,x,,
723723,1.9547312,5.3659406,-0.9941136,-0.198172,5.350644,1.1128119,101.100006,-165.3,-33.9,,,,x,,
723743,1.2626798,3.9896135,-1.1358736,-0.068598,5.586926,-0.251526,96.3,-165.3,-33.9,,,,x,,
723767,1.1783416,3.4028354,-0.8224466,1.06708,5.37351,0.160062,98.700005,-167.70001,-32.7,,,,x,,
723788,1.7304276,4.3311534,-0.5443101,1.3567159,5.60217,0.830798,98.700005,-160.5,-33.300003,,,,x,,
723808,1.7411942,4.3365364,-0.23865904,0.663114,6.4329677,-0.106708,96.3,-155.70001,-32.7,,,,x,,
723828,1.5820881,3.9309957,-0.20217232,0.17530599,7.27901,-0.69360197,96.3,-165.3,-33.300003,,,,x,,
723850,1.5761068,3.8849387,-0.19080761,-0.243904,7.8887696,-0.7622,96.3,-162.90001,-33.9,,,,x,,
723910,2.3309631,6.610078,-0.3397452,0.41158798,8.216516,-0.41158798,96.3,-162.90001,-32.100002,,,,x,,
723956,1.6090046,7.940946,-0.6974347,1.478668,6.684494,-2.500016,103.50001,-162.90001,-28.500002,,,,x,,
723996,0.29309005,9.869957,-1.422384,2.149404,4.4817357,-2.050318,96.3,-167.70001,-26.7,,,,,,
724016,0.2254999,10.3071995,-1.4373375,1.166166,3.0488,-2.370442,103.50001,-165.3,-26.7,,,,,,
724060,-0.15432088,9.441089,-2.054023,-0.503052,1.8597679,-2.40093,103.50001,-155.70001,-26.1,,,,,,
724080,-0.11962859,9.315478,-1.9218334,-0.327746,1.3795819,-2.179892,108.3,-158.1,-26.1,,,,,,
724100,0.019140575,9.747936,-2.2149234,-0.137196,1.006104,-1.440558,103.50001,-165.3,-26.7,,,,,,
724124,-0.12261931,8.925489,-2.2526064,0.053354,-0.449698,-0.960372,110.700005,-160.5,-27.900002,,,,,,
724144,0.26557547,9.19585,-1.8584303,0.358234,-1.1280559,0.015244,120.3,-155.70001,-28.500002,,,,,,
724166,0.21353704,9.256263,-2.074958,-0.3811,-0.99086,0.213416,115.50001,-158.1,-26.7,,,,,,
724186,0.44860724,9.2592535,-2.125202,-0.297258,-1.211898,0.259148,110.700005,-158.1,-27.300001,,,,,,
724228,0.63941485,9.2592535,-2.0300972,0.03811,-1.25763,0.33536798,110.700005,-158.1,-26.7,,,,,,
724248,0.68666816,9.547558,-2.305243,-0.26677,-0.975616,0.160062,115.50001,-160.5,-26.1,,,,,,
724268,0.581395,9.320264,-2.3734312,-0.20579399,-1.1280559,0.144818,110.700005,-158.1,-27.300001,,,,,,
724288,0.4426258,8.997865,-2.5522761,0.106708,-1.501534,0.015244,110.700005,-158.1,-26.7,,,,,,
724368,2.0809393,9.843638,-2.4547787,0.251526,-1.288118,0.739334,110.700005,-155.70001,-26.7,,,,,,
724475,2.5821831,8.882423,-3.5134919,0.41158798,1.29574,-0.94512796,113.100006,-155.70001,-27.300001,,,,x,,
724495,3.091801,8.847731,-3.5457916,0.388722,2.042696,-1.425314,110.700005,-158.1,-26.1,,,,x,,
724540,4.2839,7.408599,-2.430255,0.426832,4.893324,-2.644834,110.700005,-150.90001,-26.1,,,,x,,
724561,4.196571,6.840961,-2.054023,0.67835796,6.59303,-3.6890478,115.50001,-158.1,-25.500002,,,,x,,
724581,3.8460593,5.844455,-1.6478839,1.303362,7.77444,-4.870458,115.50001,-155.70001,-25.500002,,,,x,,
724601,3.5027251,4.978344,-1.196286,1.806414,8.490908,-5.304912,122.700005,-150.90001,-23.1,,,,x,,
724621,2.8657029,4.337733,-0.5957504,1.707328,8.7653,-5.4421077,125.100006,-150.90001,-24.900002,,,,x,,
724644,2.5947442,4.179823,-0.2003779,1.227142,8.932983,-5.663146,127.50001,-143.70001,-21.300001,,,,x,,
724664,2.3291688,3.7389917,0.14116174,0.69360197,8.529017,-6.4634557,132.3,-143.70001,-20.1,,,,x,,
724684,1.794429,2.7353077,0.3134269,0.861286,8.346089,-7.446694,132.3,-148.5,-20.1,,,,x,,
724704,1.0527316,2.4338439,0.20635933,1.768304,7.9345016,-7.01224,139.5,-155.70001,-18.900002,,,,x,,
724724,-0.26677176,1.7854568,0.15192832,2.469528,6.623518,-6.996996,146.70001,-136.5,-15.900001,,,,x,,
724744,-0.31282878,3.0487347,0.17106889,3.3079479,4.4207597,-4.626554,146.70001,-136.5,-15.3,,,,x,,
724767,-3.033781,3.9794452,-0.44142953,2.919226,2.378064,-4.5884438,151.5,-131.70001,-14.700001,,,,x,,
724787,-2.78615,7.4235525,-0.5849838,3.8109999,-1.288118,-2.080806,153.90001,-129.3,-14.1,,,,x,,
724807,-1.5079185,9.484155,0.9235327,0.960372,-3.6738038,-2.97258,156.3,-129.3,-14.700001,,,,x,,
724827,-3.3962557,7.9463296,0.37324122,-0.785066,-0.891774,-5.388754,163.5,-129.3,-15.900001,,,,x,,
724847,-4.1469254,7.8691688,-1.7316239,1.4024479,-0.57164997,-3.879598,165.90001,-124.50001,-14.700001,,,,x,,
724867,-3.322086,9.418958,-0.49586052,3.422278,-3.841488,-0.94512796,168.3,-122.100006,-13.500001,,,,x,,
724887,-3.8879292,9.901061,-0.30684733,0.907018,-1.570132,-1.1204339,170.70001,-122.100006,-15.3,,,,x,,
724947,-5.802585,11.254658,-4.999279,3.3155699,-2.995446,-0.53354,170.70001,-114.9,-14.1,,,,x,,
724969,-6.5113845,11.785211,-5.793613,3.437522,-6.0899777,0.92226195,180.3,-110.100006,-14.700001,,,,x,,
724990,-5.154796,13.53478,-5.6123757,3.7119138,-9.817136,3.147886,168.3,-119.700005,-14.700001,,,,x,,
725010,-4.4579597,13.110696,-4.4579597,1.669218,-9.359816,1.493912,170.70001,-119.700005,-14.700001,,,,x,,
725030,-6.271529,10.940633,-6.6298165,1.539644,-4.009172,0.769822,177.90001,-114.9,-15.3,,,,x,,
725050,-5.0106435,13.129836,-8.836366,4.161612,-5.731744,5.663146,182.70001,-114.9,-15.3,,,,x,,
725073,-4.283302,14.085669,-7.717839,0.967994,-11.859832,5.480218,175.5,-114.9,-15.900001,,,,x,,
725093,-3.9166403,13.290138,-7.6125655,0.754578,-11.150986,5.5793037,173.1,-124.50001,-16.5,,,,x,,
725113,-4.306031,14.068323,-8.267532,0.602138,-10.503116,5.899428,175.5,-124.50001,-16.5,,,,x,,
725133,-3.3759189,14.309973,-8.7191305,-0.007622,-10.457384,5.647902,170.70001,-122.100006,-18.900002,,,,x,,
725153,-2.991313,13.439674,-9.186279,0.60976,-10.647934,4.87808,168.3,-126.9,-16.5,,,,x,,
725173,-2.756841,14.059351,-9.043921,0.480186,-11.844587,6.676872,165.90001,-129.3,-17.7,,,,x,,
725197,-1.3559902,15.691683,-8.676064,-2.995446,-11.250072,6.082356,156.3,-129.3,-21.900002,,,,x,,
725281,-1.2058562,14.847105,-7.2794,-2.606724,-7.057972,7.8735256,139.5,-141.3,-24.900002,,,,x,,
725311,-1.1466401,12.889981,-7.8799357,-3.864354,-4.519846,5.586926,125.100006,-148.5,-25.500002,,,,x,,
725331,-0.062206868,12.668668,-7.366131,-3.323192,-6.128088,6.0442457,125.100006,-148.5,-27.900002,,,,x,,
725374,0.76741743,11.367707,-5.7786593,-3.8033779,-4.580822,4.710396,117.9,-153.3,-29.7,,,,x,,
725394,0.9953099,9.602588,-4.9651847,-3.46801,-3.1936178,4.222588,108.3,-160.5,-30.900002,,,,x,,
725454,1.6867632,9.308301,-4.8072753,-1.059458,1.471046,4.847592,98.700005,-160.5,-32.100002,,,,x,,
725496,1.9003003,7.4169726,-4.0392594,-1.8826339,3.7805119,4.298808,84.3,-165.3,-33.9,,,,x,,
725517,2.1299872,7.312896,-3.7886376,-1.3414719,4.291186,4.30643,84.3,-170.1,-32.100002,,,,x,,
725557,2.761028,7.234539,-2.4619565,-0.785066,4.108258,2.012208,72.3,-170.1,-31.500002,,,,x,,
725577,2.10008,5.810959,-1.7316239,-1.5244,4.855214,-0.449698,74.700005,-172.5,-30.900002,,,,x,,
725619,1.6048176,3.881948,-1.0503391,-0.67073596,6.654006,-1.272874,79.5,-170.1,-31.500002,,,,x,,
725639,1.9110668,5.0226064,-0.9983006,-0.327746,6.74547,-0.55640596,72.3,-170.1,-30.300001,,,,x,,
725679,1.7770828,4.3951545,-0.7787821,-0.091464,5.327778,-1.661596,79.5,-167.70001,-32.7,,,,x,,
725719,2.0635931,4.3945565,-0.008972145,0.007622,4.5884438,-1.737816,84.3,-165.3,-29.1,,,,x,,
725762,1.7411942,4.618262,-0.5933578,0.26677,7.27901,-3.528986,84.3,-167.70001,-28.500002,,,,x,,
725792,1.4355432,5.669199,-0.799119,1.3414719,6.318638,-3.452766,86.700005,-167.70001,-27.900002,,,,x,,
725812,1.661043,6.145919,-0.7249493,1.6234859,5.434486,-3.2545938,89.100006,-160.5,-27.900002,,,,x,,
725852,1.8548414,7.83029,-1.0078709,1.310984,6.0290017,-2.2561119,89.100006,-167.70001,-27.900002,,,,x,,
725872,1.4612633,7.534807,-1.4798057,1.303362,5.693634,-2.40093,98.700005,-160.5,-26.7,,,,x,,
725893,1.2429411,8.673073,-1.6520709,1.6234859,4.984788,-0.769822,91.5,-162.90001,-26.1,,,,x,,
725913,0.9348975,9.271216,-2.021125,0.320124,4.664664,-0.64787,91.5,-158.1,-25.500002,,,,x,,
725933,1.0814425,10.064952,-2.2268863,0.373478,3.650938,-0.655492,93.9,-162.90001,-25.500002,,,,,,
725953,0.9701879,10.089476,-2.5510798,0.030488,3.079288,-1.44818,103.50001,-162.90001,-26.1,,,,,,
725973,0.8571389,9.774254,-2.6742973,0.022866,1.8978779,-1.6234859,98.700005,-162.90001,-24.900002,,,,,,
725994,0.83740014,9.945921,-2.4637508,0.28201398,0.91463995,-1.661596,98.700005,-165.3,-24.300001,,,,,,
726014,0.94147706,9.89508,-2.3710387,-0.053354,0.49543,-1.6539739,103.50001,-162.90001,-24.900002,,,,,,
726034,0.9815526,9.920201,-2.137763,-0.548784,0.198172,-1.48629,108.3,-155.70001,-24.900002,,,,,,
726054,1.1257051,9.570288,-1.8799634,-1.204276,0.243904,-1.1204339,98.700005,-160.5,-23.7,,,,,,
726074,1.1454438,9.524829,-1.8219435,-1.6158639,0.47256398,-0.716468,98.700005,-160.5,-23.7,,,,,,
726094,0.8266336,8.811244,-1.9182445,-1.722572,0.274392,-0.861286,105.9,-153.3,-26.1,,,,,,
726114,0.86910176,8.367422,-1.8273268,-0.967994,-0.434454,-0.69360197,103.50001,-160.5,-25.500002,,,,,,
726154,1.0557224,9.0188,-2.1096504,0.11432999,-1.21952,0.26677,101.100006,-162.90001,-24.900002,,,,,,
726175,1.12092,9.143811,-2.3812072,0.30488,-1.463424,0.22865999,108.3,-155.70001,-24.900002,,,,,,
726195,1.1765472,8.72571,-2.4236753,0.503052,-1.806414,0.34298998,108.3,-160.5,-24.900002,,,,,,
726215,1.2620816,8.884217,-2.5462947,0.198172,-1.699706,1.6082419,105.9,-155.70001,-26.7,,,,,,
726235,1.1944915,9.232337,-2.7574391,0.15244,-1.417692,1.6006199,103.50001,-158.1,-25.500002,,,,,,
726255,1.0407687,9.493127,-3.1462321,-0.03811,-0.998482,1.547266,98.700005,-158.1,-23.7,,,,,,
726277,0.9815526,9.381872,-3.343619,-0.49543,-0.884152,1.417692,101.100006,-165.3,-26.1,,,,,,
726297,1.6957353,9.048707,-3.1581948,-0.754578,0.060976,1.036592,96.3,-165.3,-26.1,,,,,,
726318,1.644295,8.44877,-3.535623,-0.518296,0.853664,0.289636,98.700005,-160.5,-24.900002,,,,,,
726338,1.8638135,8.46133,-3.8125632,0.23628199,1.089946,0.068598,96.3,-162.90001,-24.300001,,,,,,
726359,3.1408486,9.181495,-3.5679228,1.570132,0.243904,-1.036592,96.3,-162.90001,-25.500002,,,,x,,
726379,3.5380156,8.966762,-3.1055584,0.967994,1.4024479,-2.05794,98.700005,-158.1,-24.300001,,,,x,,
726399,3.8472557,8.597109,-2.5923517,0.251526,2.942092,-2.903982,98.700005,-165.3,-25.500002,,,,x,,
726419,3.7599268,7.7327924,-2.087519,0.053354,4.474114,-3.7576458,103.50001,-158.1,-24.300001,,,,x,,
726439,4.0087543,6.8224187,-1.6227618,0.358234,5.731744,-4.26832,110.700005,-155.70001,-25.500002,,,,x,,
726459,4.2396374,6.3540726,-0.88226086,1.074702,6.562542,-4.474114,108.3,-162.90001,-23.7,,,,x,,
726483,4.192982,5.7337985,-0.4791125,1.29574,7.766818,-5.045764,110.700005,-160.5,-23.1,,,,x,,
726504,3.8681905,4.4190803,0.067590155,1.501534,7.9802337,-5.9070497,120.3,-153.3,-21.900002,,,,x,,
726524,3.5960355,3.6038115,0.63462967,1.3872039,8.772922,-6.0747337,117.9,-155.70001,-22.5,,,,x,,
726544,2.3602722,3.5152862,0.40853164,1.1356779,9.954331,-6.8826656,125.100006,-148.5,-18.300001,,,,x,,
726564,1.9726756,3.4082186,0.41391495,1.432936,9.420792,-7.309498,129.90001,-148.5,-18.900002,,,,x,,
726584,1.535433,3.3035436,0.732127,1.417692,7.8582816,-7.896392,127.50001,-150.90001,-20.1,,,,x,,
726604,-0.16688189,2.1844182,0.8768776,2.2256238,6.036624,-7.339986,132.3,-143.70001,-17.1,,,,x,,
726624,-0.33615634,3.0200238,0.7058087,3.102154,5.0228977,-5.480218,139.5,-136.5,-16.5,,,,x,,
726644,-1.4839927,4.6714964,0.2685662,2.614346,1.996964,-4.108258,139.5,-138.90001,-16.5,,,,x,,
726664,-1.1909027,6.0167203,-0.033496007,2.7896519,-0.3811,-3.064044,149.1,-129.3,-14.1,,,,x,,
726684,-1.2919888,7.0012636,0.047253296,2.637212,-1.5244,-2.62959,151.5,-138.90001,-14.700001,,,,x,,
726704,-2.6144829,7.726213,-1.276437,1.6539739,-1.6006199,-3.940574,156.3,-131.70001,-15.900001,,,,x,,
726724,-4.0344744,7.479778,-1.62336,2.2713559,-3.7195358,-4.283564,156.3,-129.3,-14.700001,,,,x,,
726745,-4.3054333,8.110221,-1.7065018,2.949714,-4.64942,-3.528986,163.5,-129.3,-14.1,,,,x,,
726765,-4.372425,9.402807,-1.4624596,1.3795819,-5.655524,-2.987824,168.3,-129.3,-14.1,,,,x,,
726785,-5.877951,8.784925,-2.5122006,0.297258,-4.260698,-4.138746,165.90001,-117.3,-14.700001,,,,x,,
726808,-6.3199787,8.958387,-4.4166875,4.443626,-6.692116,-0.17530599,177.90001,-122.100006,-15.900001,,,,x,,
726828,-4.9556146,12.226641,-4.214515,2.873494,-10.06104,2.530504,175.5,-117.3,-15.3,,,,x,,
726848,-5.2319565,10.118187,-3.987221,2.2713559,-10.182992,0.251526,173.1,-117.3,-17.1,,,,x,,
726868,-5.756528,11.352754,-5.437718,3.3003259,-8.6814575,3.1859958,175.5,-119.700005,-16.5,,,,x,,
726888,-5.80737,13.905628,-7.920609,2.957336,-5.160094,5.18296,175.5,-117.3,-16.5,,,,x,,
726929,-4.6918335,12.348063,-6.279305,0.137196,-14.321737,2.614346,175.5,-122.100006,-18.300001,,,,x,,
726949,-4.1403456,13.106509,-7.222576,-0.67835796,-10.678422,4.413138,165.90001,-122.100006,-18.300001,,,,x,,
726972,-3.673794,13.958862,-8.045621,0.213416,-9.840002,4.939056,168.3,-119.700005,-21.300001,,,,x,,
726992,-3.0301924,13.974414,-6.955805,-0.91463995,-10.182992,4.03966,175.5,-134.1,-21.300001,,,,x,,
727013,-2.96978,13.857179,-7.509685,-1.097568,-8.925362,4.0625257,168.3,-126.9,-20.1,,,,x,,
727034,-3.6905422,13.2763815,-8.225662,0.060976,-7.728708,4.138746,168.3,-129.3,-22.5,,,,x,,
727054,-2.3949645,15.40278,-7.4187675,-1.44818,-12.08087,4.9161897,161.1,-131.70001,-24.300001,,,,x,,
727074,-1.7938308,15.421322,-6.9049625,-2.080806,-11.265316,4.0167937,156.3,-131.70001,-23.7,,,,x,,
727094,-2.380609,13.843421,-7.16994,-2.865872,-8.3842,2.2561119,163.5,-129.3,-27.300001,,,,x,,
727116,-2.3285706,13.038321,-9.417761,0.007622,-6.699738,3.6890478,158.70001,-134.1,-27.900002,,,,x,,
727178,-1.3326626,13.187857,-7.580864,-1.745438,-5.14485,4.108258,151.5,-143.70001,-29.7,,,,x,,
727199,-0.29309005,13.21238,-7.318877,-0.548784,-6.128088,4.550334,146.70001,-141.3,-29.7,,,,x,,
727219,-0.6914533,14.111389,-6.25837,-0.907018,-5.282046,4.5579557,141.90001,-141.3,-30.900002,,,,x,,
727239,-1.4170007,13.71482,-6.9049625,-1.8292799,-2.835384,3.132642,137.1,-150.90001,-32.100002,,,,x,,
727299,-0.76981,11.306098,-5.661423,-1.935988,-1.8369019,4.237832,129.90001,-155.70001,-33.300003,,,,x,,
727321,-0.28471604,11.071627,-5.1093373,-1.417692,-1.509156,4.184478,120.3,-153.3,-32.100002,,,,x,,
727361,0.2715569,9.446472,-4.3162,-1.29574,2.660078,2.416174,117.9,-160.5,-34.5,,,,x,,
727401,0.73571587,7.6855392,-3.7665062,-1.173788,4.634176,2.51526,117.9,-160.5,-32.7,,,,x,,
727421,0.83560574,7.450469,-3.4883697,-2.195136,6.44059,3.50612,110.700005,-155.70001,-33.9,,,,x,,
727464,0.71597713,5.7038913,-2.6324272,-1.8750119,7.4848037,3.16313,103.50001,-158.1,-32.7,,,,x,,
727484,1.1394624,5.4622416,-1.8596265,-1.493912,7.225656,3.902464,103.50001,-160.5,-33.9,,,,x,,
727504,1.0144504,4.9795403,-1.1783416,-1.806414,7.5457797,3.460388,98.700005,-162.90001,-32.7,,,,x,,
727525,0.9283179,4.3945565,-0.9773656,-1.3872039,7.9954777,3.2393498,91.5,-165.3,-32.7,,,,x,,
727545,0.94147706,4.2282724,-0.8224466,-0.861286,7.461938,2.881116,91.5,-162.90001,-31.500002,,,,x,,
727565,1.2202116,3.6199613,-0.66034985,0.16768399,6.6158957,2.2789779,86.700005,-167.70001,-32.100002,,,,x,,
727585,2.0277047,4.7767696,-0.51978624,1.585376,4.83997,3.155508,84.3,-170.1,-32.100002,,,,x,,
727607,2.162885,5.6285253,0.5078234,1.044214,4.34454,2.378064,84.3,-167.70001,-30.300001,,,,x,,
727627,2.2292788,4.3102183,0.26079035,0.251526,7.187546,-0.80030996,86.700005,-162.90001,-29.1,,,,x,,
727647,2.4242735,4.513587,0.11005831,0.34298998,7.309498,-0.884152,74.700005,-162.90001,-32.100002,,,,x,,
727668,2.535528,5.0291862,0.099291734,0.56402797,7.5457797,-1.6387299,81.9,-167.70001,-30.300001,,,,x,,
727689,2.4781063,5.364146,0.047253296,0.594516,7.766818,-2.17227,89.100006,-165.3,-28.500002,,,,x,,
727709,2.3213928,5.5914407,-0.07177716,0.34298998,8.056454,-2.942092,81.9,-162.90001,-29.1,,,,x,,
727772,1.7202592,8.789711,-1.518685,1.3567159,6.051868,-2.530504,91.5,-167.70001,-26.7,,,,,,
727792,1.1562104,8.707766,-1.6616411,1.318606,5.0686297,-2.919226,91.5,-167.70001,-24.900002,,,,,,
727812,0.7034161,9.29574,-1.9415721,0.81555396,4.222588,-2.09605,96.3,-167.70001,-26.7,,,,,,
727832,0.49047723,9.919603,-2.2328677,0.091464,3.2698379,-1.745438,96.3,-158.1,-24.900002,,,,,,
727856,0.4288685,9.956688,-2.4577694,-0.69360197,2.080806,-2.2789779,96.3,-160.5,-26.7,,,,,,
727898,0.5873764,9.686327,-2.4212828,-0.289636,-0.83842,-1.8826339,98.700005,-162.90001,-24.900002,,,,,,
727918,0.8864479,9.500305,-2.1024725,-0.30488,-1.5244,-1.5929979,98.700005,-165.3,-24.900002,,,,,,
727938,1.0826387,9.478771,-1.8004104,-0.41921,-1.570132,-1.3795819,96.3,-165.3,-25.500002,,,,,,
727958,1.146042,9.858592,-1.9260204,-0.81555396,-1.196654,-1.06708,108.3,-162.90001,-26.7,,,,,,
727978,0.60472256,8.622829,-2.0773506,-1.29574,-0.846042,-1.21952,103.50001,-162.90001,-25.500002,,,,,,
727998,0.4312611,8.853114,-2.2490175,-0.41921,-1.250008,-0.28201398,108.3,-162.90001,-25.500002,,,,,,
728018,0.48329952,8.798085,-2.3064394,-0.15244,-1.539644,0.198172,108.3,-158.1,-26.1,,,,,,
728081,1.0425632,8.930275,-2.443414,-0.320124,-1.75306,0.830798,103.50001,-162.90001,-27.300001,,,,x,,
728101,1.3057461,9.168336,-2.6587455,-0.30488,-1.532022,0.716468,105.9,-160.5,-27.300001,,,,x,,
728121,1.5928547,9.038538,-2.4577694,-0.121952,-1.509156,0.891774,101.100006,-162.90001,-27.900002,,,,x,,
728141,1.6921464,9.237122,-2.6491752,-0.53354,-1.074702,0.792688,101.100006,-160.5,-28.500002,,,,x,,
728162,1.552181,8.74485,-2.8627121,-0.525918,-0.746956,0.20579399,108.3,-162.90001,-27.300001,,,,x,,
728222,1.7585404,8.7933,-3.5302398,0.45731997,-1.8750119,-0.792688,105.9,-155.70001,-27.300001,,,,x,,
728376,3.5625396,5.90726,-1.53962,0.106708,5.838452,-5.8918056,117.9,-153.3,-23.7,,,,x,,
728396,3.7539454,5.585459,-0.74229544,0.830798,6.638762,-5.625036,120.3,-150.90001,-23.1,,,,x,,
728436,3.3753207,3.3370397,0.11484345,-0.11432999,9.001582,-8.742434,125.100006,-150.90001,-21.900002,,,,x,,
728459,2.7682056,2.6180718,0.43245736,0.708846,9.79427,-8.490908,139.5,-148.5,-21.900002,,,,x,,
728479,1.4923667,1.7734939,0.16030231,1.3490939,9.626586,-8.6814575,141.90001,-143.70001,-20.1,,,,x,,
728501,0.57421726,1.9822458,0.014355431,2.957336,7.820172,-7.5457797,151.5,-138.90001,-18.900002,,,,x,,
728563,-2.2436342,4.1068497,-0.42408335,3.894842,1.3490939,-4.329296,161.1,-126.9,-15.3,,,,x,,
728585,-2.8800583,4.898193,-0.21413518,2.157026,0.16768399,-3.940574,165.90001,-122.100006,-16.5,,,,x,,
728606,-3.916042,9.010426,-0.85953146,0.548784,-0.213416,-1.6082419,165.90001,-122.100006,-15.900001,,,,x,,
728626,-4.84436,8.150894,-2.0348823,0.198172,0.289636,-4.5427117,168.3,-122.100006,-15.3,,,,x,,
728648,-4.7953124,8.0713415,-1.7675124,1.585376,-2.347576,-2.32471,170.70001,-122.100006,-14.700001,,,,x,,
728669,-5.024401,9.820312,-1.945161,0.0,-2.7972739,-0.3811,173.1,-126.9,-14.1,,,,x,,
728690,-5.400035,10.571579,-2.7837574,-0.754578,-1.75306,-0.28201398,177.90001,-122.100006,-15.3,,,,x,,
728710,-5.7583222,11.79837,-4.5082035,0.480186,-1.814036,0.57164997,175.5,-117.3,-14.700001,,,,x,,
728731,-5.4700174,11.166731,-4.4160895,1.074702,-5.541194,0.47256398,173.1,-124.50001,-15.900001,,,,x,,
728753,-4.6140747,12.876224,-3.869985,1.272874,-6.78358,2.903982,177.90001,-119.700005,-16.5,,,,x,,
728773,-5.3330426,14.329113,-4.69303,-1.1280559,-5.510706,2.01983,173.1,-117.3,-17.7,,,,x,,
728793,-5.1524034,12.883402,-5.270238,-0.099086,-7.187546,0.739334,175.5,-122.100006,-16.5,,,,x,,
728813,-4.459754,13.002432,-4.572803,0.320124,-9.009204,1.8750119,173.1,-122.100006,-16.5,,,,x,,
728833,-4.9771476,12.622611,-5.4789896,-0.769822,-7.385718,2.126538,175.5,-124.50001,-20.1,,,,x,,
728853,-3.8508444,14.920676,-6.1656575,0.388722,-9.230242,3.92533,175.5,-124.50001,-20.7,,,,x,,
728873,-3.790432,13.643043,-4.956811,-0.967994,-10.373542,2.179892,175.5,-122.100006,-20.7,,,,x,,
728896,-4.6003175,12.112993,-6.7506413,-0.3811,-8.666214,3.2545938,177.90001,-129.3,-21.300001,,,,x,,
728917,-3.719253,13.923573,-7.0341616,0.632626,-11.1586075,5.198204,175.5,-129.3,-23.1,,,,x,,
728937,-3.23057,14.482836,-6.342708,-1.4024479,-10.914703,4.30643,170.70001,-129.3,-26.1,,,,x,,
728959,-3.1737466,13.938525,-7.083807,-1.48629,-10.350676,4.237832,168.3,-129.3,-25.500002,,,,x,,
728979,-2.9482467,13.528199,-6.4976273,-1.768304,-11.69977,4.5427117,165.90001,-131.70001,-26.1,,,,x,,
729000,-2.313617,14.225635,-6.2021446,-2.2561119,-10.907082,5.0228977,163.5,-141.3,-26.7,,,,x,,
729020,-2.47691,14.153259,-6.865485,-2.09605,-9.230242,4.4969797,156.3,-134.1,-28.500002,,,,x,,
729040,-2.3566833,13.8165045,-7.1848936,-1.234764,-8.993959,5.0228977,161.1,-143.70001,-30.900002,,,,x,,
729060,-0.8278299,15.258029,-5.617161,-0.92988396,-9.497012,5.746988,149.1,-143.70001,-32.100002,,,,x,,
729081,-0.8212503,15.0474825,-5.475401,-1.303362,-7.66011,4.778994,149.1,-146.1,-31.500002,,,,x,,
729101,-1.4361413,13.598183,-6.6483593,-1.074702,-4.024416,2.911604,149.1,-146.1,-32.7,,,,x,,
729143,-0.20576118,13.7620735,-5.489756,-0.69360197,-3.376546,5.617414,134.70001,-146.1,-33.9,,,,x,,
729163,-0.42408335,13.150173,-5.192479,-1.1356779,-2.042696,5.121984,132.3,-150.90001,-32.7,,,,x,,
729183,-0.7500713,11.220564,-5.487962,-1.272874,0.45731997,4.108258,127.50001,-160.5,-33.300003,,,,x,,
729203,-0.2506219,10.686422,-5.71406,-0.358234,0.632626,4.634176,122.700005,-158.1,-33.300003,,,,x,,
729225,0.18841504,10.637973,-5.480784,-0.221038,0.487808,4.87808,117.9,-155.70001,-32.7,,,,x,,
729267,0.93729,9.388453,-4.301844,-0.594516,1.48629,3.025934,110.700005,-155.70001,-33.9,,,,x,,
729287,0.83740014,8.32615,-4.287489,-1.089946,3.2774599,2.507638,105.9,-162.90001,-32.100002,,,,x,,
729331,0.7434917,7.0939755,-3.8980978,-0.891774,4.550334,2.949714,105.9,-162.90001,-34.5,,,,x,,
729351,1.2375578,7.187884,-3.1282878,-0.518296,4.64942,3.2927039,91.5,-160.5,-34.5,,,,x,,
729371,1.0975924,6.514973,-2.5277522,-1.1128119,5.403998,2.2256238,93.9,-162.90001,-32.7,,,,x,,
729391,0.97796375,5.1990585,-2.1748478,-0.91463995,6.143332,1.25763,93.9,-165.3,-32.100002,,,,x,,
729411,1.2572966,4.7743773,-1.7722976,-0.182928,6.394858,1.509156,96.3,-165.3,-32.100002,,,,x,,
729451,1.9302074,5.7666965,-1.5115073,0.365856,7.27901,1.3719599,84.3,-167.70001,-32.100002,,,,x,,
729471,1.6873614,5.086608,-1.3147182,0.518296,7.073216,-0.091464,89.100006,-167.70001,-32.100002,,,,x,,
729491,1.945759,5.1254873,-1.1376679,0.663114,7.195168,0.007622,86.700005,-165.3,-30.900002,,,,x,,
729515,2.5098078,5.614768,-1.158603,0.602138,7.759196,-0.663114,86.700005,-170.1,-30.300001,,,,x,,
729535,2.4194884,5.5047097,-0.90558845,0.53354,7.8125496,-1.3567159,86.700005,-165.3,-29.1,,,,x,,
729555,1.8039992,4.916137,-0.9420752,-0.289636,8.19365,-2.027452,86.700005,-172.5,-27.300001,,,,x,,
729575,1.6084064,4.7546387,-1.2399504,-0.259148,8.086942,-1.8750119,91.5,-165.3,-28.500002,,,,x,,
729596,1.8542432,5.864792,-1.263278,-0.144818,6.9283977,-1.3414719,86.700005,-165.3,-27.900002,,,,x,,
729616,1.5599569,5.2080307,-1.150827,-0.022866,6.234796,-2.7439198,93.9,-165.3,-27.300001,,,,x,,
729637,1.4421227,6.0550013,-1.1897063,0.92988396,4.893324,-2.2027578,93.9,-160.5,-27.900002,,,,x,,
729657,1.6257526,7.629912,-0.9354956,1.089946,3.986306,-2.317088,91.5,-165.3,-27.300001,,,,x,,
729697,1.0652926,7.3081107,-0.8834572,0.121952,3.2164838,-3.7195358,101.100006,-162.90001,-26.1,,,,x,,
729720,0.2464349,9.106129,-1.4546837,-0.160062,3.490876,-1.196654,101.100006,-160.5,-27.900002,,,,x,,
729740,-0.023327576,9.3130865,-1.6789873,-0.198172,2.47715,-0.80030996,105.9,-160.5,-27.900002,,,,x,,
729760,0.1363766,9.451257,-1.5641439,-0.045732,1.417692,-0.320124,98.700005,-155.70001,-26.1,,,,,,
729823,0.5957504,9.926183,-1.940974,-0.632626,0.243904,-0.830798,96.3,-162.90001,-26.7,,,,,,
729871,0.90798104,9.28258,-2.0492377,0.07622,-0.35061198,-0.182928,103.50001,-162.90001,-26.1,,,,,,
729891,1.1328828,9.418359,-2.0396676,-0.137196,-0.373478,0.11432999,101.100006,-160.5,-25.500002,,,,,,
729933,1.2273893,8.257363,-2.0133493,-0.45731997,-0.594516,0.07622,101.100006,-165.3,-26.7,,,,,,
729954,1.2596891,8.5791645,-2.05821,-0.07622,-0.655492,0.625004,101.100006,-158.1,-28.500002,,,,,,
729974,1.4002527,9.242505,-2.1903996,-0.045732,-0.594516,0.388722,101.100006,-158.1,-27.300001,,,,,,
729994,1.4271691,9.235328,-2.1150336,0.015244,-0.739334,-0.015244,101.100006,-160.5,-24.900002,,,,,,
730016,1.3882898,9.085194,-2.3070374,-0.274392,-0.53354,-0.137196,105.9,-160.5,-28.500002,,,,,,
730037,1.3619715,9.008632,-2.3626647,0.07622,-0.503052,0.03811,103.50001,-158.1,-26.7,,,,,,
730057,1.547994,9.060072,-2.455975,0.34298998,-0.64787,0.40396598,101.100006,-158.1,-27.300001,,,,,,
730079,1.5055258,9.246094,-2.4954524,0.07622,-0.716468,0.106708,101.100006,-160.5,-26.1,,,,,,
730099,1.79084,9.068445,-2.5169857,-0.221038,-0.57164997,-0.388722,101.100006,-162.90001,-26.7,,,,,,
730119,1.7734939,8.692214,-2.8997972,-0.47256398,0.045732,-0.72409,101.100006,-153.3,-26.7,,,,,,
730139,2.050434,8.856703,-3.5547638,-0.243904,0.388722,-0.45731997,105.9,-160.5,-27.300001,,,,,,
730159,1.9924142,8.77715,-3.438724,-0.67835796,-0.548784,-0.11432999,101.100006,-158.1,-27.900002,,,,,,
730179,2.4523861,8.811842,-3.506314,-0.41158798,-0.213416,-0.396344,96.3,-160.5,-27.300001,,,,,,
730199,2.8812547,7.9212074,-3.3196936,0.17530599,0.510674,-0.655492,110.700005,-162.90001,-27.900002,,,,,,
730222,3.602017,7.35656,-3.5499785,1.48629,0.830798,0.312502,105.9,-153.3,-27.300001,,,,,,
730242,4.561438,8.071939,-3.0888102,2.827762,0.731712,1.699706,105.9,-160.5,-24.900002,,,,,,
730304,5.30493,7.070648,-1.6927446,2.111294,5.746988,-2.7362978,108.3,-158.1,-23.7,,,,x,,
730324,5.0172234,6.178219,-1.2148284,1.006104,7.157058,-4.5122237,101.100006,-155.70001,-23.1,,,,x,,
730345,4.543494,4.848547,-0.7692119,0.11432999,8.635726,-5.884184,110.700005,-153.3,-26.7,,,,x,,
730365,3.8723776,3.9561176,-0.46714967,0.015244,9.763782,-6.714982,105.9,-162.90001,-22.5,,,,x,,
730386,3.1564004,2.7556446,0.18063918,0.365856,10.007686,-7.9192576,115.50001,-155.70001,-22.5,,,,x,,
730406,2.6001275,1.9906198,0.5072252,1.06708,10.93757,-8.216516,120.3,-150.90001,-20.1,,,,x,,
730426,1.7842605,1.9194407,0.2548089,2.195136,12.00465,-7.629622,127.50001,-148.5,-18.900002,,,,x,,
730446,0.68128484,2.8920212,-0.30565107,3.7881339,11.821722,-7.256144,129.90001,-148.5,-17.7,,,,x,,
730466,-1.6347247,3.5996244,-1.4983481,5.327778,8.42231,-8.399444,134.70001,-134.1,-15.900001,,,,x,,
730486,-2.615081,3.8789573,-1.3691492,6.1052217,4.939056,-7.286632,141.90001,-131.70001,-14.700001,,,,x,,
730526,-3.5170808,6.760212,-1.7124833,2.675322,1.1128119,-6.234796,144.3,-129.3,-11.700001,,,,x,,
730548,-3.8921163,5.935373,-1.8482618,3.003068,-0.503052,-4.83997,153.90001,-124.50001,-12.3,,,,x,,
730569,-3.1647744,7.8960853,-1.4032434,1.722572,-1.9054999,-2.088428,153.90001,-119.700005,-11.700001,,,,x,,
730589,-1.422384,8.405105,0.55328226,0.617382,-2.568614,-1.585376,161.1,-124.50001,-10.5,,,,x,,
730611,-4.655347,8.26813,-1.472628,0.46494198,3.605206,-0.95274997,156.3,-119.700005,-9.900001,,,,x,,
730632,-6.09089,9.030763,-4.450782,2.7362978,4.207344,0.297258,151.5,-119.700005,-12.3,,,,x,,
730652,-6.5664134,11.46999,-2.8184497,2.012208,-5.724122,1.3490939,153.90001,-117.3,-9.3,,,,x,,
730672,-5.4783916,15.409957,-6.4061112,-0.015244,-1.440558,3.62045,149.1,-124.50001,-9.3,,,,x,,
730692,-5.870175,14.43319,-6.229061,-0.19055,-8.6509695,-0.365856,156.3,-124.50001,-11.700001,,,,x,,
730712,-5.9246063,11.712237,-5.4616437,0.15244,-10.243968,-1.3414719,153.90001,-114.9,-11.700001,,,,x,,
730732,-5.630918,10.646347,-5.1607776,-0.846042,-10.160126,1.8978779,161.1,-114.9,-12.900001,,,,x,,
730755,-4.155299,14.108996,-7.3434014,-0.594516,-8.80341,3.407034,161.1,-122.100006,-12.900001,,,,x,,
730775,-3.8095727,12.921084,-7.828495,0.320124,-10.70891,2.7134318,161.1,-124.50001,-13.500001,,,,x,,
730795,-3.635513,12.316362,-7.1274714,-0.129574,-12.050382,3.521364,161.1,-122.100006,-15.3,,,,x,,
730815,-3.677383,12.213481,-7.181903,-0.327746,-11.448244,3.445144,163.5,-124.50001,-16.5,,,,x,,
730835,-2.513995,12.829569,-7.500713,-0.41158798,-11.440621,4.4207597,163.5,-122.100006,-17.7,,,,x,,
730855,-3.033781,11.859381,-7.0850034,-1.326228,-11.570196,4.093014,161.1,-122.100006,-17.1,,,,x,,
730875,-1.8763745,11.803754,-6.3899612,-1.211898,-12.713495,5.708878,156.3,-131.70001,-20.7,,,,x,,
730895,-1.7268387,12.213481,-5.2409286,-2.423796,-11.92843,5.990892,156.3,-134.1,-20.1,,,,x,,
730919,-1.5862751,11.894671,-6.48387,-2.926848,-9.618964,5.5488157,153.90001,-138.90001,-23.1,,,,x,,
730939,-0.6304427,11.7218075,-5.7828465,-1.3719599,-12.660142,6.844556,151.5,-138.90001,-24.900002,,,,x,,
730960,-0.055029154,12.654313,-5.0758414,-1.692084,-13.178437,7.5305357,149.1,-146.1,-24.300001,,,,x,,
731023,0.7458843,13.17709,-7.0419374,0.67073596,-10.434518,5.800342,134.70001,-148.5,-27.900002,,,,x,,
731139,0.59754485,13.055068,-6.6034985,-1.6158639,-2.195136,1.8750119,117.9,-148.5,-29.7,,,,x,,
731181,-0.027514577,12.027459,-6.5287304,-2.2256238,-0.160062,2.957336,113.100006,-153.3,-29.1,,,,x,,
731201,-0.3953725,10.813827,-6.0514126,-2.926848,0.34298998,3.079288,117.9,-150.90001,-30.900002,,,,x,,
731221,-0.05084215,10.955586,-5.3515854,-2.7667859,-0.11432999,3.475632,101.100006,-160.5,-32.100002,,,,x,,
731261,0.5933578,9.673766,-5.0519156,-1.516778,1.798792,2.888738,103.50001,-160.5,-31.500002,,,,x,,
731281,0.76981,8.780141,-4.6840577,-1.013726,2.2256238,2.454284,101.100006,-162.90001,-33.300003,,,,x,,
731301,0.78655803,8.691017,-4.389173,-0.93750596,2.2180018,2.583858,101.100006,-167.70001,-32.100002,,,,x,,
731321,0.790745,7.985807,-3.9561176,-1.669218,3.2622159,2.2865999,98.700005,-155.70001,-33.300003,,,,x,,
731341,0.6615461,7.745353,-3.8873312,-1.745438,4.72564,2.530504,91.5,-165.3,-33.300003,,,,x,,
731404,0.44621465,5.7828465,-2.5839777,-1.8750119,5.625036,1.059458,86.700005,-167.70001,-32.100002,,,,x,,
731434,0.70461243,6.3283525,-2.6677177,-1.509156,5.975648,1.8445239,86.700005,-167.70001,-30.900002,,,,x,,
731454,0.593956,5.489756,-2.0653877,-0.93750596,4.9771657,1.1204339,89.100006,-170.1,-34.5,,,,x,,
731497,1.6293415,5.6500583,-0.54789895,-1.25763,6.181442,0.28201398,84.3,-172.5,-32.100002,,,,x,,
731572,1.6849687,5.138048,-0.6364241,0.792688,7.797306,-1.806414,81.9,-167.70001,-30.300001,,,,x,,
731616,2.0019846,5.8121552,-0.33256748,0.99086,7.4848037,-1.737816,84.3,-170.1,-30.900002,,,,x,,
731656,1.7082963,6.0944786,-0.62984455,0.548784,7.85066,-1.71495,89.100006,-165.3,-29.1,,,,x,,
731676,1.4026452,6.6274242,-0.8457742,0.487808,7.35523,-1.67684,86.700005,-167.70001,-27.900002,,,,x,,
731696,1.4971519,7.1107235,-0.8397927,0.541162,6.3719916,-1.3643379,84.3,-167.70001,-27.300001,,,,x,,
731736,1.0910128,8.646755,-0.9313086,0.259148,5.0076537,-2.393308,89.100006,-162.90001,-26.7,,,,x,,
731757,1.5049278,8.933266,-0.70521057,0.53354,3.833866,-2.347576,91.5,-162.90001,-26.7,,,,x,,
731777,1.2124358,9.072633,-0.5203844,-0.022866,3.376546,-2.080806,86.700005,-165.3,-26.7,,,,,,
731797,0.72315484,9.855003,-1.0084691,-0.297258,3.330814,-1.326228,96.3,-160.5,-26.7,,,,,,
731817,0.17346147,9.402209,-1.4863852,-0.53354,2.2865999,-1.806414,93.9,-158.1,-26.1,,,,,,
731837,0.32239905,9.015809,-1.3021573,0.03811,0.72409,-1.33385,93.9,-162.90001,-26.7,,,,,,
731857,0.50064564,9.605578,-1.3858973,0.3811,0.030488,-0.92226195,98.700005,-165.3,-26.1,,,,,,
731919,1.7358109,9.890294,-1.2776334,-0.22865999,-1.3414719,-0.899396,103.50001,-158.1,-27.900002,,,,,,
731939,1.911665,9.881322,-1.439132,-0.396344,-1.097568,-0.983238,98.700005,-158.1,-26.1,,,,,,
731959,1.7274369,8.943434,-1.6622393,-0.548784,-1.196654,-1.3567159,98.700005,-162.90001,-26.1,,,,,,
731979,2.058808,8.463723,-1.8835522,0.121952,-1.71495,-0.93750596,101.100006,-160.5,-26.1,,,,,,
731999,2.5145931,8.67068,-1.799214,0.510674,-2.32471,-0.121952,101.100006,-155.70001,-28.500002,,,,,,
732019,2.7406912,9.092371,-2.0827339,0.15244,-2.2408679,0.053354,105.9,-155.70001,-27.900002,,,,,,
732043,2.5558648,8.306412,-2.275934,0.083841994,-2.141782,-0.632626,98.700005,-158.1,-26.7,,,,,,
732063,2.7508595,8.19755,-2.3578796,0.67073596,-2.522882,-0.221038,108.3,-155.70001,-27.300001,,,,,,
732103,2.8423755,9.328039,-2.8549364,1.303362,-2.179892,0.655492,108.3,-155.70001,-26.1,,,,,,
732123,2.4499936,9.878331,-3.0493329,1.173788,-2.522882,0.28201398,101.100006,-162.90001,-24.900002,,,,,,
732143,2.0815375,9.593017,-2.7131765,0.899396,-3.109776,0.083841994,98.700005,-160.5,-26.7,,,,,,
732163,1.5731161,9.746141,-2.2226992,0.708846,-2.89636,-0.16768399,105.9,-160.5,-27.900002,,,,,,
732183,1.1897063,10.215684,-2.2789247,0.525918,-2.492394,-0.312502,101.100006,-165.3,-25.500002,,,,,,
732204,-0.09510473,10.355649,-2.6138847,0.64787,-1.989342,-1.71495,108.3,-162.90001,-26.1,,,,,,
732224,-0.90379405,8.491836,-2.6587455,0.899396,-2.088428,-2.987824,110.700005,-162.90001,-24.300001,,,,,,
732244,-1.0359837,8.044425,-2.2861025,1.3719599,-2.431418,-1.6158639,115.50001,-160.5,-24.900002,,,,,,
732264,-0.83560574,9.42135,-2.5785944,0.983238,-1.41007,-0.41158798,113.100006,-153.3,-26.7,,,,,,
732284,-0.78715616,9.476379,-2.705999,0.861286,-1.1128119,-0.792688,110.700005,-160.5,-25.500002,,,,,,
732306,-0.93609375,7.870365,-2.7406912,0.30488,-0.754578,-1.707328,115.50001,-155.70001,-23.7,,,,,,
732326,-0.7476787,7.4283376,-2.6784842,0.373478,-0.708846,-1.3872039,117.9,-155.70001,-25.500002,,,,,,
732346,-0.2966789,7.7746625,-2.3620665,0.213416,-0.17530599,-0.259148,115.50001,-158.1,-24.900002,,,,,,
732366,0.3355582,9.547558,-2.72813,-0.426832,1.318606,-0.213416,115.50001,-150.90001,-26.7,,,,,,
732387,0.1698726,8.738271,-2.6748953,-1.150922,1.94361,-2.164648,115.50001,-153.3,-24.900002,,,,,,
732407,0.6304427,10.176207,-2.8776658,-0.754578,2.317088,-1.8902559,115.50001,-155.70001,-27.300001,,,,,,
732427,0.41212052,8.944032,-3.0044723,-1.539644,2.484772,-3.46801,122.700005,-158.1,-24.900002,,,,,,
732449,0.58797455,9.631896,-3.588858,-0.853664,2.36282,-2.050318,120.3,-153.3,-26.1,,,,,,
732469,0.75126755,10.064952,-3.7186549,-0.358234,1.6082419,-2.2103798,117.9,-155.70001,-24.900002,,,,,,
732493,0.98095447,10.161851,-3.7892358,0.0,0.731712,-1.928366,117.9,-150.90001,-25.500002,,,,,,
732513,1.1424531,10.032054,-3.920229,0.434454,0.17530599,-2.080806,127.50001,-150.90001,-24.300001,,,,,,
732534,1.1251069,9.342395,-3.8472557,0.754578,-0.297258,-2.2484899,122.700005,-150.90001,-24.300001,,,,,,
732554,1.037778,8.7950945,-4.040456,0.960372,-0.28201398,-1.8597679,127.50001,-148.5,-25.500002,,,,,,
732574,0.9576269,8.709559,-4.0679703,1.48629,-0.708846,-0.87653,127.50001,-150.90001,-23.7,,,,,,
732594,0.93609375,8.844142,-3.8203392,1.5244,-0.92988396,-0.67073596,134.70001,-153.3,-23.7,,,,,,
732614,0.57122654,8.054593,-3.6074002,0.69360197,-0.746956,-1.02897,139.5,-146.1,-23.7,,,,,,
732634,0.1531246,7.3314385,-3.376517,0.586894,-0.868908,-1.044214,134.70001,-146.1,-23.7,,,,,,
732654,0.12082488,7.828495,-3.0977824,0.95274997,-1.189032,-0.68597996,137.1,-146.1,-23.7,,,,,,
732677,1.1663787,10.216282,-3.1575968,1.196654,-1.250008,0.625004,137.1,-148.5,-23.7,,,,,,
732697,1.878767,12.647733,-2.8657029,1.1356779,-2.17227,0.3811,134.70001,-146.1,-23.7,,,,,,
732718,0.37623194,8.417666,-2.4685361,-0.289636,-1.33385,-2.919226,134.70001,-155.70001,-23.1,,,,,,
732738,0.17166704,8.718532,-2.430255,0.20579399,-1.242386,-0.099086,139.5,-150.90001,-22.5,,,,,,
732761,-0.32778236,9.6480465,-2.9009933,-0.182928,-0.33536798,-0.53354,141.90001,-148.5,-22.5,,,,,,
732781,-0.84517604,9.246693,-3.3519933,0.03811,-0.655492,-1.570132,141.90001,-148.5,-20.7,,,,,,
732823,-0.690257,8.929078,-2.9440596,0.55640596,-1.425314,-1.8521459,139.5,-146.1,-21.300001,,,,,,
732843,-0.715379,8.4601345,-2.8728807,-0.099086,-1.1051899,-1.798792,144.3,-153.3,-23.1,,,,,,
732863,-0.6723127,8.119791,-2.705999,-0.129574,-0.69360197,-1.318606,139.5,-143.70001,-20.1,,,,,,
732883,-0.6764997,8.314187,-2.7586353,-0.358234,-0.068598,-0.92988396,139.5,-146.1,-21.900002,,,,,,
732906,-0.53234726,8.6329975,-2.8094776,-0.487808,0.297258,-0.49543,153.90001,-143.70001,-24.900002,,,,,,
732927,-0.36068022,8.662307,-2.6760917,-0.548784,0.388722,-0.442076,146.70001,-141.3,-21.900002,,,,,,
732947,-0.28710863,9.149195,-2.8250291,-0.548784,0.586894,-0.33536798,144.3,-141.3,-23.7,,,,,,
732967,-0.5490953,9.148597,-3.0523236,-0.510674,0.57164997,-0.785066,144.3,-143.70001,-24.300001,,,,,,
732987,-0.66334057,8.903358,-3.1181192,-0.297258,0.26677,-0.830798,149.1,-146.1,-24.300001,,,,,,
733007,-0.6430037,9.029567,-3.0935955,-0.022866,0.17530599,-0.792688,141.90001,-141.3,-23.1,,,,,,
733049,-0.74528617,9.014014,-3.313114,0.274392,0.11432999,-1.280496,151.5,-141.3,-23.7,,,,,,
733070,-0.6878644,9.121082,-3.4572663,0.53354,0.121952,-1.074702,158.70001,-141.3,-21.900002,,,,,,
733090,-0.82424104,8.836965,-3.5093048,0.426832,0.091464,-1.013726,156.3,-146.1,-22.5,,,,,,
733110,-0.76622117,8.981715,-3.6391017,0.434454,0.03811,-0.625004,149.1,-146.1,-23.1,,,,,,
733131,-0.669322,8.947022,-3.6546535,0.35061198,-0.083841994,-0.541162,153.90001,-141.3,-23.1,,,,,,
733151,-0.58259124,8.888405,-3.656448,0.198172,-0.083841994,-0.358234,156.3,-136.5,-22.5,,,,,,
733172,-0.47073853,8.699391,-3.5679228,0.015244,-0.099086,-0.221038,158.70001,-141.3,-21.300001,,,,,,
733192,-0.4133168,8.820814,-3.5039215,-0.068598,0.030488,-0.015244,153.90001,-141.3,-20.7,,,,,,
733255,-0.3648672,8.713149,-3.3938632,-0.70122397,0.23628199,-0.007622,156.3,-143.70001,-23.1,,,,,,
733354,-0.43066293,8.9141245,-3.109147,-0.754578,0.40396598,0.121952,153.90001,-141.3,-22.5,,,,,,
733374,-0.45040166,8.873451,-3.1073527,-0.602138,0.28201398,0.289636,151.5,-141.3,-23.7,,,,,,
733417,-0.04426258,8.905152,-3.0050702,-0.510674,0.160062,0.60976,146.70001,-143.70001,-22.5,,,,,,
733457,0.13518031,8.802272,-3.2449257,-1.044214,0.80030996,0.449698,146.70001,-143.70001,-23.7,,,,,,
733655,3.5828764,6.6836495,-0.98035634,-0.53354,7.01224,-2.2180018,134.70001,-146.1,-20.1,,,,x,,
733675,3.1695597,5.480784,-0.13757288,-0.35061198,8.437553,-3.025934,137.1,-143.70001,-20.7,,,,x,,
733718,2.3405335,3.9890156,0.15372275,0.19055,9.580853,-5.152472,137.1,-146.1,-18.300001,,,,x,,
733760,1.2590909,2.8788621,0.7506694,1.265252,7.187546,-6.219552,141.90001,-146.1,-17.7,,,,x,,
733834,-0.86910176,2.7711964,0.47671995,2.393308,4.984788,-4.4207597,149.1,-126.9,-11.700001,,,,x,,
733854,-1.828523,3.1235025,-0.50184196,2.385686,4.298808,-3.079288,161.1,-126.9,-12.3,,,,x,,
733894,-3.4530795,7.208221,-1.7160722,1.8978779,1.8292799,-0.93750596,163.5,-124.50001,-12.3,,,,x,,
733915,-3.5774932,8.247793,-2.4799008,1.730194,1.98172,-0.82317597,156.3,-122.100006,-8.700001,,,,x,,
733935,-3.8861349,9.3998165,-3.4704256,2.13416,0.160062,-1.455802,156.3,-126.9,-11.1,,,,x,,
733956,-3.9435565,9.811937,-3.116923,2.6905658,-2.7896519,-1.8369019,161.1,-119.700005,-10.5,,,,x,,
733976,-4.4866705,10.669076,-3.6911402,1.493912,-2.7439198,-1.455802,161.1,-117.3,-9.900001,,,,x,,
733996,-5.0351677,10.631991,-4.799499,0.95274997,-3.109776,-1.547266,158.70001,-119.700005,-11.1,,,,x,,
734018,-5.286986,12.546049,-5.5669165,1.501534,-6.547298,0.7622,165.90001,-119.700005,-10.5,,,,x,,
734038,-5.473606,14.447545,-6.138143,-0.442076,-7.5457797,1.021348,165.90001,-117.3,-11.1,,,,x,,
734060,-6.182406,11.214582,-6.29366,-1.6006199,-8.109808,-2.2865999,177.90001,-124.50001,-13.500001,,,,x,,
734080,-5.3575664,11.203816,-7.2022395,-0.358234,-9.748538,1.021348,173.1,-119.700005,-14.1,,,,x,,
734100,-4.559046,12.794876,-7.4450855,0.259148,-10.632689,4.199722,175.5,-114.9,-15.3,,,,x,,
734144,-4.0105486,13.148977,-6.053207,-2.89636,-10.579336,1.9054999,177.90001,-122.100006,-17.1,,,,x,,
734164,-4.780359,11.760687,-8.270523,-0.72409,-8.071698,2.827762,177.90001,-126.9,-17.1,,,,x,,
734185,-2.7879443,14.167614,-8.747243,0.655492,-14.047346,6.8979096,170.70001,-129.3,-18.900002,,,,x,,
734205,-2.4685361,15.234103,-5.2762194,-3.399412,-16.737911,6.4024796,173.1,-124.50001,-21.300001,,,,x,,
734265,-2.141352,14.345263,-8.41946,-0.55640596,-12.340017,6.242418,168.3,-131.70001,-25.500002,,,,x,,
734285,-1.552181,15.353732,-7.13764,-0.87653,-14.352225,6.814068,168.3,-131.70001,-24.900002,,,,x,,
734305,-1.8010085,14.72628,-4.99569,-2.583858,-12.492457,4.260698,163.5,-131.70001,-27.900002,,,,x,,
734325,-2.5821831,13.28954,-7.584453,-2.004586,-5.838452,2.995446,158.70001,-138.90001,-30.300001,,,,x,,
734345,-2.5983331,13.273391,-9.503296,1.67684,-7.339986,4.5427117,158.70001,-146.1,-29.1,,,,x,,
734411,-1.8524488,13.1788845,-7.392449,-2.59148,-4.740884,3.2012398,144.3,-146.1,-35.100002,,,,x,,
734451,-0.32658607,12.633976,-4.5674195,-2.32471,-4.23021,4.679908,132.3,-153.3,-34.5,,,,x,,
734499,-0.1961909,11.223555,-5.8007903,0.137196,0.92226195,3.2622159,122.700005,-148.5,-35.7,,,,x,,
734520,0.37204492,10.893978,-5.853427,0.198172,1.318606,4.314052,117.9,-155.70001,-34.5,,,,x,,
734560,0.40972793,9.148597,-5.07943,-2.339954,3.879598,3.445144,115.50001,-158.1,-34.5,,,,x,,
734582,0.67470527,7.64008,-4.858117,-1.3872039,4.0472817,2.385686,108.3,-162.90001,-33.9,,,,x,,
734602,0.8948219,6.5616283,-4.337135,-0.487808,4.0167937,1.8902559,110.700005,-162.90001,-35.7,,,,x,,
734622,2.091706,7.5485644,-3.6133816,0.358234,4.855214,2.2256238,105.9,-158.1,-33.300003,,,,x,,
734642,1.9391795,7.300335,-3.1958778,-0.03811,5.14485,1.250008,110.700005,-160.5,-33.9,,,,x,,
734663,1.8871411,6.140536,-2.6593437,-0.617382,6.28815,-0.259148,101.100006,-165.3,-33.9,,,,x,,
734683,1.5820881,4.95382,-2.121015,-1.250008,7.1418138,-0.777444,108.3,-155.70001,-33.300003,,,,x,,
734706,1.4528893,4.3736215,-1.7884475,-1.189032,9.245486,0.40396598,108.3,-158.1,-33.300003,,,,x,,
734726,1.4678428,5.1326647,-1.7651199,-0.69360197,9.436036,0.708846,105.9,-165.3,-34.5,,,,x,,
734748,1.1023775,4.874267,-1.4887779,-0.365856,8.87963,-0.106708,103.50001,-155.70001,-30.900002,,,,x,,
734768,1.1669769,4.3945565,-1.1932952,-0.121952,8.132674,-0.625004,105.9,-165.3,-30.900002,,,,x,,
734788,1.2848111,4.007558,-0.9977025,0.30488,7.69822,-0.754578,105.9,-167.70001,-30.300001,,,,x,,
734809,1.5198812,4.2013564,-0.9049903,1.02897,7.705842,-0.259148,101.100006,-158.1,-31.500002,,,,x,,
734829,2.0558174,5.504112,-0.6124984,1.326228,7.568646,0.221038,103.50001,-162.90001,-30.900002,,,,x,,
734849,1.5737141,6.041842,-0.8170633,0.525918,8.445176,-0.93750596,103.50001,-158.1,-29.1,,,,x,,
734869,0.6687238,4.4788947,-1.5743123,0.327746,8.483286,-2.652456,103.50001,-160.5,-29.1,,,,x,,
734889,0.6597517,4.6517577,-1.3374476,1.699706,6.311016,-1.509156,103.50001,-160.5,-28.500002,,,,x,,
734913,1.0413669,7.350579,-0.9235327,0.746956,5.266802,-0.731712,101.100006,-165.3,-27.300001,,,,x,,
