time,sensor_accX[g],sensor_accY[g],sensor_accZ[g],sensor_gyroX[°/s],sensor_gyroY[°/s],sensor_gyroZ[°/s],sensor_magX[µT],sensor_magY[µT],sensor_magZ[µT]
1428140,-3.2467200756073,7.311699867248535,-5.315696716308594,-0.38109999895095825,0.228659987449646,-0.228659987449646,261.9000244140625,-57.30000305175781,-5.100000381469727
1428160,-3.2443275451660156,7.225566864013672,-5.2833967208862305,-0.2972579896450043,0.228659987449646,-0.20579399168491364,261.9000244140625,-50.10000228881836,-4.5
1428180,-3.2389442920684814,7.3314385414123535,-5.273228645324707,-0.3887220025062561,0.3048799932003021,-0.1448179930448532,261.9000244140625,-54.900001525878906,-2.700000047683716
1428200,-3.24372935295105,7.2476983070373535,-5.2684431076049805,-0.39634400606155396,0.342989981174469,-0.228659987449646,264.3000183105469,-52.500003814697266,-3.9000000953674316
1428224,-3.25569224357605,7.238128185272217,-5.272032260894775,-0.36585599184036255,0.35061198472976685,-0.16768398880958557,261.9000244140625,-50.10000228881836,-3.3000001907348633
1428247,-3.2885899543762207,7.18967866897583,-5.297752380371094,-0.2972579896450043,0.28201398253440857,-0.04573199898004532,257.1000061035156,-57.30000305175781,-5.100000381469727
1428267,-3.287393808364868,7.366130828857422,-5.389866352081299,-0.22103799879550934,0.19054999947547913,-0.038109999150037766,269.1000061035156,-57.30000305175781,-4.5
1428287,-3.230570077896118,7.321269989013672,-5.398838520050049,-0.25152599811553955,0.060975998640060425,-0.19054999947547913,269.1000061035156,-54.900001525878906,-3.3000001907348633
1428309,-3.1964759826660156,7.2746148109436035,-5.324668884277344,-0.2972579896450043,0.038109999150037766,-0.19054999947547913,257.1000061035156,-59.70000076293945,-2.1000001430511475
1428329,-3.168961524963379,7.294951915740967,-5.288181781768799,-0.39634400606155396,0.09146399796009064,-0.1448179930448532,252.3000030517578,-50.10000228881836,-2.700000047683716
1428349,-3.1641762256622314,7.303923606872559,-5.2504987716674805,-0.4725639820098877,0.16768398880958557,-0.1600620001554489,259.5,-54.900001525878906,-5.100000381469727
1428369,-3.1821205615997314,7.323662757873535,-5.273228645324707,-0.4420759975910187,0.228659987449646,-0.20579399168491364,261.9000244140625,-52.500003814697266,-3.9000000953674316
1428393,-3.174344778060913,7.226165294647217,-5.212217807769775,-0.39634400606155396,0.2743920087814331,-0.228659987449646,257.1000061035156,-54.900001525878906,-2.700000047683716
1428413,-3.180326223373413,7.29315710067749,-5.2714338302612305,-0.3887220025062561,0.3048799932003021,-0.17530599236488342,257.1000061035156,-54.900001525878906,-1.5
1428433,-3.1522135734558105,7.297344207763672,-5.20683479309082,-0.35061198472976685,0.28201398253440857,-0.07621999830007553,261.9000244140625,-59.70000076293945,-3.9000000953674316
1428453,-3.2538976669311523,7.183098793029785,-5.206236362457275,-0.4344539940357208,0.33536797761917114,-0.16768398880958557,259.5,-57.30000305175781,-3.9000000953674316
1428473,-3.1767373085021973,7.312895774841309,-5.316893100738525,-0.2439039945602417,0.2439039945602417,-0.07621999830007553,266.70001220703125,-57.30000305175781,-3.9000000953674316
1428514,-3.216214656829834,7.200445175170898,-5.335435390472412,-0.3734779953956604,0.1600620001554489,-0.28201398253440857,259.5,-54.900001525878906,-4.5
1428538,-3.189298391342163,7.425944805145264,-5.2594709396362305,-0.1600620001554489,0.10670799762010574,-0.3582339882850647,264.3000183105469,-52.500003814697266,-4.5
1428558,-3.2772252559661865,7.239922523498535,-5.2624616622924805,-0.44969800114631653,0.26677000522613525,-0.44969800114631653,257.1000061035156,-57.30000305175781,-4.5
1428578,-3.3310582637786865,7.2058281898498535,-5.339622497558594,-0.41158798336982727,0.28201398253440857,-0.38109999895095825,257.1000061035156,-57.30000305175781,-3.9000000953674316
1428598,-3.2987585067749023,7.2297539710998535,-5.309116840362549,-0.3734779953956604,0.23628199100494385,-0.3125019967556,259.5,-57.30000305175781,-4.5
1428622,-3.3304600715637207,7.285979747772217,-5.339024066925049,-0.39634400606155396,0.26677000522613525,-0.23628199100494385,269.1000061035156,-47.70000076293945,-3.9000000953674316
1428642,-3.3107213973999023,7.198052406311035,-5.3013410568237305,-0.3048799932003021,0.2972579896450043,-0.228659987449646,259.5,-54.900001525878906,-4.5
1428664,-3.26765513420105,7.168145179748535,-5.292967319488525,-0.3201240003108978,0.38109999895095825,0.05335399881005287,264.3000183105469,-52.500003814697266,-4.5
1428684,-3.26167368888855,7.2805962562561035,-5.3785014152526855,-0.3201240003108978,0.510673999786377,0.1600620001554489,259.5,-57.30000305175781,-4.5
1428706,-3.258084774017334,7.339812278747559,-5.4203715324401855,-0.3201240003108978,0.4420759975910187,0.08384199440479279,259.5,-54.900001525878906,-2.700000047683716
1428726,-3.19587779045105,7.338615894317627,-5.4054179191589355,-0.342989981174469,0.36585599184036255,0.08384199440479279,259.5,-52.500003814697266,-3.3000001907348633
1428746,-3.1372599601745605,7.294353485107422,-5.330650329589844,-0.4192099869251251,0.2743920087814331,0.05335399881005287,257.1000061035156,-57.30000305175781,-3.9000000953674316
1428766,-3.067875385284424,7.230352401733398,-5.2594709396362305,-0.5030519962310791,0.3201240003108978,0.06859800219535828,264.3000183105469,-59.70000076293945,-1.5
1428827,-3.090604782104492,7.229156017303467,-5.304930210113525,-0.4420759975910187,0.46494197845458984,0.060975998640060425,257.1000061035156,-57.30000305175781,-3.9000000953674316
1428847,-3.043351411819458,7.248894691467285,-5.196067810058594,-0.3734779953956604,0.4192099869251251,0,259.5,-59.70000076293945,-2.700000047683716
1428869,-3.042753219604492,7.3673272132873535,-5.228367805480957,-0.3887220025062561,0.38109999895095825,0.02286599949002266,257.1000061035156,-54.900001525878906,-3.9000000953674316
1428889,-3.1109416484832764,7.162163734436035,-5.279210090637207,-0.46494197845458984,0.4878079891204834,-0.20579399168491364,254.70001220703125,-50.10000228881836,-2.700000047683716
1428909,-3.052921772003174,7.323662757873535,-5.3013410568237305,-0.26677000522613525,0.2896359860897064,-0.08384199440479279,257.1000061035156,-57.30000305175781,-3.3000001907348633
1428929,-3.0475385189056396,7.31708288192749,-5.248106479644775,-0.36585599184036255,0.15243999660015106,-0.20579399168491364,259.5,-59.70000076293945,-3.3000001907348633
1428953,-3.1306803226470947,7.427141189575195,-5.386277675628662,-0.228659987449646,0.228659987449646,-0.1448179930448532,261.9000244140625,-54.900001525878906,-1.5
1428973,-3.1157267093658447,7.284783363342285,-5.281602382659912,-0.2134159952402115,0.17530599236488342,-0.3734779953956604,254.70001220703125,-57.30000305175781,-3.9000000953674316
1428993,-3.1432414054870605,7.330840110778809,-5.347398281097412,-0.38109999895095825,0.2972579896450043,-0.2591480016708374,254.70001220703125,-52.500003814697266,-3.9000000953674316
1429014,-3.1940834522247314,7.2536797523498535,-5.330051898956299,-0.41158798336982727,0.33536797761917114,-0.3201240003108978,264.3000183105469,-54.900001525878906,-2.700000047683716
1429034,-3.1498208045959473,7.31708288192749,-5.361753463745117,-0.38109999895095825,0.3201240003108978,-0.26677000522613525,261.9000244140625,-57.30000305175781,-3.3000001907348633
1429054,-3.156998634338379,7.129266262054443,-5.2744245529174805,-0.4420759975910187,0.3277460038661957,-0.25152599811553955,254.70001220703125,-57.30000305175781,-2.700000047683716
1429074,-3.1187174320220947,7.098162651062012,-5.245115756988525,-0.3734779953956604,0.4420759975910187,-0.09908600151538849,261.9000244140625,-59.70000076293945,-2.1000001430511475
1429094,-3.1581947803497314,7.2596611976623535,-5.333641052246094,-0.426831990480423,0.5411620140075684,0.05335399881005287,257.1000061035156,-57.30000305175781,-1.5
1429114,-3.21980357170105,7.260857582092285,-5.4502787590026855,-0.3887220025062561,0.5487840175628662,-0.08384199440479279,254.70001220703125,-54.900001525878906,-2.1000001430511475
1429134,-3.2921788692474365,7.17173433303833,-5.532822608947754,-0.3277460038661957,0.457319974899292,-0.06859800219535828,257.1000061035156,-57.30000305175781,-3.3000001907348633
1429154,-3.380704164505005,7.136443614959717,-5.659628868103027,-0.38109999895095825,0.426831990480423,0.038109999150037766,252.3000030517578,-57.30000305175781,-2.1000001430511475
1429174,-3.422574043273926,7.009637355804443,-5.7870330810546875,-0.3048799932003021,0.2134159952402115,0.17530599236488342,261.9000244140625,-57.30000305175781,-2.700000047683716
1429234,-3.48777174949646,6.790119171142578,-6.42465353012085,0.3277460038661957,-0.39634400606155396,0.9603719711303711,257.1000061035156,-59.70000076293945,-3.3000001907348633
1429254,-3.284403085708618,6.700995922088623,-6.659125804901123,0.48018598556518555,-0.7469559907913208,1.3490939140319824,254.70001220703125,-57.30000305175781,-2.700000047683716
1429274,-2.9937055110931396,6.788324356079102,-6.572394847869873,0.3201240003108978,-1.4100699424743652,2.027451992034912,254.70001220703125,-57.30000305175781,-1.5
1429294,-2.798711061477661,7.011431694030762,-6.2876787185668945,-0.16768398880958557,-1.5929979085922241,2.545747995376587,252.3000030517578,-57.30000305175781,-5.100000381469727
1429314,-2.6898488998413086,7.200445175170898,-5.945540904998779,-1.0061039924621582,-1.2347639799118042,2.698187828063965,252.3000030517578,-62.10000228881836,-3.9000000953674316
1429334,-2.8160572052001953,7.449870586395264,-5.855221748352051,-1.806414008140564,-0.5411620140075684,2.599102020263672,247.50001525878906,-59.70000076293945,-4.5
1429355,-3.0780436992645264,7.675968647003174,-5.780453681945801,-2.4771499633789062,0.015243999660015106,2.134160041809082,254.70001220703125,-64.5,-4.5
1429375,-3.583474636077881,7.5730881690979,-5.922213554382324,-2.9192259311676025,0.853663980960846,1.3262280225753784,247.50001525878906,-69.30000305175781,-3.9000000953674316
1429395,-3.9184346199035645,7.698698043823242,-6.190181732177734,-2.942091941833496,1.0975680351257324,0.6250039935112,249.90000915527344,-69.30000305175781,-3.3000001907348633
1429415,-4.207337856292725,7.8171305656433105,-6.391157627105713,-2.7591638565063477,1.1128119230270386,0.09146399796009064,245.10000610351562,-71.70000457763672,-5.700000286102295
1429435,-4.3951544761657715,7.7064738273620605,-6.4037184715271,-2.9268479347229004,0.8612859845161438,-0.19054999947547913,249.90000915527344,-74.10000610351562,-5.700000286102295
1429477,-4.558447360992432,7.657426357269287,-6.367830276489258,-3.9253299236297607,0.6936019659042358,1.5015339851379395,245.10000610351562,-83.70000457763672,-3.9000000953674316
1429497,-4.45078182220459,7.5013108253479,-6.230257034301758,-4.519845962524414,0.46494197845458984,2.4237959384918213,245.10000610351562,-81.30000305175781,-6.900000095367432
1429517,-4.21870231628418,7.456450462341309,-5.944344997406006,-4.916189670562744,0.05335399881005287,3.4222779273986816,249.90000915527344,-78.9000015258789,-7.500000476837158
1429537,-3.925612211227417,7.306914329528809,-5.633310317993164,-5.2134480476379395,-0.16768398880958557,4.146368026733398,240.3000030517578,-90.9000015258789,-8.700000762939453
1429557,-3.582876443862915,7.293755531311035,-5.3910627365112305,-5.312533855438232,-0.35061198472976685,4.67990779876709,237.90000915527344,-90.9000015258789,-8.100000381469727
1429577,-3.2245888710021973,7.27820348739624,-5.169749736785889,-5.14484977722168,-0.6173819899559021,4.977165699005127,223.50001525878906,-90.9000015258789,-11.100000381469727
1429597,-2.9524338245391846,7.168145179748535,-4.999279022216797,-4.923811912536621,-0.8612859845161438,4.992409706115723,233.10000610351562,-98.10000610351562,-11.100000381469727
1429617,-2.676689863204956,7.15977144241333,-4.9765496253967285,-4.458869934082031,-1.2118979692459106,5.236313819885254,225.90000915527344,-102.9000015258789,-8.700000762939453
1429639,-2.352496385574341,7.085601806640625,-4.827013969421387,-4.016793727874756,-1.707327961921692,5.39637565612793,216.3000030517578,-105.30000305175781,-13.500000953674316
1429659,-2.119220495223999,7.198052406311035,-4.850341320037842,-3.704291820526123,-2.1494040489196777,5.4573516845703125,209.10000610351562,-110.10000610351562,-13.500000953674316
1429679,-1.8057936429977417,7.226165294647217,-4.695422172546387,-3.414655923843384,-2.7210538387298584,5.594547748565674,218.70001220703125,-117.30000305175781,-14.700000762939453
1429699,-1.5779011249542236,7.506694316864014,-4.573400974273682,-3.353679895401001,-3.109776020050049,5.800342082977295,204.3000030517578,-122.10000610351562,-15.90000057220459
1429723,-1.3290736675262451,7.5910325050354,-4.428650379180908,-3.3917899131774902,-3.5213639736175537,5.792719841003418,204.3000030517578,-126.9000015258789,-15.300000190734863
1429743,-0.9564306139945984,8.059378623962402,-4.343714237213135,-3.6814258098602295,-3.871975898742676,5.823207855224609,197.10000610351562,-129.3000030517578,-17.700000762939453
1429763,-0.8051004409790039,8.161062240600586,-4.487268447875977,-3.612828016281128,-3.9786839485168457,5.739366054534912,201.90000915527344,-126.9000015258789,-18.900001525878906
1429785,-0.3989613652229309,8.251381874084473,-4.130177021026611,-3.3308138847351074,-5.007653713226318,5.708878040313721,192.3000030517578,-134.10000610351562,-19.5
1429805,-0.27155691385269165,8.070743560791016,-3.7246363162994385,-3.4908759593963623,-5.030519962310791,5.533571720123291,185.10000610351562,-131.70001220703125,-20.100000381469727
1429825,0.022131290286779404,8.725111961364746,-3.532632350921631,-3.0640439987182617,-5.4649739265441895,5.39637565612793,182.70001220703125,-141.3000030517578,-21.900001525878906
1429846,0.16508746147155762,8.807655334472656,-3.440518379211426,-3.0259339809417725,-5.449729919433594,4.969543933868408,185.10000610351562,-138.90000915527344,-18.900001525878906
1429866,0.25540703535079956,8.63180160522461,-3.398050308227539,-2.690565824508667,-5.182960033416748,3.917707920074463,180.3000030517578,-143.70001220703125,-25.500001907348633
1429886,0.17764846980571747,8.430227279663086,-3.261075496673584,-1.7378159761428833,-5.365887641906738,3.094532012939453,175.5,-148.5,-24.30000114440918
1429906,0.2577996253967285,8.795692443847656,-3.365152359008789,-1.4558019638061523,-5.335400104522705,2.942091941833496,175.5,-148.5,-25.500001907348633
1429927,0.2548089027404785,9.168335914611816,-3.096586227416992,-1.6768399477005005,-5.777475833892822,2.6753220558166504,175.5,-148.5,-26.100000381469727
1429947,0.15671345591545105,8.905152320861816,-2.7496633529663086,-2.736297845840454,-5.419241905212402,2.088428020477295,170.70001220703125,-148.5,-27.30000114440918
1429967,0.09151587635278702,8.66649341583252,-2.611492156982422,-3.4680099487304688,-4.992409706115723,2.0960500240325928,168.3000030517578,-146.10000610351562,-27.900001525878906
1429987,0.4109242260456085,9.10672664642334,-2.402142286300659,-3.5823400020599365,-4.778994083404541,2.4161739349365234,165.90000915527344,-158.10000610351562,-27.900001525878906
1430007,0.5628525614738464,9.188074111938477,-1.9487497806549072,-3.612828016281128,-4.649419784545898,2.1722700595855713,165.90000915527344,-153.3000030517578,-30.900001525878906
1430027,0.30624920129776,9.125866889953613,-1.8668042421340942,-3.5442299842834473,-4.085391998291016,1.8673899173736572,168.3000030517578,-160.5,-31.500001907348633
1430049,0.02751457691192627,8.959583282470703,-1.6891556978225708,-3.0640439987182617,-4.131124019622803,1.0442140102386475,163.5,-155.70001220703125,-31.500001907348633
1430069,-0.050842151045799255,8.96436882019043,-1.4899741411209106,-2.294221878051758,-4.10825777053833,1.0518360137939453,168.3000030517578,-153.3000030517578,-32.10000228881836
1430089,-0.3887929320335388,10.07870864868164,-1.4654502868652344,-2.2180018424987793,-4.016793727874756,1.4558019638061523,153.90000915527344,-153.3000030517578,-34.5
1430109,-1.035983681678772,10.815621376037598,-1.417598843574524,-2.4237959384918213,-3.8338658809661865,0.46494197845458984,158.70001220703125,-158.10000610351562,-34.5
1430129,-1.6036213636398315,10.128952980041504,-0.7357158660888672,-2.332331895828247,-4.489357948303223,-0.8841519951820374,161.10000610351562,-155.70001220703125,-35.10000228881836
1430149,-1.5121054649353027,9.81492805480957,-0.0352904349565506,-3.0869100093841553,-4.413137912750244,-0.739333987236023,165.90000915527344,-150.90000915527344,-34.5
1430209,-0.9845433235168457,11.043513298034668,0.4958605170249939,-2.431417942047119,-3.559473991394043,0.9222619533538818,153.90000915527344,-160.5,-38.10000228881836
1430229,-1.1436493396759033,10.008726119995117,0.9636083245277405,-2.698187828063965,-2.888737916946411,0.09146399796009064,161.10000610351562,-158.10000610351562,-39.30000305175781
1430249,-1.445711612701416,9.963865280151367,1.2064543962478638,-2.1036720275878906,-2.743919849395752,0.6173819899559021,161.10000610351562,-158.10000610351562,-39.30000305175781
1430273,-1.9930124282836914,9.438695907592773,1.000095009803772,-2.1036720275878906,-2.179892063140869,0.19054999947547913,156.3000030517578,-155.70001220703125,-39.30000305175781
1430293,-2.18800687789917,9.3238525390625,0.7548564076423645,-1.1509219408035278,-2.843005895614624,0.6021379828453064,158.70001220703125,-158.10000610351562,-41.10000228881836
1430313,-2.002582550048828,8.99128532409668,0.699827253818512,-0.571649968624115,-3.8414878845214844,1.0518360137939453,163.5,-153.3000030517578,-39.900001525878906
1430333,-1.3703455924987793,9.02418327331543,0.6585553884506226,0.39634400606155396,-4.794238090515137,2.3551979064941406,156.3000030517578,-155.70001220703125,-41.10000228881836
1430353,-1.0688815116882324,9.223962783813477,0.506627082824707,0.5868939757347107,-4.824726104736328,2.949713945388794,149.10000610351562,-155.70001220703125,-41.10000228881836
1430373,-0.8350076079368591,9.307703018188477,0.26378104090690613,0.6326259970664978,-4.817103862762451,3.2241058349609375,149.10000610351562,-162.90000915527344,-41.70000076293945
1430393,-0.6166853904724121,9.501501083374023,0.2207147628068924,0.6936019659042358,-4.824726104736328,3.3308138847351074,144.3000030517578,-165.3000030517578,-41.10000228881836
1430415,-0.4270740747451782,9.177308082580566,0.2733513414859772,0.3201240003108978,-4.115880012512207,3.208861827850342,141.90000915527344,-160.5,-43.5
1430435,-0.24404233694076538,9.362133979797363,0.250023752450943,0.4344539940357208,-3.4222779273986816,3.307947874069214,139.5,-165.3000030517578,-41.10000228881836
1430499,-0.059814296662807465,9.611559867858887,0.18482618033885956,0.6021379828453064,-0.9984819889068604,1.8597679138183594,132.3000030517578,-160.5,-41.10000228881836
1430519,-0.03648672252893448,9.4853515625,0.08553444594144821,0.571649968624115,-0.28201398253440857,1.4634239673614502,125.10000610351562,-167.70001220703125,-42.30000305175781
1430539,-0.04486072435975075,9.366320610046387,-0.07656230032444,0.6707359552383423,0.3201240003108978,1.2804960012435913,125.10000610351562,-165.3000030517578,-41.70000076293945
1430559,0.020935004577040672,9.14261531829834,-0.12919887900352478,0.8307979702949524,0.6554920077323914,1.1280559301376343,122.70000457763672,-162.90000915527344,-41.10000228881836
1430579,0.5251695513725281,9.583446502685547,-0.4013539254665375,1.0747020244598389,1.0823240280151367,1.4481799602508545,117.9000015258789,-167.70001220703125,-41.10000228881836
1430599,0.6071150898933411,9.572680473327637,-0.5245713591575623,1.0442140102386475,1.3643379211425781,1.3033620119094849,125.10000610351562,-170.10000610351562,-41.10000228881836
1430619,0.92472904920578,10.03205394744873,-0.8374001383781433,1.1128119230270386,1.577754020690918,1.189031958580017,120.30000305175781,-162.90000915527344,-42.30000305175781
1430642,0.9462621808052063,9.954893112182617,-1.003085732460022,0.8689079880714417,1.4329359531402588,0.5640279650688171,117.9000015258789,-167.70001220703125,-38.70000076293945
1430663,1.1215180158615112,9.40340518951416,-1.2154265642166138,1.0747020244598389,1.6692179441452026,0.2896359860897064,115.50000762939453,-167.70001220703125,-40.5
1430683,1.0916109085083008,9.487743377685547,-1.445711612701416,0.8917739987373352,2.0122079849243164,-0.09146399796009064,120.30000305175781,-165.3000030517578,-38.10000228881836
1430744,0.8080911636352539,8.995471954345703,-2.2137272357940674,0.7850660085678101,2.4237959384918213,-1.0061039924621582,120.30000305175781,-167.70001220703125,-38.10000228881836
1430764,0.8984107375144958,9.39263916015625,-2.6120903491973877,1.0061039924621582,2.3094658851623535,-1.0899460315704346,120.30000305175781,-165.3000030517578,-37.5
1430784,0.8439797163009644,9.67436408996582,-2.8597216606140137,1.1356779336929321,2.240867853164673,-1.3338500261306763,122.70000457763672,-162.90000915527344,-37.5
1430806,0.5700302720069885,9.79698371887207,-3.174942970275879,0.9832379817962646,2.3475759029388428,-1.478667974472046,127.50000762939453,-165.3000030517578,-35.70000076293945
1430867,0.20516303181648254,10.244394302368164,-4.487268447875977,1.7987920045852661,2.987823963165283,-0.8765299916267395,127.50000762939453,-162.90000915527344,-35.70000076293945
1430927,-0.6669294238090515,10.447763442993164,-4.613476753234863,1.021347999572754,1.7835479974746704,-1.471045970916748,127.50000762939453,-165.3000030517578,-33.900001525878906
1430951,-0.9953098893165588,8.47030258178711,-3.469229221343994,0.6936019659042358,1.0061039924621582,-2.2561118602752686,125.10000610351562,-162.90000915527344,-34.5
1430971,-1.0646945238113403,8.33691692352295,-3.47281813621521,0.2743920087814331,1.8978779315948486,-1.4024479389190674,132.3000030517578,-160.5,-33.900001525878906
1430991,-0.9444677233695984,8.289663314819336,-3.20784068107605,-0.04573199898004532,2.2713558673858643,-0.8765299916267395,134.70001220703125,-165.3000030517578,-33.30000305175781
1431011,-0.8864479064941406,7.943936824798584,-3.0780436992645264,-0.44969800114631653,2.9116039276123047,-0.4039659798145294,132.3000030517578,-155.70001220703125,-33.900001525878906
1431071,-0.32897862792015076,7.995377063751221,-3.3824985027313232,0.12195199728012085,3.399411916732788,1.8902559280395508,127.50000762939453,-165.3000030517578,-35.10000228881836
1431106,-0.09091772884130478,8.55703353881836,-3.4776031970977783,0.8231759667396545,2.8658719062805176,1.9207439422607422,127.50000762939453,-162.90000915527344,-33.30000305175781
1431127,-0.029907148331403732,8.571389198303223,-3.6026151180267334,0.8917739987373352,2.5533699989318848,1.6844619512557983,120.30000305175781,-162.90000915527344,-30.900001525878906
1431167,0.04486072435975075,9.43331241607666,-4.0643815994262695,0.685979962348938,1.92836594581604,1.5320219993591309,122.70000457763672,-165.3000030517578,-30.30000114440918
1431187,0.026318291202187538,9.381274223327637,-4.117616176605225,0.5487840175628662,1.646351933479309,1.2500079870224,125.10000610351562,-165.3000030517578,-29.100000381469727
1431227,-0.008374001830816269,8.632997512817383,-3.842470407485962,-0.19817200303077698,0.7545779943466187,0.9451279640197754,110.70000457763672,-167.70001220703125,-29.700000762939453
1431247,0.12082488089799881,8.58993148803711,-3.871779441833496,-0.41158798336982727,0.7164679765701294,1.4558019638061523,115.50000762939453,-165.3000030517578,-27.900001525878906
1431267,0.4210926592350006,8.76997184753418,-3.6977198123931885,-0.739333987236023,0.46494197845458984,2.03507399559021,110.70000457763672,-165.3000030517578,-30.30000114440918
1431287,0.6962383985519409,8.861488342285156,-3.579885721206665,-1.1737879514694214,0.49542999267578125,2.233245849609375,110.70000457763672,-165.3000030517578,-32.10000228881836
1431307,0.9271215796470642,8.88481616973877,-3.3639559745788574,-1.3109840154647827,0.2972579896450043,2.0198299884796143,108.30000305175781,-172.5,-28.500001907348633
1431327,1.0186375379562378,8.028274536132812,-2.8776657581329346,-1.6387299299240112,0.5259180068969727,1.1737879514694214,108.30000305175781,-170.10000610351562,-30.900001525878906
1431347,1.531844139099121,8.49721908569336,-3.030790328979492,-1.2195199728012085,0.8612859845161438,1.3948259353637695,105.9000015258789,-165.3000030517578,-30.900001525878906
1431367,1.6024249792099,8.63658618927002,-2.876469612121582,-0.9908599853515625,0.5487840175628662,1.4024479389190674,110.70000457763672,-162.90000915527344,-32.10000228881836
1431387,1.539620041847229,8.331533432006836,-2.8208422660827637,-1.2881180047988892,1.013725996017456,0.8079319596290588,101.10000610351562,-165.3000030517578,-31.500001907348633
1431407,1.8871411085128784,9.667784690856934,-3.070866107940674,-0.6631140112876892,0.3887220025062561,1.3338500261306763,101.10000610351562,-170.10000610351562,-30.900001525878906
1431427,1.5049277544021606,8.30282211303711,-2.3925719261169434,-1.0442140102386475,0.3582339882850647,-0.228659987449646,103.50000762939453,-165.3000030517578,-32.10000228881836
1431451,1.4211877584457397,8.294448852539062,-2.4153013229370117,-0.739333987236023,0.5182960033416748,0.19054999947547913,96.30000305175781,-167.70001220703125,-31.500001907348633
1431471,1.512703537940979,9.097156524658203,-2.4942562580108643,-0.48018598556518555,0.20579399168491364,0.426831990480423,103.50000762939453,-167.70001220703125,-30.900001525878906
1431491,1.3362513780593872,9.4375,-2.6240532398223877,-0.09908600151538849,0.02286599949002266,0.41158798336982727,103.50000762939453,-172.5,-31.500001907348633
1431511,1.414009928703308,10.358041763305664,-2.778374195098877,0.6173819899559021,-0.571649968624115,0.6402480006217957,103.50000762939453,-170.10000610351562,-30.900001525878906
1431531,1.7441848516464233,11.552533149719238,-2.841179132461548,1.1051899194717407,-1.2576299905776978,0.9832379817962646,101.10000610351562,-165.3000030517578,-31.500001907348633
1431555,2.4787044525146484,12.654313087463379,-2.8190479278564453,1.1280559301376343,-2.027451992034912,1.1280559301376343,98.70000457763672,-172.5,-31.500001907348633
1431575,1.9780588150024414,11.184675216674805,-1.6700152158737183,0.19817200303077698,-2.3094658851623535,-0.5259180068969727,101.10000610351562,-174.90000915527344,-30.900001525878906
1431595,1.3577845096588135,9.670177459716797,-1.425972819328308,-1.4481799602508545,-0.9298839569091797,-0.19054999947547913,96.30000305175781,-162.90000915527344,-30.900001525878906
1431618,1.6119953393936157,9.448864936828613,-1.6419024467468262,-2.080806016921997,0.3125019967556,0.6783579587936401,93.9000015258789,-170.10000610351562,-33.30000305175781
1431638,1.4223840236663818,9.094165802001953,-1.6448931694030762,-2.187514066696167,0.6173819899559021,1.3109840154647827,96.30000305175781,-162.90000915527344,-30.900001525878906
1431701,0.8529518842697144,8.271718978881836,-0.9803563356399536,-1.9893419742584229,0.9832379817962646,0.2743920087814331,93.9000015258789,-172.5,-33.30000305175781
1431723,0.9438695907592773,8.489442825317383,-1.0658907890319824,-1.653973937034607,1.7454379796981812,0.2591480016708374,91.5,-174.90000915527344,-32.10000228881836
1431744,0.8326150178909302,8.61565113067627,-1.2788296937942505,-1.4634239673614502,2.14178204536438,0.1448179930448532,93.9000015258789,-170.10000610351562,-33.900001525878906
1431768,0.6770978569984436,8.57198715209961,-1.3948694467544556,-0.8155539631843567,2.134160041809082,-0.1295740008354187,89.10000610351562,-172.5,-33.900001525878906
1431788,1.000095009803772,8.85072135925293,-1.4451134204864502,-0.114329993724823,2.2713558673858643,0.3887220025062561,96.30000305175781,-165.3000030517578,-33.30000305175781
1431808,1.3655604124069214,9.317273139953613,-1.4833946228027344,-0.1295740008354187,2.2180018424987793,0.8612859845161438,86.70000457763672,-167.70001220703125,-33.900001525878906
1431828,1.5880695581436157,9.099549293518066,-1.1107515096664429,-0.2439039945602417,2.4771499633789062,0.9451279640197754,91.5,-172.5,-32.70000076293945
1431848,1.7059037685394287,9.572680473327637,-1.1496307849884033,-0.3582339882850647,2.9192259311676025,1.6768399477005005,86.70000457763672,-172.5,-33.30000305175781
1431868,1.6694170236587524,10.249777793884277,-1.2590909004211426,-0.6326259970664978,3.056421995162964,1.8902559280395508,86.70000457763672,-170.10000610351562,-32.70000076293945
1431912,1.5581624507904053,9.728795051574707,-1.143051266670227,-0.9832379817962646,3.246971845626831,0.7850660085678101,81.9000015258789,-172.5,-32.10000228881836
1431942,1.4851889610290527,9.423144340515137,-1.0754610300064087,-0.853663980960846,3.0716660022735596,0.41158798336982727,77.10000610351562,-170.10000610351562,-30.900001525878906
1431962,1.324886679649353,8.957191467285156,-1.0575168132781982,-0.685979962348938,2.8658719062805176,0.07621999830007553,84.30000305175781,-172.5,-32.10000228881836
1432004,1.419991374015808,8.56600570678711,-0.9337011575698853,-0.114329993724823,2.4619059562683105,-0.030487999320030212,79.5,-172.5,-31.500001907348633
1432024,1.5952472686767578,8.412282943725586,-0.7590434551239014,0.1295740008354187,2.5228819847106934,0.16768398880958557,74.70000457763672,-172.5,-32.70000076293945
1432044,2.2376527786254883,9.594213485717773,-1.0048801898956299,0.5030519962310791,2.644834041595459,0.6478700041770935,81.9000015258789,-172.5,-30.900001525878906
1432064,2.7472705841064453,9.68632698059082,-0.8577370047569275,0.1295740008354187,2.7058098316192627,0.060975998640060425,81.9000015258789,-172.5,-31.500001907348633
1432125,2.7765796184539795,8.478078842163086,-1.3512049913406372,-0.5259180068969727,4.00154972076416,-0.2972579896450043,79.5,-167.70001220703125,-30.30000114440918
1432145,2.616875410079956,8.256765365600586,-1.514497995376587,-0.08384199440479279,3.9481959342956543,-0.3125019967556,79.5,-172.5,-32.10000228881836
1432165,2.838188409805298,8.670082092285156,-1.4481041431427002,-0.007621999830007553,3.5366079807281494,-0.04573199898004532,81.9000015258789,-170.10000610351562,-30.900001525878906
1432188,2.7795703411102295,8.947620391845703,-1.6024249792099,-0.739333987236023,4.28356409072876,-0.1295740008354187,79.5,-172.5,-31.500001907348633
1432248,2.2609803676605225,9.267626762390137,-3.609792947769165,1.0365920066833496,2.324709892272949,-1.1204339265823364,79.5,-165.3000030517578,-30.900001525878906
1432271,2.845964193344116,10.334115982055664,-3.508706569671631,1.6920839548110962,1.7301939725875854,0.060975998640060425,79.5,-167.70001220703125,-28.500001907348633
1432291,3.264066219329834,10.906538963317871,-3.814955949783325,1.1737879514694214,1.753059983253479,-0.114329993724823,72.30000305175781,-170.10000610351562,-29.700000762939453
1432311,2.6994192600250244,9.886107444763184,-4.109840393066406,1.5320219993591309,1.2042759656906128,-1.021347999572754,79.5,-174.90000915527344,-30.900001525878906
1432335,2.4009459018707275,8.91651725769043,-4.128981113433838,2.5000159740448,-0.19817200303077698,-0.20579399168491364,72.30000305175781,-172.5,-29.100000381469727
1432355,2.656352996826172,9.161157608032227,-3.4417147636413574,2.2027578353881836,-0.7621999979019165,0.35061198472976685,74.70000457763672,-172.5,-28.500001907348633
1432375,2.7059988975524902,8.874049186706543,-2.881852865219116,1.0365920066833496,-0.342989981174469,0.15243999660015106,84.30000305175781,-170.10000610351562,-27.30000114440918
1432395,2.6455862522125244,8.314187049865723,-2.6132867336273193,-0.04573199898004532,0.6097599864006042,-0.007621999830007553,74.70000457763672,-174.90000915527344,-27.30000114440918
1432415,2.3022522926330566,7.48635721206665,-2.5594537258148193,-0.5564059615135193,1.2881180047988892,-0.17530599236488342,79.5,-170.10000610351562,-26.700000762939453
1432435,2.2340641021728516,7.384673118591309,-2.453582525253296,-0.3582339882850647,1.2881180047988892,0.510673999786377,81.9000015258789,-172.5,-27.30000114440918
1432455,2.4368345737457275,7.737577438354492,-2.3028504848480225,-0.114329993724823,1.2804960012435913,0.7774440050125122,79.5,-170.10000610351562,-27.900001525878906
1432475,2.5773980617523193,8.003152847290039,-2.3596739768981934,0.08384199440479279,1.2576299905776978,0.8155539631843567,81.9000015258789,-172.5,-27.30000114440918
1432499,2.6521658897399902,8.044425010681152,-2.4105162620544434,0.05335399881005287,1.1737879514694214,0.9451279640197754,69.9000015258789,-167.70001220703125,-26.700000762939453
1432520,2.718559741973877,8.451162338256836,-2.5797905921936035,0.09146399796009064,1.14329993724823,1.2195199728012085,74.70000457763672,-174.90000915527344,-28.500001907348633
1432540,2.8160572052001953,8.938050270080566,-2.9530317783355713,-0.007621999830007553,1.0289700031280518,0.9984819889068604,67.5,-165.3000030517578,-27.30000114440918
1432602,2.5205745697021484,8.95838737487793,-3.5601470470428467,0.35061198472976685,0,0.04573199898004532,69.9000015258789,-165.3000030517578,-27.30000114440918
1432622,2.646782636642456,8.915321350097656,-3.416592597961426,0.1448179930448532,-0.685979962348938,-0.2439039945602417,74.70000457763672,-170.10000610351562,-26.700000762939453
1432642,2.7496633529663086,8.888404846191406,-3.257486581802368,-0.28201398253440857,-0.8079319596290588,-0.2134159952402115,74.70000457763672,-172.5,-27.30000114440918
1432662,2.7592334747314453,8.679652214050293,-2.9614057540893555,-0.8612859845161438,-0.853663980960846,-0.17530599236488342,72.30000305175781,-170.10000610351562,-27.900001525878906
1432684,2.6336236000061035,7.958292007446289,-2.720952272415161,-1.6615959405899048,-0.8231759667396545,-0.28201398253440857,69.9000015258789,-174.90000915527344,-26.100000381469727
1432725,2.7975146770477295,8.082107543945312,-2.554070472717285,-1.021347999572754,-1.0061039924621582,0.8231759667396545,72.30000305175781,-172.5,-27.30000114440918
1432745,2.9799482822418213,8.153884887695312,-2.1975772380828857,-1.1356779336929321,-0.9984819889068604,0.7469559907913208,77.10000610351562,-167.70001220703125,-28.500001907348633
1432765,3.3244786262512207,8.779542922973633,-2.1748478412628174,-1.1280559301376343,-0.5564059615135193,0.9603719711303711,74.70000457763672,-174.90000915527344,-26.100000381469727
1432785,3.731813907623291,9.80894660949707,-2.1706607341766357,-1.1509219408035278,-0.510673999786377,1.3186060190200806,69.9000015258789,-170.10000610351562,-28.500001907348633
1432805,3.740786075592041,9.597204208374023,-2.041461944580078,-1.7301939725875854,0.007621999830007553,0.6631140112876892,65.10000610351562,-167.70001220703125,-28.500001907348633
1432826,3.588857889175415,8.905152320861816,-1.9798532724380493,-1.8902559280395508,0.10670799762010574,0.7317119836807251,67.5,-170.10000610351562,-28.500001907348633
1432846,3.7605247497558594,9.457837104797363,-2.1120429039001465,-1.4481799602508545,0,1.4481799602508545,57.900001525878906,-172.5,-29.700000762939453
1432866,3.65106463432312,8.84294605255127,-1.9469553232192993,-1.7301939725875854,-0.13719600439071655,1.3872039318084717,65.10000610351562,-174.90000915527344,-30.30000114440918
1432887,3.651662826538086,9.060669898986816,-1.8614208698272705,-1.067080020904541,-0.5259180068969727,2.1112940311431885,55.500003814697266,-174.90000915527344,-29.100000381469727
1432907,3.3071324825286865,8.838160514831543,-1.6885576248168945,-1.067080020904541,-0.5868939757347107,1.7759259939193726,62.70000076293945,-172.5,-29.100000381469727
1432927,2.926713466644287,8.957191467285156,-1.699324131011963,-1.067080020904541,-0.5792719721794128,1.196653962135315,57.900001525878906,-170.10000610351562,-30.900001525878906
1432969,2.613884687423706,9.094165802001953,-1.699324131011963,-1.2804960012435913,-1.1814099550247192,-1.14329993724823,55.500003814697266,-182.10000610351562,-30.30000114440918
1432989,2.7915332317352295,8.76817798614502,-1.4253747463226318,-1.471045970916748,-1.3643379211425781,-1.7759259939193726,57.900001525878906,-170.10000610351562,-29.700000762939453
1433011,2.667717695236206,8.3040189743042,-1.2842129468917847,-1.9131219387054443,-0.8307979702949524,-1.3262280225753784,57.900001525878906,-174.90000915527344,-31.500001907348633
1433031,2.7293264865875244,8.375197410583496,-1.345821738243103,-1.8140360116958618,-0.8917739987373352,-0.8689079880714417,65.10000610351562,-170.10000610351562,-29.700000762939453
1433075,2.4464046955108643,8.97513484954834,-1.1992766857147217,-1.5015339851379395,-0.6936019659042358,-0.09146399796009064,65.10000610351562,-174.90000915527344,-33.30000305175781
1433097,2.513396739959717,8.442190170288086,-1.3912805318832397,-1.981719970703125,-0.12195199728012085,-0.12195199728012085,62.70000076293945,-165.3000030517578,-33.30000305175781
1433179,2.118622303009033,9.480566024780273,-0.9546361565589905,-0.9070180058479309,-0.7774440050125122,0.25152599811553955,62.70000076293945,-172.5,-33.30000305175781
1433225,1.3727381229400635,9.49013614654541,-0.6418074369430542,-0.6631140112876892,-1.1128119230270386,-0.3048799932003021,55.500003814697266,-170.10000610351562,-34.5
1433284,1.3284755945205688,10.039830207824707,-0.7728007435798645,-0.6554920077323914,-0.9832379817962646,-1.7149499654769897,57.900001525878906,-167.70001220703125,-33.900001525878906
1433322,1.3410365581512451,9.22934627532959,-0.506627082824707,-0.23628199100494385,-1.2576299905776978,-1.6844619512557983,60.30000305175781,-174.90000915527344,-33.900001525878906
1433342,1.5665364265441895,9.62770938873291,-0.5730209946632385,-0.06859800219535828,-0.7774440050125122,-1.0594580173492432,62.70000076293945,-177.3000030517578,-34.5
1433382,1.6359210014343262,8.944031715393066,-0.6262556910514832,-0.36585599184036255,0.038109999150037766,-1.1280559301376343,65.10000610351562,-172.5,-32.70000076293945
1433446,2.0851263999938965,9.260449409484863,-1.0347872972488403,0.5259180068969727,0.685979962348938,-0.7469559907913208,74.70000457763672,-177.3000030517578,-32.70000076293945
1433507,2.304644823074341,8.652137756347656,-1.0981905460357666,-0.015243999660015106,0.7469559907913208,-1.189031958580017,69.9000015258789,-177.3000030517578,-33.30000305175781
1433527,2.2789247035980225,8.557631492614746,-1.1693694591522217,-0.030487999320030212,0.8384199738502502,-0.6478700041770935,69.9000015258789,-170.10000610351562,-33.30000305175781
1433547,2.1712589263916016,8.56600570678711,-1.3775233030319214,-0.07621999830007553,0.967993974685669,0.030487999320030212,79.5,-172.5,-32.70000076293945
1433567,2.0827338695526123,8.65572738647461,-1.5079184770584106,-0.08384199440479279,0.5868939757347107,0.2972579896450043,69.9000015258789,-170.10000610351562,-33.900001525878906
1433629,2.318402051925659,8.97633171081543,-1.4750205278396606,-0.007621999830007553,-0.08384199440479279,-0.23628199100494385,72.30000305175781,-172.5,-32.10000228881836
1433684,2.549285411834717,9.158166885375977,-1.5719196796417236,0.2743920087814331,-0.08384199440479279,-0.19054999947547913,79.5,-177.3000030517578,-31.500001907348633
1433704,2.542107582092285,9.27121639251709,-1.538423776626587,0.2972579896450043,-0.030487999320030212,-0.22103799879550934,72.30000305175781,-174.90000915527344,-32.70000076293945
1433746,2.164679527282715,9.04691219329834,-1.8823559284210205,0.030487999320030212,0.25152599811553955,-0.7012239694595337,74.70000457763672,-174.90000915527344,-32.10000228881836
1433766,2.0851263999938965,9.041528701782227,-2.101276159286499,0.22103799879550934,0.16768398880958557,-0.8079319596290588,74.70000457763672,-174.90000915527344,-30.900001525878906
1433786,2.0342843532562256,8.794496536254883,-2.122211217880249,0.4039659798145294,-0.09146399796009064,-0.8460419774055481,72.30000305175781,-177.3000030517578,-30.900001525878906
1433806,2.0857245922088623,8.85670280456543,-2.2699525356292725,0.6402480006217957,-0.26677000522613525,-0.571649968624115,77.10000610351562,-172.5,-30.30000114440918
1433826,2.077350616455078,8.83875846862793,-2.2872986793518066,0.7164679765701294,-0.5335400104522705,-0.5564059615135193,74.70000457763672,-177.3000030517578,-32.10000228881836
1433846,2.2376527786254883,8.79210376739502,-2.1868107318878174,0.6554920077323914,-0.46494197845458984,-0.4420759975910187,69.9000015258789,-170.10000610351562,-30.900001525878906
1433866,2.387188673019409,9.39263916015625,-2.1981754302978516,0.5564059615135193,-0.342989981174469,-0.5030519962310791,74.70000457763672,-172.5,-30.30000114440918
1433886,2.47092866897583,8.79389762878418,-2.053424835205078,-0.228659987449646,0,-1.0061039924621582,77.10000610351562,-174.90000915527344,-30.900001525878906
1433906,2.537322521209717,9.06306266784668,-2.0767524242401123,0.4878079891204834,0.060975998640060425,-0.46494197845458984,79.5,-170.10000610351562,-29.700000762939453
1433926,2.6479790210723877,9.512866020202637,-1.9044872522354126,0.2896359860897064,0.26677000522613525,-0.48018598556518555,79.5,-170.10000610351562,-30.30000114440918
1433946,2.4930598735809326,9.43929386138916,-1.9308055639266968,0.015243999660015106,0.6250039935112,-0.8841519951820374,77.10000610351562,-172.5,-30.900001525878906
1433990,2.1539127826690674,9.167139053344727,-1.9804513454437256,0.44969800114631653,0.5411620140075684,-1.935987949371338,77.10000610351562,-172.5,-29.100000381469727
1434010,2.0857245922088623,9.128259658813477,-2.0372750759124756,0.7774440050125122,0.41158798336982727,-2.6067240238189697,79.5,-167.70001220703125,-29.700000762939453
1434030,2.104865074157715,9.095361709594727,-2.0247139930725098,1.14329993724823,0.1600620001554489,-3.0792880058288574,84.30000305175781,-172.5,-28.500001907348633
1434054,2.0964910984039307,9.048707008361816,-1.9983956813812256,1.1737879514694214,0.12195199728012085,-3.506119966506958,89.10000610351562,-172.5,-29.700000762939453
1434074,2.0468451976776123,9.05588436126709,-2.0013864040374756,1.2652519941329956,0.1295740008354187,-3.8338658809661865,89.10000610351562,-172.5,-29.100000381469727
1434094,2.0193307399749756,9.087586402893066,-1.9918160438537598,1.3186060190200806,0.17530599236488342,-4.222588062286377,89.10000610351562,-167.70001220703125,-29.100000381469727
1434115,1.842280387878418,9.220972061157227,-2.0127511024475098,1.3186060190200806,0.48018598556518555,-4.908567905426025,101.10000610351562,-170.10000610351562,-27.30000114440918
1434135,1.6981278657913208,9.2042236328125,-1.9983956813812256,1.3948259353637695,0.6707359552383423,-5.411619663238525,103.50000762939453,-165.3000030517578,-27.900001525878906
1434155,1.5521810054779053,9.32684326171875,-2.005573272705078,1.4862899780273438,0.8841519951820374,-5.884183883666992,108.30000305175781,-162.90000915527344,-26.700000762939453
1434175,1.2543058395385742,9.167737007141113,-2.0402655601501465,1.5472660064697266,1.1585439443588257,-6.440589904785156,115.50000762939453,-155.70001220703125,-27.900001525878906
1434195,1.0078709125518799,9.011622428894043,-2.1066596508026123,1.8597679138183594,1.3643379211425781,-6.913153648376465,117.9000015258789,-165.3000030517578,-26.100000381469727
1434217,0.92771977186203,9.04212760925293,-2.1054632663726807,2.3018438816070557,1.3567159175872803,-7.0351057052612305,127.50000762939453,-160.5,-24.30000114440918
1434237,0.7692118883132935,8.97214412689209,-2.131781578063965,2.385685920715332,1.6158639192581177,-7.263765811920166,132.3000030517578,-160.5,-24.30000114440918
1434279,0.14534874260425568,9.038537979125977,-2.4810969829559326,2.782029867172241,1.8445239067077637,-7.629621982574463,149.10000610351562,-150.90000915527344,-23.700000762939453
1434299,0.04785143584012985,8.713747024536133,-2.6366143226623535,2.8811159133911133,2.080806016921997,-8.109807968139648,153.90000915527344,-148.5,-23.100000381469727
1434322,-0.15372274816036224,8.93147087097168,-2.7646167278289795,3.445143938064575,1.9664759635925293,-7.881147861480713,158.70001220703125,-143.70001220703125,-22.5
1434342,-0.48509395122528076,8.77415943145752,-2.995500087738037,3.300325870513916,2.7134318351745605,-8.10218620300293,163.5,-146.10000610351562,-23.100000381469727
1434362,-1.4032434225082397,8.75800895690918,-3.758730411529541,3.5213639736175537,3.2164838314056396,-7.766818046569824,170.70001220703125,-136.5,-20.100000381469727
1434424,-1.7806715965270996,8.732887268066406,-4.093690395355225,2.0122079849243164,1.9740979671478271,-4.032037734985352,180.3000030517578,-129.3000030517578,-17.100000381469727
1434482,-1.8691967725753784,8.811244010925293,-4.154102802276611,0.5945159792900085,1.067080020904541,-1.8521459102630615,187.5,-124.50000762939453,-16.5
1434548,-1.4929648637771606,8.523537635803223,-3.8998920917510986,0.28201398253440857,0.33536797761917114,-0.9375059604644775,197.10000610351562,-119.70000457763672,-15.300000190734863
1434708,-1.6119953393936157,8.677260398864746,-3.213223934173584,-0.39634400606155396,0.6478700041770935,-1.4634239673614502,192.3000030517578,-112.50000762939453,-16.5
1434728,-1.8721874952316284,8.556435585021973,-3.464444160461426,-0.3887220025062561,0.914639949798584,-1.3567159175872803,201.90000915527344,-110.10000610351562,-17.100000381469727
1434748,-2.2753357887268066,8.323159217834473,-3.957911968231201,-0.030487999320030212,0.9375059604644775,-1.0823240280151367,194.70001220703125,-117.30000305175781,-14.100000381469727
1434812,-1.718464732170105,8.59292221069336,-3.815553903579712,-0.571649968624115,-0.19054999947547913,-0.46494197845458984,201.90000915527344,-119.70000457763672,-15.90000057220459
1434832,-1.8727856874465942,8.38476848602295,-3.9154438972473145,-0.19817200303077698,-0.41158798336982727,-0.4725639820098877,199.50001525878906,-110.10000610351562,-15.300000190734863
1434852,-1.8931225538253784,8.522340774536133,-3.9955949783325195,-0.19054999947547913,-0.800309956073761,-0.4344539940357208,199.50001525878906,-112.50000762939453,-15.90000057220459
1434872,-1.746577501296997,8.59770679473877,-3.9387714862823486,-0.1600620001554489,-1.3643379211425781,-0.5640279650688171,204.3000030517578,-114.9000015258789,-15.90000057220459
1434934,-2.0516304969787598,8.604286193847656,-3.8281149864196777,-0.2972579896450043,-0.6097599864006042,-0.9451279640197754,199.50001525878906,-114.9000015258789,-16.5
1434996,-2.0522284507751465,8.484060287475586,-3.4626495838165283,-0.7698220014572144,0.2972579896450043,-0.8993960022926331,206.70001220703125,-110.10000610351562,-15.300000190734863
1435040,-2.3853940963745117,8.56480884552002,-4.056605815887451,-0.5564059615135193,-0.6936019659042358,-0.22103799879550934,206.70001220703125,-114.9000015258789,-15.90000057220459
1435070,-2.1712589263916016,8.714942932128906,-3.5990262031555176,0.038109999150037766,-1.3262280225753784,-0.426831990480423,206.70001220703125,-112.50000762939453,-16.5
1435090,-2.125800132751465,8.2980375289917,-3.729421377182007,-1.2042759656906128,-0.9375059604644775,0.20579399168491364,209.10000610351562,-117.30000305175781,-17.700000762939453
1435110,-1.8135695457458496,8.82679557800293,-3.6474759578704834,-0.6631140112876892,-1.1585439443588257,0.8689079880714417,209.10000610351562,-117.30000305175781,-16.5
1435130,-1.6550616025924683,8.503798484802246,-3.5457916259765625,-0.6173819899559021,-0.7698220014572144,0.5564059615135193,209.10000610351562,-114.9000015258789,-17.700000762939453
1435150,-1.432552456855774,8.736475944519043,-3.389078140258789,-0.4725639820098877,-0.5868939757347107,0.5868939757347107,199.50001525878906,-117.30000305175781,-17.700000762939453
1435170,-1.1693694591522217,8.936854362487793,-3.0385663509368896,-0.25152599811553955,-0.09146399796009064,0.228659987449646,204.3000030517578,-114.9000015258789,-18.30000114440918
1435194,-1.1873137950897217,8.686232566833496,-2.8064868450164795,-0.7698220014572144,1.1280559301376343,-0.19054999947547913,206.70001220703125,-110.10000610351562,-16.5
1435215,-1.6694170236587524,8.37459945678711,-3.3639559745788574,-1.0061039924621582,2.843005895614624,-0.3201240003108978,213.90000915527344,-114.9000015258789,-15.90000057220459
1435275,-2.5564630031585693,8.682642936706543,-4.243824481964111,-0.17530599236488342,1.0899460315704346,0.13719600439071655,211.50001525878906,-112.50000762939453,-16.5
1435364,-1.806391716003418,8.80586051940918,-3.5242583751678467,-1.8216580152511597,-3.5366079807281494,2.5076379776000977,201.90000915527344,-114.9000015258789,-18.900001525878906
1435385,-1.7459793090820312,8.463723182678223,-3.302945375442505,-2.28659987449646,-3.2622158527374268,2.8734939098358154,201.90000915527344,-117.30000305175781,-17.100000381469727
1435425,-1.7639236450195312,8.54207992553711,-3.087614059448242,-2.027451992034912,-2.5152599811553955,3.3765459060668945,197.10000610351562,-124.50000762939453,-18.900001525878906
1435445,-1.8895336389541626,8.460732460021973,-3.064884662628174,-2.0960500240325928,-1.981719970703125,3.4222779273986816,192.3000030517578,-122.10000610351562,-18.900001525878906
1435465,-1.7830642461776733,8.68443775177002,-3.3065342903137207,-1.3643379211425781,-1.7378159761428833,3.292703866958618,192.3000030517578,-129.3000030517578,-21.30000114440918
1435485,-1.6514726877212524,8.674269676208496,-3.1229045391082764,-0.8993960022926331,-1.875011920928955,2.995445966720581,187.5,-129.3000030517578,-20.700000762939453
1435505,-1.4672447443008423,8.488844871520996,-3.20784068107605,-0.9603719711303711,-1.6615959405899048,2.957335948944092,192.3000030517578,-129.3000030517578,-22.5
1435525,-1.2806241512298584,8.851319313049316,-3.230570077896118,-0.3048799932003021,-1.6768399477005005,3.353679895401001,182.70001220703125,-136.5,-22.5
1435545,-1.1023775339126587,8.944031715393066,-3.183316946029663,-0.4192099869251251,-1.4481799602508545,3.3308138847351074,180.3000030517578,-131.70001220703125,-21.30000114440918
1435565,-1.1861175298690796,8.906349182128906,-3.27961802482605,-0.6402480006217957,-1.2042759656906128,3.3689239025115967,177.90000915527344,-136.5,-21.900001525878906
1435605,-1.0521334409713745,8.933265686035156,-3.4052278995513916,-0.5792719721794128,-1.2271419763565063,3.506119966506958,175.5,-136.5,-21.30000114440918
1435625,-0.91874760389328,9.08997917175293,-3.368143081665039,-0.5868939757347107,-1.3033620119094849,3.75002384185791,170.70001220703125,-141.3000030517578,-23.700000762939453
1435645,-0.45817750692367554,9.147400856018066,-3.1187174320220947,-0.9070180058479309,-1.4405579566955566,3.971061944961548,170.70001220703125,-138.90000915527344,-21.30000114440918
1435666,-0.45877566933631897,9.049304962158203,-3.136063575744629,-1.3414719104766846,-1.067080020904541,4.153989791870117,163.5,-150.90000915527344,-23.100000381469727
1435686,-0.46894410252571106,9.059473037719727,-3.2233924865722656,-1.4100699424743652,-1.0899460315704346,4.161612033843994,158.70001220703125,-146.10000610351562,-23.700000762939453
1435706,-0.0735715851187706,9.3118896484375,-2.862114191055298,-1.1280559301376343,-1.4558019638061523,4.222588062286377,153.90000915527344,-143.70001220703125,-23.700000762939453
1435728,0.08732887357473373,9.342992782592773,-2.533135414123535,-1.6387299299240112,-1.0899460315704346,3.85673189163208,151.5,-148.5,-24.30000114440918
1435748,0.07895487546920776,9.209009170532227,-2.5797905921936035,-1.92836594581604,-0.38109999895095825,3.361301898956299,149.10000610351562,-146.10000610351562,-23.100000381469727
1435794,0.21533146500587463,9.252673149108887,-2.3417296409606934,-1.425313949584961,-0.6554920077323914,3.1859958171844482,144.3000030517578,-153.3000030517578,-25.500001907348633
1435814,0.5616562366485596,9.418957710266113,-1.7980177402496338,-1.9054999351501465,-0.6326259970664978,3.2317278385162354,137.10000610351562,-153.3000030517578,-26.100000381469727
1435836,0.34512850642204285,9.128857612609863,-1.9397776126861572,-2.644834041595459,0.9375059604644775,2.843005895614624,137.10000610351562,-158.10000610351562,-24.900001525878906
1435856,0.5305528044700623,9.411779403686523,-1.9230296611785889,-2.0579400062561035,0.9756159782409668,2.8048958778381348,137.10000610351562,-158.10000610351562,-27.900001525878906
1435876,0.6142928600311279,9.459630966186523,-1.8925243616104126,-1.9588539600372314,1.2195199728012085,2.682943820953369,132.3000030517578,-160.5,-26.700000762939453
1435896,0.724351167678833,9.388452529907227,-1.8249342441558838,-1.882633924484253,1.0747020244598389,2.7210538387298584,134.70001220703125,-158.10000610351562,-27.30000114440918
1435916,1.024020791053772,9.51107120513916,-1.6419024467468262,-1.425313949584961,1.1509219408035278,3.0335559844970703,120.30000305175781,-160.5,-26.700000762939453
1435940,1.0975923538208008,9.49611759185791,-1.4786094427108765,-1.707327961921692,1.5396440029144287,2.843005895614624,117.9000015258789,-165.3000030517578,-26.100000381469727
1435960,1.2710537910461426,9.3118896484375,-1.6753984689712524,-1.7225719690322876,2.1036720275878906,2.8277618885040283,125.10000610351562,-158.10000610351562,-26.700000762939453
1435984,1.4917685985565186,9.274805068969727,-1.636519193649292,-1.3567159175872803,2.0198299884796143,3.1783738136291504,120.30000305175781,-167.70001220703125,-27.30000114440918
1436004,1.4690390825271606,8.99606990814209,-1.7591384649276733,-1.3872039318084717,2.2561118602752686,3.1707520484924316,115.50000762939453,-162.90000915527344,-27.30000114440918
1436026,1.3661586046218872,9.173120498657227,-1.9601144790649414,-0.9984819889068604,2.1112940311431885,3.4375219345092773,110.70000457763672,-158.10000610351562,-27.30000114440918
1436046,1.4463096857070923,9.43331241607666,-2.0109567642211914,-0.8917739987373352,1.882633924484253,3.102154016494751,108.30000305175781,-162.90000915527344,-27.900001525878906
1436066,1.727436900138855,9.791600227355957,-1.9637033939361572,-0.9451279640197754,1.577754020690918,2.698187828063965,98.70000457763672,-167.70001220703125,-26.700000762939453
1436086,1.9050853252410889,9.94951057434082,-2.095294713973999,-1.3109840154647827,1.6920839548110962,2.03507399559021,101.10000610351562,-170.10000610351562,-27.30000114440918
1436106,0.9253271818161011,8.206521987915039,-2.2705507278442383,-2.027451992034912,1.9512319564819336,0.5792719721794128,108.30000305175781,-167.70001220703125,-29.100000381469727
1436130,0.6256575584411621,8.1903715133667,-3.0026776790618896,-0.6173819899559021,1.1661659479141235,1.2118979692459106,103.50000762939453,-165.3000030517578,-30.30000114440918
1436150,0.6920514106750488,8.87165641784668,-2.9135544300079346,0.3125019967556,-0.49542999267578125,1.1051899194717407,96.30000305175781,-165.3000030517578,-28.500001907348633
1436190,1.3500087261199951,8.85490894317627,-2.5002377033233643,0.6554920077323914,-1.8673899173736572,1.067080020904541,98.70000457763672,-167.70001220703125,-29.100000381469727
1436210,1.6765947341918945,8.78014087677002,-2.2250919342041016,0.2896359860897064,-1.5929979085922241,1.6387299299240112,93.9000015258789,-167.70001220703125,-27.30000114440918
1436230,1.8051954507827759,9.223962783813477,-2.3082337379455566,-0.12195199728012085,-0.8841519951820374,2.1494040489196777,93.9000015258789,-170.10000610351562,-27.900001525878906
1436250,1.7573440074920654,9.159363746643066,-2.3895812034606934,-0.49542999267578125,-0.23628199100494385,1.9054999351501465,89.10000610351562,-167.70001220703125,-26.100000381469727
1436270,1.6742022037506104,9.203625679016113,-2.572014808654785,-0.38109999895095825,0.19817200303077698,1.806414008140564,91.5,-172.5,-29.700000762939453
1436333,1.7866530418395996,9.094165802001953,-2.638408660888672,0.4725639820098877,0.49542999267578125,1.4405579566955566,86.70000457763672,-170.10000610351562,-26.100000381469727
1436468,2.23585844039917,9.06904411315918,-2.1443426609039307,-1.1204339265823364,0.8307979702949524,1.577754020690918,69.9000015258789,-167.70001220703125,-28.500001907348633
1436504,2.295672655105591,9.03614616394043,-2.1563053131103516,-1.0061039924621582,0.510673999786377,1.3262280225753784,72.30000305175781,-170.10000610351562,-28.500001907348633
1436526,2.333355665206909,9.011622428894043,-1.949347972869873,-0.8689079880714417,0.23628199100494385,1.1585439443588257,69.9000015258789,-174.90000915527344,-28.500001907348633
1436567,2.6838674545288086,9.135437965393066,-1.7992140054702759,-1.0823240280151367,0.5030519962310791,0.3277460038661957,62.70000076293945,-177.3000030517578,-29.700000762939453
1436587,2.700615406036377,8.69640064239502,-1.7776808738708496,-1.067080020904541,0.6097599864006042,0.1448179930448532,62.70000076293945,-172.5,-28.500001907348633
1436608,2.7969164848327637,8.49721908569336,-1.6849687099456787,-0.9298839569091797,0.7088459730148315,0.3201240003108978,65.10000610351562,-174.90000915527344,-29.100000381469727
1436628,2.760429859161377,8.186782836914062,-1.5252646207809448,-1.013725996017456,0.8612859845161438,0.4192099869251251,67.5,-170.10000610351562,-29.100000381469727
1436650,2.4613583087921143,7.399626731872559,-1.2961758375167847,-1.189031958580017,0.8765299916267395,0.19817200303077698,60.30000305175781,-170.10000610351562,-28.500001907348633
1436670,2.0109567642211914,6.265547752380371,-1.0144504308700562,-1.2042759656906128,0.7774440050125122,-0.030487999320030212,65.10000610351562,-172.5,-30.900001525878906
1436690,1.5761067867279053,5.2983503341674805,-0.9660009145736694,-1.2347639799118042,1.1051899194717407,0.18292799592018127,60.30000305175781,-179.70001220703125,-29.100000381469727
1436710,1.0706759691238403,4.3353400230407715,-0.8015115857124329,-1.5091559886932373,0.9298839569091797,0.7469559907913208,65.10000610351562,-172.5,-31.500001907348633
1436730,0.23028504848480225,3.925612211227417,-0.8750831484794617,-1.471045970916748,1.5701320171356201,2.1189160346984863,62.70000076293945,-172.5,-29.700000762939453
1436753,1.0951998233795166,8.110220909118652,-1.931403636932373,-1.6920839548110962,2.7134318351745605,6.493943691253662,60.30000305175781,-172.5,-30.30000114440918
1436773,1.6036213636398315,10.304208755493164,-2.5773980617523193,-3.3384358882904053,3.4908759593963623,6.501565933227539,50.70000076293945,-174.90000915527344,-31.500001907348633
1436795,1.3003628253936768,10.777339935302734,-3.5846707820892334,-2.324709892272949,4.961921691894531,5.160093784332275,45.900001525878906,-174.90000915527344,-31.500001907348633
1436815,2.071967363357544,13.922375679016113,-5.4119977951049805,1.2118979692459106,6.227173805236816,8.704323768615723,36.30000305175781,-177.3000030517578,-30.30000114440918
1436835,9.53200626373291,19.599349975585938,-6.455757141113281,-0.5868939757347107,2.431417942047119,15.381196022033691,14.700000762939453,-177.3000030517578,-30.900001525878906
1436855,12.251164436340332,19.552696228027344,-5.754135608673096,-2.652456045150757,0.7850660085678101,12.500080108642578,14.700000762939453,-170.10000610351562,-30.900001525878906
1436875,12.023271560668945,19.599349975585938,-4.62603759765625,-2.027451992034912,-1.1737879514694214,-2.75154185295105,5.100000381469727,-172.5,-34.5
1436899,8.195755004882812,18.479028701782227,-4.9825310707092285,-1.6234859228134155,-0.7012239694595337,0.9375059604644775,14.700000762939453,-167.70001220703125,-31.500001907348633
1436920,6.539496898651123,15.651008605957031,-3.1671669483184814,-3.094532012939453,-4.57319974899292,-0.7621999979019165,5.100000381469727,-172.5,-32.70000076293945
1436940,3.168961524963379,9.62172794342041,-0.9731786251068115,-1.882633924484253,-6.211929798126221,-10.548848152160645,12.300000190734863,-174.90000915527344,-32.70000076293945
1436960,0.24105161428451538,1.105966329574585,0.10527316480875015,-0.685979962348938,-6.326260089874268,-17.019926071166992,33.900001525878906,-182.10000610351562,-32.70000076293945
1436980,-0.9923191666603088,-3.4052278995513916,1.3476160764694214,-2.7058098316192627,-5.152472019195557,-7.865903854370117,43.5,-174.90000915527344,-32.70000076293945
1437001,1.3201014995574951,-0.040075577795505524,2.0306954383850098,-4.626554012298584,-2.637212038040161,2.4771499633789062,45.900001525878906,-177.3000030517578,-33.900001525878906
1437021,1.4630577564239502,0.4073353707790375,1.809382438659668,-3.9253299236297607,-0.4344539940357208,1.2881180047988892,36.30000305175781,-174.90000915527344,-35.10000228881836
1437041,1.8596265316009521,-0.7315288782119751,1.4331505298614502,-3.239349842071533,0.9527499675750732,1.935987949371338,41.10000228881836,-182.10000610351562,-34.5
1437061,1.9924142360687256,-0.29069748520851135,1.3141200542449951,-2.1036720275878906,1.4405579566955566,4.382649898529053,33.900001525878906,-177.3000030517578,-34.5
1437081,1.0760592222213745,-0.9259253144264221,1.2549039125442505,-1.646351933479309,2.3475759029388428,4.710395812988281,33.900001525878906,-179.70001220703125,-36.30000305175781
1437101,0.6388167142868042,-0.7524638772010803,1.3009610176086426,-0.8841519951820374,2.2180018424987793,5.228692054748535,21.900001525878906,-184.5,-36.900001525878906
1437123,0.37563377618789673,0.2607903480529785,1.2614835500717163,-0.4725639820098877,2.39330792427063,4.2911858558654785,19.5,-182.10000610351562,-36.30000305175781
1437143,-0.008374001830816269,0.19200389087200165,0.818259596824646,-0.26677000522613525,2.545747995376587,1.6920839548110962,26.700000762939453,-179.70001220703125,-35.70000076293945
1437163,-0.08732887357473373,0.04725329577922821,0.6872662901878357,-0.13719600439071655,1.707327961921692,0.030487999320030212,19.5,-177.3000030517578,-36.30000305175781
1437183,0.15671345591545105,0.2721550464630127,0.40255022048950195,-0.038109999150037766,1.806414008140564,-0.8384199738502502,19.5,-174.90000915527344,-37.5
1437243,2.9261155128479004,9.316675186157227,-1.0766572952270508,0.914639949798584,3.955817937850952,1.7149499654769897,9.90000057220459,-177.3000030517578,-35.10000228881836
1437282,9.834667205810547,19.21055793762207,-2.504424571990967,-3.2241058349609375,-0.4878079891204834,5.5030837059021,-4.5,-174.90000915527344,-36.900001525878906
1437302,12.596891403198242,19.599349975585938,-2.9374802112579346,3.1402640342712402,2.583858013153076,6.974129676818848,-11.700000762939453,-174.90000915527344,-36.900001525878906
1437342,17.450223922729492,19.599349975585938,-4.128382682800293,-1.5015339851379395,2.5152599811553955,2.2103798389434814,-33.30000305175781,-170.10000610351562,-38.10000228881836
1437363,15.195223808288574,19.599349975585938,-3.0116498470306396,-0.6783579587936401,0.41158798336982727,-0.5792719721794128,-33.30000305175781,-170.10000610351562,-36.900001525878906
1437383,11.633282661437988,19.51561164855957,-2.589959144592285,-0.8384199738502502,0.5868939757347107,-2.233245849609375,-30.900001525878906,-172.5,-36.900001525878906
1437405,7.415178298950195,14.69697093963623,-1.8051954507827759,1.013725996017456,-1.5320219993591309,-10.28207778930664,-26.100000381469727,-172.5,-36.30000305175781
1437465,-1.125106930732727,-2.557061195373535,-0.0065795728005468845,1.196653962135315,-1.7225719690322876,-8.529017448425293,19.5,-177.3000030517578,-35.10000228881836
1437485,-0.14833945035934448,-0.503038227558136,0.3636709153652191,-0.23628199100494385,-2.1646480560302734,-1.021347999572754,21.900001525878906,-179.70001220703125,-34.5
1437507,0.31881019473075867,0.3546987771987915,0.721360445022583,0.5411620140075684,-1.5548880100250244,-0.48018598556518555,24.30000114440918,-170.10000610351562,-32.70000076293945
1437527,0.5359361171722412,0.6358259916305542,0.49047723412513733,-0.228659987449646,-0.7545779943466187,-0.38109999895095825,29.100000381469727,-172.5,-35.70000076293945
1437547,0.5712265372276306,0.5748153924942017,0.500047504901886,-0.3201240003108978,-0.8460419774055481,-0.28201398253440857,24.30000114440918,-177.3000030517578,-33.30000305175781
1437587,0.2117426097393036,-0.14295616745948792,0.8080911636352539,-0.7240899801254272,-0.967993974685669,-0.35061198472976685,24.30000114440918,-184.5,-34.5
1437607,-0.1088620200753212,-0.7733988761901855,0.8708961606025696,-1.067080020904541,-0.8689079880714417,-0.9298839569091797,26.700000762939453,-182.10000610351562,-35.70000076293945
1437631,-0.20336860418319702,-0.8864479064941406,0.7799784541130066,-0.8460419774055481,-0.5259180068969727,-0.7698220014572144,29.100000381469727,-179.70001220703125,-33.900001525878906
1437651,-0.17047074437141418,-0.7309306859970093,0.6334334015846252,-0.5030519962310791,-0.510673999786377,-0.5182960033416748,33.900001525878906,-177.3000030517578,-33.900001525878906
1437671,1.1873137950897217,1.9654978513717651,-0.07536601275205612,0.9375059604644775,0.10670799762010574,2.7210538387298584,29.100000381469727,-182.10000610351562,-35.10000228881836
1437691,2.1987736225128174,4.352686405181885,-0.60352623462677,1.478667974472046,0.6250039935112,5.434485912322998,33.900001525878906,-174.90000915527344,-33.900001525878906
1437711,2.834001302719116,8.68742847442627,-1.1657806634902954,0.9984819889068604,3.307947874069214,7.35522985458374,19.5,-174.90000915527344,-33.900001525878906
1437731,6.913934707641602,16.559587478637695,-4.618860244750977,2.1112940311431885,10.968057632446289,18.948291778564453,5.100000381469727,-177.3000030517578,-33.900001525878906
1437771,12.141105651855469,19.599349975585938,-4.0255022048950195,0.05335399881005287,-2.637212038040161,-2.439039945602417,-16.5,-170.10000610351562,-35.70000076293945
1437791,17.091337203979492,19.598154067993164,-6.361848831176758,-0.41158798336982727,3.3155698776245117,10.724153518676758,-16.5,-172.5,-33.900001525878906
1437814,17.719985961914062,19.599349975585938,-5.604599475860596,-4.603687763214111,1.0823240280151367,2.7744078636169434,-26.100000381469727,-167.70001220703125,-34.5
1437834,12.847513198852539,19.599349975585938,-4.377808570861816,-0.8384199738502502,-4.809482097625732,-5.632658004760742,-23.700000762939453,-167.70001220703125,-35.70000076293945
1437854,7.556938171386719,14.010302543640137,-1.7268387079238892,-2.843005895614624,-3.3841679096221924,-3.452765941619873,-16.5,-174.90000915527344,-37.5
1437874,5.651254653930664,11.837249755859375,-1.2698575258255005,-1.5701320171356201,-2.8734939098358154,-7.065593719482422,-14.100000381469727,-172.5,-36.30000305175781
1437894,0.3828114867210388,1.4271690845489502,0.18602246046066284,0.28201398253440857,-4.420759677886963,-16.295835494995117,2.700000047683716,-182.10000610351562,-36.30000305175781
1437914,-0.6142928600311279,-1.721455454826355,0.509617805480957,-0.23628199100494385,-1.8978779315948486,-7.370473861694336,17.100000381469727,-179.70001220703125,-35.70000076293945
1437935,0.29368820786476135,0.07596416026353836,0.509617805480957,-1.0594580173492432,-1.882633924484253,-1.5701320171356201,9.90000057220459,-177.3000030517578,-35.10000228881836
1437955,0.6041244268417358,-0.7285381555557251,0.8870460391044617,-0.04573199898004532,-2.599102020263672,-2.9649579524993896,9.90000057220459,-179.70001220703125,-35.70000076293945
1437975,1.134079098701477,-0.6986309885978699,1.2919888496398926,0.16768398880958557,-2.3475759029388428,-1.196653962135315,14.700000762939453,-182.10000610351562,-35.70000076293945
1437995,1.718464732170105,0.6340315341949463,1.2800259590148926,-0.228659987449646,-1.417691946029663,0.7164679765701294,17.100000381469727,-184.5,-37.5
1438015,1.2949795722961426,0.3971669375896454,1.4493004083633423,-1.2652519941329956,-0.3048799932003021,0.6021379828453064,24.30000114440918,-182.10000610351562,-35.70000076293945
1438055,0.1399654597043991,-0.6250594258308411,1.202865481376648,-1.7911700010299683,0.46494197845458984,-0.7012239694595337,17.100000381469727,-177.3000030517578,-35.70000076293945
1438075,-0.41690564155578613,-1.0629000663757324,0.8529518842697144,-1.0442140102386475,0.7621999979019165,-1.5548880100250244,19.5,-179.70001220703125,-36.900001525878906
1438095,-0.4019520878791809,-0.5245713591575623,0.5825912356376648,-0.1295740008354187,0.23628199100494385,-1.1128119230270386,21.900001525878906,-177.3000030517578,-37.5
1438115,-0.6896588206291199,-0.15372274816036224,0.2601921856403351,0.5030519962310791,-0.007621999830007553,-1.646351933479309,17.100000381469727,-177.3000030517578,-36.900001525878906
1438135,0.014953574165701866,1.7866530418395996,-0.30624920129776,2.088428020477295,-0.17530599236488342,0.007621999830007553,21.900001525878906,-182.10000610351562,-33.30000305175781
1438155,1.2991665601730347,6.4575514793396,-1.1352753639221191,3.8491098880767822,0.800309956073761,5.152472019195557,19.5,-179.70001220703125,-34.5
1438175,3.609792947769165,13.330214500427246,-2.5439021587371826,2.652456045150757,3.513741970062256,12.004650115966797,14.700000762939453,-174.90000915527344,-34.5
1438195,8.637184143066406,19.599349975585938,-3.6050076484680176,-1.8140360116958618,3.971061944961548,13.681489944458008,-4.5,-170.10000610351562,-34.5
1438215,10.559616088867188,19.550901412963867,-3.2826085090637207,-1.4024479389190674,0.5182960033416748,1.646351933479309,-9.300000190734863,-174.90000915527344,-36.30000305175781
1438235,10.617635726928711,19.599349975585938,-4.29347038269043,4.588443756103516,4.123501777648926,-0.35061198472976685,-2.1000001430511475,-172.5,-36.30000305175781
1438255,17.94428825378418,19.599349975585938,-6.2344441413879395,-3.3231918811798096,7.583889961242676,15.914735794067383,-21.30000114440918,-167.70001220703125,-36.900001525878906
1438275,15.465584754943848,19.599349975585938,-5.777462959289551,-0.5182960033416748,-1.600619912147522,-2.332331895828247,-26.100000381469727,-172.5,-37.5
1438341,4.554858684539795,10.134934425354004,-1.7136796712875366,0.5030519962310791,-2.0579400062561035,-11.196718215942383,-6.900000095367432,-167.70001220703125,-34.5
1438421,0.353502482175827,0.11245087534189224,0.5012438297271729,0.4878079891204834,-1.5396440029144287,-1.1509219408035278,12.300000190734863,-177.3000030517578,-35.10000228881836
1438441,0.5939559936523438,0.12261930853128433,0.39955949783325195,0.2972579896450043,-1.067080020904541,-0.9832379817962646,17.100000381469727,-174.90000915527344,-33.30000305175781
1438481,0.10467501729726791,-0.711790144443512,0.7584452629089355,-0.3125019967556,-0.9527499675750732,-1.1204339265823364,24.30000114440918,-174.90000915527344,-33.900001525878906
1438501,-0.03469229117035866,-0.5305528044700623,0.8918311595916748,-0.08384199440479279,-0.9832379817962646,-0.571649968624115,14.700000762939453,-174.90000915527344,-33.900001525878906
1438521,-0.08015115559101105,-0.2781364917755127,0.9109717607498169,-0.4420759975910187,-0.6478700041770935,-0.9451279640197754,17.100000381469727,-172.5,-32.70000076293945
1438541,-0.24404233694076538,-0.9037940502166748,0.8595314621925354,-0.8079319596290588,-0.2743920087814331,-1.699705958366394,24.30000114440918,-177.3000030517578,-34.5
1438565,-0.179442897439003,-1.131088376045227,0.8254373073577881,-0.4192099869251251,-0.2591480016708374,-1.2804960012435913,26.700000762939453,-174.90000915527344,-33.30000305175781
1438586,0.47492551803588867,0.19798532128334045,0.5365342497825623,0.38109999895095825,0.02286599949002266,0.44969800114631653,29.100000381469727,-172.5,-32.70000076293945
1438606,1.8668042421340942,3.6953272819519043,-0.21293890476226807,1.5548880100250244,0.8841519951820374,4.184477806091309,24.30000114440918,-174.90000915527344,-33.900001525878906
1438626,3.8436667919158936,9.540380477905273,-1.3021572828292847,2.339953899383545,2.8201398849487305,11.204339981079102,12.300000190734863,-179.70001220703125,-34.5
1438646,8.117996215820312,17.875503540039062,-2.8603196144104004,-0.9375059604644775,5.686011791229248,17.980297088623047,0.30000001192092896,-177.3000030517578,-36.30000305175781
1438666,12.7835111618042,19.599349975585938,-4.38199520111084,-5.518327713012695,4.100636005401611,11.074766159057617,-16.5,-174.90000915527344,-35.70000076293945
1438686,9.57686710357666,18.663257598876953,-2.920732021331787,1.653973937034607,-0.007621999830007553,-7.972611904144287,-21.30000114440918,-174.90000915527344,-33.900001525878906
1438706,15.427303314208984,19.599349975585938,-6.4635329246521,5.121984004974365,6.250040054321289,9.74091625213623,-11.700000762939453,-170.10000610351562,-35.10000228881836
1438730,18.056142807006836,19.599349975585938,-3.945949077606201,-4.489357948303223,-3.445143938064575,-0.8231759667396545,-30.900001525878906,-170.10000610351562,-37.5
1438750,13.300905227661133,19.598752975463867,-3.3669466972351074,-1.189031958580017,-2.698187828063965,-5.449729919433594,-30.900001525878906,-170.10000610351562,-36.30000305175781
1438773,9.491930961608887,18.397083282470703,-2.9907147884368896,-1.478667974472046,-2.2027578353881836,-5.7698540687561035,-18.900001525878906,-172.5,-37.5
1438793,5.637497425079346,11.966447830200195,-1.9672921895980835,-0.6631140112876892,-4.1387457847595215,-14.336981773376465,-11.700000762939453,-179.70001220703125,-35.70000076293945
1438815,2.540313243865967,5.059691429138184,-0.6346296668052673,2.39330792427063,-5.800342082977295,-18.841583251953125,2.700000047683716,-179.70001220703125,-36.30000305175781
1438835,-0.00239257188513875,-0.921140193939209,0.7458842992782593,1.3109840154647827,-5.099117755889893,-15.64034366607666,14.700000762939453,-172.5,-35.10000228881836
1438858,-0.7524638772010803,-2.8812546730041504,0.8942237496376038,-0.914639949798584,-1.2881180047988892,-6.920775890350342,26.700000762939453,-174.90000915527344,-33.30000305175781
1438879,0.5287584066390991,-0.06459943950176239,0.31103435158729553,0.48018598556518555,-0.02286599949002266,0.46494197845458984,31.500001907348633,-177.3000030517578,-33.900001525878906
1438899,0.712986409664154,0.9067847728729248,0.5580673813819885,0.5945159792900085,0.19054999947547913,0.2134159952402115,31.500001907348633,-177.3000030517578,-34.5
1438960,0.34512850642204285,-0.059814296662807465,0.6268538236618042,-0.33536797761917114,0.3582339882850647,0.19817200303077698,29.100000381469727,-177.3000030517578,-33.30000305175781
1438981,0.10048802196979523,-0.5825912356376648,0.7775858640670776,-0.8079319596290588,0.571649968624115,0.15243999660015106,26.700000762939453,-179.70001220703125,-34.5
1439001,-0.059216152876615524,-0.9654027819633484,0.8266335725784302,-1.0442140102386475,0.7850660085678101,0.2972579896450043,36.30000305175781,-174.90000915527344,-32.10000228881836
1439021,-0.17465774714946747,-0.9761693477630615,0.7979227304458618,-1.2042759656906128,1.242385983467102,0.7012239694595337,29.100000381469727,-177.3000030517578,-33.30000305175781
1439041,0.04665515199303627,-0.5263658165931702,0.5395249724388123,-1.2652519941329956,1.3643379211425781,1.4100699424743652,24.30000114440918,-177.3000030517578,-33.900001525878906
1439065,0.5885726809501648,0.8368020057678223,0.15372274816036224,-0.6783579587936401,1.8902559280395508,2.3475759029388428,31.500001907348633,-182.10000610351562,-34.5
1439085,1.9828439950942993,4.162477016448975,-0.7554545998573303,0.8155539631843567,2.233245849609375,5.14484977722168,24.30000114440918,-179.70001220703125,-35.10000228881836
1439105,2.772392749786377,7.080218315124512,-0.599937379360199,1.1356779336929321,1.9969639778137207,5.929915904998779,17.100000381469727,-184.5,-33.900001525878906
1439145,10.625411987304688,19.599349975585938,-3.559548854827881,-4.992409706115723,5.8613176345825195,17.317184448242188,-4.5,-182.10000610351562,-35.10000228881836
1439207,19.599349975585938,19.595762252807617,-4.21571159362793,-9.519877433776855,4.329296112060547,14.611373901367188,-40.5,-162.90000915527344,-36.900001525878906
1439248,11.667376518249512,19.481515884399414,-2.318402051925659,-1.5929979085922241,-4.222588062286377,-7.423827648162842,-38.10000228881836,-170.10000610351562,-37.5
1439288,4.66790771484375,8.053995132446289,-0.09510473161935806,-0.2743920087814331,-2.8811159133911133,-18.734874725341797,-16.5,-177.3000030517578,-38.10000228881836
1439325,-1.013254165649414,-3.270047664642334,1.0856294631958008,2.240867853164673,-2.538125991821289,-18.14035987854004,12.300000190734863,-179.70001220703125,-36.30000305175781
1439345,-1.5623494386672974,-4.51358699798584,0.49944937229156494,0.38109999895095825,0.8765299916267395,-4.28356409072876,33.900001525878906,-177.3000030517578,-35.10000228881836
1439385,0.36725977063179016,1.8685986995697021,-0.2506219148635864,0.3277460038661957,-0.6021379828453064,2.484771966934204,24.30000114440918,-182.10000610351562,-36.30000305175781
1439405,0.43484994769096375,0.8726906180381775,-0.3517080545425415,-0.9070180058479309,-0.8384199738502502,1.2728739976882935,24.30000114440918,-184.5,-36.30000305175781
1439425,0.43484994769096375,0.7273418307304382,-0.19080761075019836,-1.6920839548110962,-1.6387299299240112,1.577754020690918,21.900001525878906,-179.70001220703125,-35.70000076293945
1439445,0.2356683313846588,-0.7135845422744751,0.02691643312573433,-2.1722700595855713,-2.0655620098114014,0.8079319596290588,17.100000381469727,-177.3000030517578,-35.10000228881836
1439466,-0.032299719750881195,-1.1005830764770508,0.3086417615413666,-1.1128119230270386,-2.080806016921997,0.8917739987373352,12.300000190734863,-177.3000030517578,-36.900001525878906
1439508,0.2117426097393036,-0.7434917092323303,0.6244612336158752,-0.16768398880958557,-1.4024479389190674,0.5564059615135193,12.300000190734863,-179.70001220703125,-36.30000305175781
1439528,0.605918824672699,-0.6651349663734436,0.7739970088005066,0.10670799762010574,-0.914639949798584,0.5945159792900085,12.300000190734863,-177.3000030517578,-36.30000305175781
1439548,1.3488123416900635,0.6890606880187988,0.7165752649307251,0.48018598556518555,-0.04573199898004532,2.0503180027008057,9.90000057220459,-177.3000030517578,-36.30000305175781
1439568,3.2867956161499023,4.400537967681885,-0.011364716105163097,0.5487840175628662,1.4634239673614502,6.844555854797363,9.90000057220459,-174.90000915527344,-37.5
1439628,12.903738021850586,19.599349975585938,-5.715256214141846,-3.9863059520721436,1.600619912147522,18.529081344604492,-35.70000076293945,-172.5,-36.30000305175781
1439668,17.15952491760254,19.599349975585938,-4.631421089172363,4.367405891418457,4.397893905639648,4.649419784545898,-38.10000228881836,-170.10000610351562,-37.5
1439710,16.49738121032715,19.599349975585938,-2.2370548248291016,-2.4619059562683105,-2.042695999145508,-6.867421627044678,-54.900001525878906,-165.3000030517578,-39.30000305175781
1439745,6.557441234588623,12.210490226745605,-0.9043921828269958,-2.530503988265991,-2.599102020263672,-15.495525360107422,-33.30000305175781,-165.3000030517578,-38.10000228881836
1439807,-1.5073202848434448,-4.73370361328125,0.6256575584411621,0.41158798336982727,0.39634400606155396,-7.027483940124512,24.30000114440918,-177.3000030517578,-37.5
1439827,0.10467501729726791,-0.33914706110954285,0.18362988531589508,1.2118979692459106,-0.28201398253440857,1.5853760242462158,26.700000762939453,-179.70001220703125,-36.900001525878906
1439847,1.1011812686920166,2.453582525253296,0.6908551454544067,1.5929979085922241,-1.4024479389190674,2.484771966934204,19.5,-172.5,-36.30000305175781
1439867,1.1849212646484375,1.311727523803711,1.1544159650802612,-1.1661659479141235,0.5564059615135193,-0.6326259970664978,19.5,-182.10000610351562,-35.10000228881836
1439887,0.5245713591575623,-0.22968690097332,0.7686136960983276,-1.9054999351501465,1.2576299905776978,-0.46494197845458984,17.100000381469727,-177.3000030517578,-36.900001525878906
1439910,0.4653552174568176,-0.22191104292869568,0.9163550138473511,-1.371959924697876,1.2042759656906128,0.8384199738502502,19.5,-179.70001220703125,-36.30000305175781
1439932,0.10467501729726791,-0.26437920331954956,0.49944937229156494,-1.8902559280395508,2.03507399559021,0.7164679765701294,19.5,-179.70001220703125,-35.10000228881836
1439952,-0.4079335033893585,-1.0790499448776245,-0.07117900997400284,-1.0975680351257324,1.8369019031524658,-0.5564059615135193,17.100000381469727,-182.10000610351562,-37.5
1439972,-0.356493204832077,-1.8703930377960205,-0.33496007323265076,1.882633924484253,-0.3277460038661957,-0.7621999979019165,21.900001525878906,-182.10000610351562,-36.30000305175781
1439992,0.0017944289138540626,-1.4839926958084106,-0.15312460064888,2.682943820953369,-1.1280559301376343,-0.038109999150037766,24.30000114440918,-177.3000030517578,-36.30000305175781
1440012,1.1532196998596191,1.3978601694107056,-0.3002677857875824,3.8948419094085693,-1.1661659479141235,2.1570260524749756,17.100000381469727,-177.3000030517578,-35.10000228881836
1440032,1.9110667705535889,3.404629707336426,-0.6848737001419067,4.344540119171143,-0.457319974899292,4.222588062286377,17.100000381469727,-179.70001220703125,-35.10000228881836
1440053,4.875463485717773,12.120769500732422,-1.9960031509399414,2.850627899169922,2.439039945602417,11.585439682006836,5.100000381469727,-179.70001220703125,-33.30000305175781
1440074,9.545165061950684,19.51262092590332,-4.566821575164795,-0.7469559907913208,6.989373683929443,17.698284149169922,-14.100000381469727,-172.5,-36.900001525878906
1440094,13.740540504455566,19.544321060180664,-5.638095855712891,-3.864353895187378,4.17685604095459,7.8430376052856445,-23.700000762939453,-170.10000610351562,-35.70000076293945
1440114,12.524516105651855,19.599349975585938,-5.069859981536865,4.596065998077393,-2.3704419136047363,-5.541193962097168,-26.100000381469727,-165.3000030517578,-35.10000228881836
1440134,18.40186882019043,19.598752975463867,-6.4043169021606445,0.8917739987373352,2.1112940311431885,13.696733474731445,-26.100000381469727,-167.70001220703125,-34.5
1440154,18.145862579345703,19.599349975585938,-6.541889667510986,-6.722603797912598,2.134160041809082,2.8811159133911133,-40.5,-170.10000610351562,-33.900001525878906
1440174,11.420343399047852,19.586790084838867,-4.532129287719727,-0.23628199100494385,-6.059489727020264,-12.111357688903809,-33.30000305175781,-170.10000610351562,-36.900001525878906
1440194,6.861298084259033,13.855981826782227,-2.6725027561187744,-0.39634400606155396,-9.207375526428223,-15.015339851379395,-18.900001525878906,-174.90000915527344,-34.5
1440214,2.939274549484253,6.604694843292236,-0.10288058966398239,-2.6753220558166504,-7.629621982574463,-19.977262496948242,0.30000001192092896,-179.70001220703125,-36.30000305175781
1440234,-0.04545886442065239,-0.27275320887565613,0.518589973449707,0.7164679765701294,-5.442107677459717,-18.902559280395508,21.900001525878906,-174.90000915527344,-33.900001525878906
1440254,-0.9570287466049194,-3.1133341789245605,0.9713841676712036,-0.8155539631843567,-3.559473991394043,-8.559505462646484,31.500001907348633,-177.3000030517578,-33.900001525878906
1440274,0.15551717579364777,-0.8356057405471802,0.8619239926338196,-1.1585439443588257,-1.4558019638061523,-0.13719600439071655,31.500001907348633,-172.5,-33.900001525878906
1440294,0.8021097183227539,0.3014640510082245,0.7016217112541199,0.6554920077323914,-0.8917739987373352,0.3277460038661957,33.900001525878906,-182.10000610351562,-33.30000305175781
1440314,0.9510473012924194,0.2601921856403351,0.5784042477607727,1.3109840154647827,-0.038109999150037766,0.8155539631843567,31.500001907348633,-182.10000610351562,-33.900001525878906
1440334,0.9857395887374878,0.7763895988464355,0.356493204832077,1.4024479389190674,0.35061198472976685,1.4558019638061523,33.900001525878906,-177.3000030517578,-32.70000076293945
1440354,0.7668192982673645,0.25361260771751404,0.5658432245254517,1.0975680351257324,0.33536797761917114,0.9756159782409668,33.900001525878906,-177.3000030517578,-34.5
1440375,0.3768300712108612,-0.2488274723291397,0.6412092447280884,0.49542999267578125,0.739333987236023,0.6326259970664978,29.100000381469727,-179.70001220703125,-33.900001525878906
1440395,0.00717771565541625,-0.4163075089454651,0.4755236506462097,0.20579399168491364,1.0061039924621582,0.18292799592018127,26.700000762939453,-177.3000030517578,-33.30000305175781
1440415,-0.20277047157287598,-0.7829691767692566,0.4958605170249939,-0.10670799762010574,0.8307979702949524,-0.4344539940357208,33.900001525878906,-177.3000030517578,-33.900001525878906
1440435,-0.19200389087200165,-1.1544159650802612,0.5209825038909912,-0.4878079891204834,0.7164679765701294,-0.5030519962310791,21.900001525878906,-177.3000030517578,-34.5
1440455,0.2853142023086548,-0.4330555200576782,0.5778061151504517,-0.5030519962310791,0.6936019659042358,0.7088459730148315,26.700000762939453,-177.3000030517578,-31.500001907348633
1440475,1.909272313117981,3.6044094562530518,-0.04426258057355881,0.7621999979019165,2.187514066696167,5.327777862548828,26.700000762939453,-167.70001220703125,-33.900001525878906
1440495,5.286985874176025,11.610552787780762,-1.4588706493377686,-0.08384199440479279,5.259180068969727,14.977230072021484,14.700000762939453,-177.3000030517578,-33.900001525878906
1440519,8.695802688598633,19.41153335571289,-3.1282877922058105,-3.109776020050049,10.929947853088379,18.620546340942383,0.30000001192092896,-177.3000030517578,-34.5
1440539,12.160844802856445,19.544321060180664,-5.337827682495117,-5.015275955200195,5.243936061859131,8.239381790161133,-14.100000381469727,-172.5,-35.10000228881836
1440562,5.829501628875732,12.153667449951172,-2.2938783168792725,4.00154972076416,-1.196653962135315,-7.538157939910889,-2.1000001430511475,-170.10000610351562,-36.30000305175781
1440582,13.494105339050293,19.599349975585938,-4.478296279907227,-2.843005895614624,4.436003684997559,16.227237701416016,-14.100000381469727,-170.10000610351562,-36.900001525878906
1440602,13.34457015991211,19.547311782836914,-3.7724876403808594,-4.7027740478515625,-0.15243999660015106,0.02286599949002266,-18.900001525878906,-174.90000915527344,-35.70000076293945
1440622,7.042535305023193,15.729964256286621,-2.5379207134246826,1.3186060190200806,-4.733262062072754,-16.53973960876465,-11.700000762939453,-172.5,-36.30000305175781
1440644,3.6582424640655518,8.012125015258789,-2.247223138809204,3.1250200271606445,-6.707359790802002,-16.516874313354492,-2.1000001430511475,-179.70001220703125,-35.10000228881836
1440664,0.9857395887374878,4.3861823081970215,-0.39836323261260986,0.5868939757347107,-6.699738025665283,-10.640312194824219,14.700000762939453,-177.3000030517578,-33.900001525878906
1440684,1.6430987119674683,4.687646389007568,-0.4815050959587097,1.2576299905776978,-4.565577983856201,-2.8582499027252197,24.30000114440918,-174.90000915527344,-34.5
1440706,1.8644115924835205,4.4609503746032715,0.30565106868743896,0.49542999267578125,-4.923811912536621,-2.39330792427063,26.700000762939453,-179.70001220703125,-32.70000076293945
1440769,1.8889354467391968,3.914247512817383,0.6334334015846252,-2.3018438816070557,0.8155539631843567,1.3795819282531738,24.30000114440918,-179.70001220703125,-33.30000305175781
1440834,1.7734938859939575,6.503608703613281,-0.30505290627479553,-2.088428020477295,2.583858013153076,1.4862899780273438,24.30000114440918,-179.70001220703125,-35.70000076293945
1440854,1.3781213760375977,6.60888147354126,-0.6316390037536621,-0.8155539631843567,2.03507399559021,0,24.30000114440918,-177.3000030517578,-35.70000076293945
1440874,2.694634199142456,9.060669898986816,-0.7991189956665039,1.3872039318084717,1.3414719104766846,1.189031958580017,19.5,-182.10000610351562,-33.30000305175781
1440898,5.3874735832214355,14.393712043762207,-1.1502289772033691,1.0747020244598389,3.2698378562927246,3.2698378562927246,12.300000190734863,-172.5,-36.30000305175781
1440918,7.035955905914307,16.498577117919922,-2.3824033737182617,0.6631140112876892,5.030519962310791,1.4939119815826416,14.700000762939453,-177.3000030517578,-36.30000305175781
1440938,5.652451038360596,14.28664493560791,-2.894413948059082,3.361301898956299,2.39330792427063,-4.382649898529053,17.100000381469727,-182.10000610351562,-35.10000228881836
1440958,3.945949077606201,11.102729797363281,-2.2645692825317383,4.10825777053833,0.114329993724823,-5.39637565612793,14.700000762939453,-179.70001220703125,-34.5
1440978,2.322589159011841,8.55583667755127,-1.643696904182434,4.367405891418457,-0.9756159782409668,-6.013757705688477,19.5,-177.3000030517578,-32.70000076293945
1440998,2.060004472732544,7.672379970550537,-1.1580047607421875,3.3765459060668945,-0.6097599864006042,-4.093013763427734,26.700000762939453,-182.10000610351562,-31.500001907348633
1441018,2.617473602294922,8.120986938476562,-1.2142301797866821,2.1189160346984863,0.22103799879550934,-2.850627899169922,31.500001907348633,-172.5,-31.500001907348633
1441038,2.506817102432251,7.36194372177124,-1.2698575258255005,0.967993974685669,0.6402480006217957,-4.032037734985352,33.900001525878906,-172.5,-31.500001907348633
1441058,2.9614057540893555,6.800287246704102,-1.432552456855774,0.7469559907913208,0.5259180068969727,-3.8948419094085693,36.30000305175781,-177.3000030517578,-30.900001525878906
1441078,3.261075496673584,6.4073076248168945,-1.6018269062042236,0.342989981174469,0.5564059615135193,-2.888737916946411,38.70000076293945,-182.10000610351562,-30.900001525878906
1441098,3.9130513668060303,6.87086820602417,-1.9780588150024414,0.44969800114631653,0.6250039935112,-0.9832379817962646,38.70000076293945,-174.90000915527344,-28.500001907348633
1441118,4.4938483238220215,8.025283813476562,-2.2436342239379883,0.7164679765701294,0.39634400606155396,0.4878079891204834,43.5,-177.3000030517578,-31.500001907348633
1441138,5.118907451629639,8.69340991973877,-2.754448413848877,0.7774440050125122,0.8612859845161438,1.0365920066833496,43.5,-174.90000915527344,-31.500001907348633
1441162,5.9066619873046875,9.444079399108887,-3.1067545413970947,1.1356779336929321,0.4725639820098877,1.7301939725875854,38.70000076293945,-172.5,-30.900001525878906
1441182,6.319978713989258,9.584643363952637,-3.0720622539520264,0.3048799932003021,0.06859800219535828,1.935987949371338,38.70000076293945,-179.70001220703125,-29.700000762939453
1441202,5.937167167663574,8.954200744628906,-3.148026466369629,-0.9070180058479309,0.49542999267578125,2.225623846054077,36.30000305175781,-170.10000610351562,-30.900001525878906
1441222,5.644077301025391,9.11868953704834,-3.162980079650879,-1.5396440029144287,0.20579399168491364,2.6753220558166504,29.100000381469727,-172.5,-29.100000381469727
1441282,4.515381336212158,7.976834774017334,-2.396160840988159,-1.9054999351501465,-0.35061198472976685,-0.22103799879550934,29.100000381469727,-179.70001220703125,-29.700000762939453
1441304,4.17982292175293,7.247100353240967,-2.0707709789276123,-2.431417942047119,-0.038109999150037766,-1.196653962135315,33.900001525878906,-177.3000030517578,-32.10000228881836
1441324,3.9573140144348145,6.7978949546813965,-1.9541330337524414,-2.378063917160034,0.39634400606155396,-1.3643379211425781,29.100000381469727,-174.90000915527344,-31.500001907348633
1441365,4.057203769683838,7.14481782913208,-1.9110667705535889,-2.4619059562683105,0.9984819889068604,0.038109999150037766,29.100000381469727,-174.90000915527344,-30.900001525878906
1441385,3.8610129356384277,7.442692756652832,-2.0073678493499756,-2.1036720275878906,1.0518360137939453,0.6554920077323914,31.500001907348633,-179.70001220703125,-32.10000228881836
1441405,3.7066919803619385,7.934964656829834,-2.1826236248016357,-1.3414719104766846,0.7698220014572144,0.7317119836807251,29.100000381469727,-170.10000610351562,-33.900001525878906
1441425,4.139149188995361,9.3477783203125,-2.533135414123535,-0.16768398880958557,0.3125019967556,0.9756159782409668,31.500001907348633,-177.3000030517578,-34.5
1441445,4.216907978057861,9.893882751464844,-2.5821831226348877,-0.007621999830007553,-0.1295740008354187,0.7469559907913208,24.30000114440918,-182.10000610351562,-35.70000076293945
1441485,4.647571086883545,11.400605201721191,-2.3004579544067383,2.0960500240325928,-2.5686140060424805,0.3277460038661957,41.10000228881836,-172.5,-33.30000305175781
1441508,3.7509546279907227,10.161252975463867,-1.4935630559921265,0.3201240003108978,-2.179892063140869,-2.7286758422851562,24.30000114440918,-172.5,-35.10000228881836
1441548,3.257486581802368,9.51406192779541,-0.9289160370826721,0.4039659798145294,-2.7591638565063477,-1.8216580152511597,36.30000305175781,-177.3000030517578,-33.900001525878906
1441568,2.745476245880127,9.2281494140625,-0.9390844702720642,-0.9451279640197754,-1.7301939725875854,-2.1036720275878906,38.70000076293945,-174.90000915527344,-33.30000305175781
1441588,2.4212827682495117,8.813636779785156,-0.8816627264022827,-0.853663980960846,-1.6920839548110962,-2.0579400062561035,43.5,-177.3000030517578,-33.30000305175781
1441608,2.0223214626312256,8.303421020507812,-0.9827489256858826,-1.1356779336929321,-1.417691946029663,-1.5853760242462158,41.10000228881836,-179.70001220703125,-31.500001907348633
1441669,0.7985208630561829,8.777748107910156,-1.226791262626648,-0.9908599853515625,-1.7225719690322876,0.5868939757347107,36.30000305175781,-182.10000610351562,-33.30000305175781
1441689,0.8254373073577881,10.436996459960938,-1.520479440689087,-0.7621999979019165,-1.707327961921692,0.33536797761917114,36.30000305175781,-179.70001220703125,-32.70000076293945
1441712,0.9139624834060669,11.649432182312012,-2.0402655601501465,-0.7774440050125122,-1.7454379796981812,-1.3795819282531738,43.5,-182.10000610351562,-32.10000228881836
1441732,0.08134744316339493,10.486642837524414,-2.324981689453125,0.28201398253440857,-1.7911700010299683,-4.314052104949951,45.900001525878906,-179.70001220703125,-33.30000305175781
1441754,0.33914706110954285,10.387351036071777,-2.0229194164276123,2.378063917160034,-3.1402640342712402,-4.237832069396973,45.900001525878906,-179.70001220703125,-33.30000305175781
1441775,0.4815050959587097,9.985398292541504,-1.7758865356445312,1.9054999351501465,-2.4695279598236084,-4.237832069396973,55.500003814697266,-179.70001220703125,-31.500001907348633
1441795,0.19020946323871613,9.421948432922363,-1.735212802886963,1.7987920045852661,-1.6768399477005005,-3.902463912963867,50.70000076293945,-174.90000915527344,-32.70000076293945
1441819,0.3618764877319336,9.42852783203125,-2.000190019607544,1.5472660064697266,-0.9070180058479309,-2.835383892059326,60.30000305175781,-177.3000030517578,-30.900001525878906
1441839,0.3768300712108612,9.209009170532227,-1.8865429162979126,1.4100699424743652,-0.914639949798584,-2.3628199100494385,69.9000015258789,-172.5,-31.500001907348633
1441859,0.35230621695518494,8.447572708129883,-1.8895336389541626,1.4405579566955566,-0.7774440050125122,-2.0198299884796143,65.10000610351562,-179.70001220703125,-29.700000762939453
1441879,0.7309306859970093,8.650941848754883,-1.6550616025924683,1.5472660064697266,-1.295740008354187,-1.0365920066833496,67.5,-179.70001220703125,-30.30000114440918
1441899,1.0623018741607666,8.82380485534668,-1.515694260597229,1.3948259353637695,-1.196653962135315,-1.0365920066833496,67.5,-177.3000030517578,-29.100000381469727
1441919,1.5300496816635132,9.179101943969727,-1.4798057079315186,1.4939119815826416,-1.2728739976882935,-0.9832379817962646,69.9000015258789,-167.70001220703125,-30.30000114440918
1441939,1.4331505298614502,8.583352088928223,-1.4672447443008423,1.013725996017456,-0.8307979702949524,-1.5167779922485352,65.10000610351562,-177.3000030517578,-28.500001907348633
1441959,1.758540391921997,8.918910026550293,-1.5192831754684448,1.5396440029144287,-0.9756159782409668,-1.1737879514694214,77.10000610351562,-172.5,-29.700000762939453
1441979,1.9828439950942993,9.40639591217041,-1.606611967086792,1.3490939140319824,-0.6021379828453064,-1.3186060190200806,74.70000457763672,-172.5,-30.30000114440918
1441999,1.7920362949371338,9.066651344299316,-1.8022047281265259,0.6250039935112,-0.12195199728012085,-1.8673899173736572,69.9000015258789,-170.10000610351562,-30.30000114440918
1442022,1.9325999021530151,9.26702880859375,-1.8805614709854126,0.9298839569091797,-0.20579399168491364,-2.5000159740448,77.10000610351562,-167.70001220703125,-29.100000381469727
1442042,1.9648996591567993,9.110913276672363,-1.9529367685317993,0.7469559907913208,0.015243999660015106,-3.353679895401001,81.9000015258789,-172.5,-28.500001907348633
1442082,2.104266881942749,8.510976791381836,-1.84347665309906,1.1356779336929321,-0.06859800219535828,-4.367405891418457,84.30000305175781,-172.5,-29.700000762939453
1442102,2.0037789344787598,8.077920913696289,-1.9834420680999756,0.8689079880714417,0.5030519962310791,-4.664663791656494,91.5,-167.70001220703125,-29.100000381469727
1442142,1.7633254528045654,7.431328296661377,-2.825029134750366,1.196653962135315,1.3490939140319824,-3.506119966506958,93.9000015258789,-167.70001220703125,-27.30000114440918
1442204,2.355487108230591,10.059568405151367,-5.467624664306641,2.4237959384918213,2.637212038040161,-4.657042026519775,101.10000610351562,-165.3000030517578,-26.100000381469727
1442224,2.0767524242401123,8.589333534240723,-5.992794513702393,4.992409706115723,0.9451279640197754,-5.312533855438232,105.9000015258789,-165.3000030517578,-23.700000762939453
1442244,2.5289485454559326,10.121177673339844,-5.059093475341797,4.375028133392334,-2.3628199100494385,-2.4542839527130127,115.50000762939453,-162.90000915527344,-23.100000381469727
1442264,2.727531909942627,10.487838745117188,-4.76959228515625,2.0198299884796143,-0.510673999786377,-3.239349842071533,113.10000610351562,-160.5,-23.700000762939453
1442284,2.134772300720215,8.824402809143066,-4.782751083374023,0.800309956073761,-0.5564059615135193,-4.07014799118042,113.10000610351562,-162.90000915527344,-23.700000762939453
1442304,1.9499460458755493,7.8649821281433105,-4.146327018737793,0.6631140112876892,-1.9588539600372314,-3.3155698776245117,117.9000015258789,-155.70001220703125,-21.30000114440918
1442328,2.160492420196533,8.034854888916016,-3.3340489864349365,-0.2972579896450043,-2.2484898567199707,-1.707327961921692,117.9000015258789,-160.5,-20.700000762939453
1442348,2.0964910984039307,8.187978744506836,-3.034977436065674,-2.225623846054077,-1.1128119230270386,-1.3262280225753784,122.70000457763672,-160.5,-24.30000114440918
1442368,2.1921939849853516,8.083902359008789,-2.954228162765503,-2.2637338638305664,-1.0518360137939453,-1.1356779336929321,125.10000610351562,-155.70001220703125,-22.5
1442428,2.361468553543091,8.149698257446289,-2.217315912246704,-1.3109840154647827,-0.8155539631843567,0.19054999947547913,125.10000610351562,-155.70001220703125,-24.30000114440918
1442448,2.411712408065796,8.146707534790039,-2.23286771774292,-1.2042759656906128,-0.5792719721794128,0.1448179930448532,122.70000457763672,-155.70001220703125,-26.700000762939453
1442468,2.3800108432769775,8.224466323852539,-2.3207948207855225,-0.8689079880714417,-0.1295740008354187,0.18292799592018127,122.70000457763672,-162.90000915527344,-26.100000381469727
1442508,2.6719045639038086,9.988987922668457,-2.6635305881500244,0.3887220025062561,-0.060975998640060425,0.7164679765701294,127.50000762939453,-158.10000610351562,-24.30000114440918
1442529,1.6849687099456787,9.569090843200684,-2.859123468399048,-0.8307979702949524,0.18292799592018127,-1.3490939140319824,127.50000762939453,-158.10000610351562,-26.100000381469727
1442549,1.618574857711792,9.47817325592041,-3.0086591243743896,-0.5335400104522705,-0.05335399881005287,-1.1737879514694214,122.70000457763672,-162.90000915527344,-26.700000762939453
1442571,0.6860699653625488,9.512866020202637,-2.8274219036102295,-0.22103799879550934,-0.9908599853515625,-1.2042759656906128,129.90000915527344,-155.70001220703125,-26.100000381469727
1442591,0.16807816922664642,9.25506591796875,-2.6778860092163086,-0.19054999947547913,-0.6554920077323914,-0.5182960033416748,129.90000915527344,-158.10000610351562,-26.100000381469727
1442611,-0.5796005129814148,10.001548767089844,-2.5773980617523193,-0.09146399796009064,-0.33536797761917114,-0.060975998640060425,122.70000457763672,-160.5,-24.30000114440918
1442633,-1.1083589792251587,10.28805923461914,-2.7203543186187744,-0.5487840175628662,0.38109999895095825,-0.39634400606155396,120.30000305175781,-155.70001220703125,-23.700000762939453
1442653,-1.743586778640747,9.901061058044434,-2.820244073867798,-0.8689079880714417,0.9451279640197754,-0.9222619533538818,125.10000610351562,-158.10000610351562,-25.500001907348633
1442675,-1.8823559284210205,9.786815643310547,-3.0002851486206055,-0.8155539631843567,0.853663980960846,-0.7621999979019165,129.90000915527344,-162.90000915527344,-24.900001525878906
1442695,-2.2795228958129883,9.326245307922363,-2.9141526222229004,-0.457319974899292,0.3048799932003021,-1.0289700031280518,134.70001220703125,-160.5,-24.900001525878906
1442715,-2.4936580657958984,8.80885124206543,-2.9045822620391846,-0.3201240003108978,0.007621999830007553,-1.2118979692459106,127.50000762939453,-155.70001220703125,-25.500001907348633
1442735,-2.4781062602996826,8.33272933959961,-2.9500410556793213,0.23628199100494385,-0.5030519962310791,-1.0289700031280518,132.3000030517578,-155.70001220703125,-25.500001907348633
1442755,-2.2819154262542725,8.58694076538086,-2.646782636642456,0.8612859845161438,-1.1204339265823364,-0.6173819899559021,132.3000030517578,-155.70001220703125,-24.900001525878906
1442775,-2.1975772380828857,9.025379180908203,-2.787346363067627,0.8384199738502502,-0.853663980960846,-1.1509219408035278,132.3000030517578,-155.70001220703125,-24.900001525878906
1442815,-2.5295467376708984,8.277700424194336,-3.1611855030059814,1.1585439443588257,-1.242385983467102,-1.4939119815826416,137.10000610351562,-150.90000915527344,-26.100000381469727
1442838,-2.1975772380828857,8.228652954101562,-2.9578170776367188,0.8460419774055481,-1.600619912147522,-1.021347999572754,134.70001220703125,-150.90000915527344,-24.30000114440918
1442858,-1.3302699327468872,9.50927734375,-2.939274549484253,1.0442140102386475,-1.753059983253479,-0.1600620001554489,137.10000610351562,-160.5,-24.900001525878906
1442878,-1.4032434225082397,8.554640769958496,-2.929704189300537,0.1295740008354187,-1.0899460315704346,-1.3567159175872803,139.5,-150.90000915527344,-23.700000762939453
1442940,-0.6669294238090515,9.123475074768066,-3.1635782718658447,0.5182960033416748,0.20579399168491364,-0.7469559907913208,137.10000610351562,-148.5,-24.30000114440918
1442990,-0.4707385301589966,8.443984031677246,-3.3555819988250732,0.19817200303077698,1.3338500261306763,-2.294221878051758,139.5,-150.90000915527344,-23.700000762939453
1443030,-0.44202765822410583,8.40450668334961,-3.7545435428619385,-0.5640279650688171,2.987823963165283,-2.4237959384918213,144.3000030517578,-148.5,-23.700000762939453
1443246,0.8284280300140381,8.162259101867676,-3.7270288467407227,-0.28201398253440857,0.26677000522613525,-1.4939119815826416,163.5,-138.90000915527344,-21.30000114440918
1443344,-0.1088620200753212,9.727599143981934,-3.0248091220855713,-1.6311079263687134,0.09146399796009064,0.457319974899292,168.3000030517578,-141.3000030517578,-22.5
1443365,-1.1615936756134033,10.298227310180664,-2.7317190170288086,-1.653973937034607,-0.007621999830007553,-0.48018598556518555,163.5,-134.10000610351562,-20.700000762939453
1443406,-2.7520558834075928,9.017603874206543,-2.2579896450042725,-1.2881180047988892,0.6402480006217957,-1.7683039903640747,168.3000030517578,-141.3000030517578,-23.700000762939453
1443428,-3.401041030883789,8.85072135925293,-3.0158369541168213,-0.9070180058479309,1.6082419157028198,-1.8902559280395508,170.70001220703125,-138.90000915527344,-23.700000762939453
1443448,-3.627139091491699,9.139026641845703,-3.782656192779541,0.12195199728012085,0.8765299916267395,-1.2652519941329956,168.3000030517578,-138.90000915527344,-23.100000381469727
1443468,-3.317898988723755,9.19943904876709,-3.546389579772949,0.5411620140075684,-0.8841519951820374,-1.0899460315704346,170.70001220703125,-141.3000030517578,-22.5
1443531,-2.2603821754455566,9.212597846984863,-3.8077781200408936,0.9756159782409668,-1.9512319564819336,0.7088459730148315,170.70001220703125,-138.90000915527344,-22.5
1443551,-2.086920738220215,8.78791618347168,-3.6534571647644043,0.18292799592018127,-1.2195199728012085,0.3277460038661957,173.10000610351562,-141.3000030517578,-22.5
1443572,-1.9888253211975098,8.440993309020996,-3.46384596824646,-0.28201398253440857,-1.0594580173492432,0.5259180068969727,170.70001220703125,-141.3000030517578,-23.100000381469727
1443592,-1.6867631673812866,8.333328247070312,-3.344217300415039,-0.3887220025062561,-0.685979962348938,1.1356779336929321,170.70001220703125,-136.5,-21.30000114440918
1443614,-1.3422328233718872,9.032556533813477,-3.4118075370788574,-0.09146399796009064,-0.09908600151538849,1.6234859228134155,161.10000610351562,-136.5,-22.5
1443634,-1.0957978963851929,9.29514217376709,-3.302347421646118,-0.04573199898004532,-0.3582339882850647,0.7469559907913208,175.5,-136.5,-21.900001525878906
1443656,-0.9354956150054932,8.83098316192627,-3.1552040576934814,-0.22103799879550934,-0.25152599811553955,0.007621999830007553,168.3000030517578,-143.70001220703125,-21.30000114440918
1443676,-0.9289160370826721,8.559426307678223,-3.1665689945220947,-0.2591480016708374,0.06859800219535828,-0.44969800114631653,168.3000030517578,-134.10000610351562,-21.30000114440918
1443698,-0.9480566382408142,8.754420280456543,-3.344815492630005,-0.1448179930448532,0.228659987449646,-0.44969800114631653,170.70001220703125,-136.5,-23.100000381469727
1443718,-0.8840553164482117,8.754420280456543,-3.3998446464538574,-0.09146399796009064,0.228659987449646,-0.7088459730148315,168.3000030517578,-136.5,-23.100000381469727
1443741,-0.6968365907669067,9.255663871765137,-3.4243686199188232,0.16768398880958557,0.3201240003108978,-0.6936019659042358,173.10000610351562,-138.90000915527344,-21.900001525878906
1443761,-0.9929173588752747,8.71135425567627,-3.4895660877227783,-0.19817200303077698,0.5259180068969727,-1.3033620119094849,170.70001220703125,-141.3000030517578,-22.5
1443844,-3.4267611503601074,8.75501823425293,-4.685254096984863,-0.28201398253440857,0.739333987236023,0.8231759667396545,168.3000030517578,-138.90000915527344,-21.900001525878906
1443881,-6.936065673828125,8.040836334228516,-4.785741806030273,-1.3033620119094849,2.3018438816070557,0.19054999947547913,173.10000610351562,-136.5,-21.900001525878906
1443901,-7.336223602294922,9.448864936828613,-6.87984037399292,0.8079319596290588,6.3719916343688965,1.753059983253479,173.10000610351562,-134.10000610351562,-21.30000114440918
1443961,-6.96956205368042,9.74135684967041,-5.415586471557617,-1.8445239067077637,-0.3048799932003021,1.8902559280395508,168.3000030517578,-143.70001220703125,-23.100000381469727
1444000,-5.637497425079346,6.6902289390563965,-4.286292552947998,-1.7683039903640747,-0.02286599949002266,0.6097599864006042,158.70001220703125,-143.70001220703125,-21.30000114440918
1444020,-4.803088188171387,6.159078121185303,-3.67798113822937,-1.1585439443588257,-0.3125019967556,1.4100699424743652,161.10000610351562,-143.70001220703125,-22.5
1444063,-2.0217232704162598,5.157786846160889,-2.0109567642211914,0.1295740008354187,-2.14178204536438,1.9512319564819336,153.90000915527344,-153.3000030517578,-23.700000762939453
1444083,-0.7512675523757935,5.518466949462891,-1.3984582424163818,-0.114329993724823,-2.0122079849243164,2.4771499633789062,153.90000915527344,-143.70001220703125,-25.500001907348633
1444103,0.7315288782119751,5.2564802169799805,-1.3691492080688477,-0.914639949798584,-1.013725996017456,2.3170878887176514,144.3000030517578,-146.10000610351562,-23.100000381469727
1444126,2.3447203636169434,5.551962852478027,-0.91874760389328,-0.7926880121231079,-0.7088459730148315,4.260697841644287,146.70001220703125,-148.5,-23.700000762939453
1444146,3.6414945125579834,7.11790132522583,-0.9468603134155273,-1.6158639192581177,0.8917739987373352,6.158576011657715,141.90000915527344,-150.90000915527344,-23.700000762939453
1444166,4.8838372230529785,8.293251991271973,-1.4875816106796265,-1.9893419742584229,2.682943820953369,7.118947982788086,134.70001220703125,-153.3000030517578,-23.100000381469727
1444186,5.653647422790527,8.704176902770996,-1.430757999420166,-2.027451992034912,3.0106899738311768,7.309497833251953,129.90000915527344,-155.70001220703125,-22.5
1444206,6.700995922088623,9.98121166229248,-1.536629319190979,-2.4161739349365234,3.0792880058288574,8.300357818603516,120.30000305175781,-160.5,-23.100000381469727
1444226,6.303828716278076,10.056577682495117,-2.0516304969787598,-2.0045859813690186,3.8948419094085693,6.1204657554626465,115.50000762939453,-162.90000915527344,-23.100000381469727
1444250,7.157378673553467,10.757002830505371,-2.864506721496582,-0.2591480016708374,2.6677000522613525,4.39027214050293,110.70000457763672,-160.5,-24.30000114440918
1444271,7.16276216506958,12.196733474731445,-3.3789095878601074,-0.02286599949002266,1.6082419157028198,3.506119966506958,101.10000610351562,-162.90000915527344,-25.500001907348633
1444291,6.504206657409668,11.746331214904785,-3.9686787128448486,0.08384199440479279,0.8384199738502502,0.3582339882850647,101.10000610351562,-170.10000610351562,-24.900001525878906
1444311,6.714753150939941,11.083589553833008,-4.000978469848633,1.2271419763565063,-0.6631140112876892,-0.7850660085678101,98.70000457763672,-167.70001220703125,-24.30000114440918
1444331,6.640583038330078,11.027961730957031,-3.892714500427246,0.853663980960846,-1.371959924697876,0.19054999947547913,103.50000762939453,-165.3000030517578,-24.900001525878906
1444351,6.467720031738281,12.291239738464355,-3.756337881088257,0.342989981174469,-1.8216580152511597,0.8079319596290588,101.10000610351562,-167.70001220703125,-24.30000114440918
1444372,6.212911128997803,11.922783851623535,-3.4949493408203125,-0.4039659798145294,-1.295740008354187,-1.1128119230270386,105.9000015258789,-162.90000915527344,-23.700000762939453
1444392,6.084908485412598,10.648140907287598,-2.939274549484253,-1.0289700031280518,-1.646351933479309,-2.0122079849243164,105.9000015258789,-162.90000915527344,-21.900001525878906
1444412,6.301436424255371,9.887901306152344,-1.9756662845611572,-1.0365920066833496,-0.8765299916267395,-0.739333987236023,105.9000015258789,-160.5,-22.5
1444433,5.691330432891846,10.445968627929688,-1.8560376167297363,-2.599102020263672,0.6783579587936401,0.20579399168491364,101.10000610351562,-155.70001220703125,-23.700000762939453
1444453,4.935277462005615,10.242600440979004,-2.280719041824341,-2.179892063140869,1.0975680351257324,-1.577754020690918,103.50000762939453,-160.5,-24.900001525878906
1444473,4.424463748931885,9.257458686828613,-1.9774606227874756,-1.1280559301376343,0.17530599236488342,-3.658559799194336,105.9000015258789,-160.5,-24.30000114440918
1444494,4.128981113433838,8.719130516052246,-1.4816001653671265,-0.5030519962310791,-1.021347999572754,-3.8262438774108887,113.10000610351562,-160.5,-24.900001525878906
1444514,3.4835846424102783,8.18738079071045,-1.0539278984069824,-0.48018598556518555,-1.1280559301376343,-3.5747179985046387,115.50000762939453,-162.90000915527344,-25.500001907348633
1444536,2.879460334777832,7.961282730102539,-1.0951998233795166,-0.038109999150037766,-0.8307979702949524,-3.4375219345092773,117.9000015258789,-150.90000915527344,-24.900001525878906
1444576,1.6891556978225708,7.683744430541992,-1.515694260597229,0.5945159792900085,-0.7621999979019165,-4.016793727874756,129.90000915527344,-158.10000610351562,-24.30000114440918
1444608,0.09689915925264359,6.965972900390625,-2.068378448486328,1.2042759656906128,-0.9603719711303711,-3.612828016281128,134.70001220703125,-153.3000030517578,-25.500001907348633
1444648,-0.4575793743133545,7.146014213562012,-2.589959144592285,1.1356779336929321,-1.4100699424743652,-2.843005895614624,139.5,-150.90000915527344,-24.30000114440918
1444668,-0.9713841676712036,6.801483631134033,-2.2705507278442383,0.342989981174469,-1.3643379211425781,-2.3551979064941406,146.70001220703125,-153.3000030517578,-23.700000762939453
1444692,-1.619771122932434,6.723725318908691,-2.7203543186187744,-0.060975998640060425,-0.09146399796009064,-1.653973937034607,139.5,-153.3000030517578,-27.30000114440918
1444732,-2.0492377281188965,7.759110450744629,-2.8956100940704346,-0.4725639820098877,0.2896359860897064,-0.7850660085678101,146.70001220703125,-148.5,-24.30000114440918
1444784,-3.4943511486053467,8.408095359802246,-4.237843036651611,-0.007621999830007553,1.2881180047988892,-0.4192099869251251,146.70001220703125,-150.90000915527344,-25.500001907348633
1444804,-3.746767520904541,8.82978630065918,-4.225281715393066,0.23628199100494385,0.967993974685669,-1.1280559301376343,151.5,-146.10000610351562,-23.700000762939453
1444847,-4.039259433746338,10.014707565307617,-4.854528427124023,0.5487840175628662,1.2652519941329956,-2.0503180027008057,144.3000030517578,-148.5,-23.700000762939453
1444887,-3.9603044986724854,9.75212287902832,-4.821630477905273,1.1509219408035278,0.7850660085678101,-1.7987920045852661,153.90000915527344,-143.70001220703125,-21.900001525878906
1444907,-3.8071799278259277,9.575072288513184,-4.849743366241455,0.46494197845458984,0.7850660085678101,-1.3109840154647827,144.3000030517578,-146.10000610351562,-21.900001525878906
1444931,-3.2921788692474365,9.244897842407227,-4.825817584991455,0.2591480016708374,0.5030519962310791,-0.8155539631843567,151.5,-143.70001220703125,-21.900001525878906
1444971,-2.140753746032715,9.207813262939453,-4.421473026275635,-0.18292799592018127,-0.342989981174469,-0.6173819899559021,161.10000610351562,-141.3000030517578,-21.30000114440918
1444991,-1.5832844972610474,9.034351348876953,-4.071559429168701,-0.4878079891204834,-0.8765299916267395,-0.5640279650688171,153.90000915527344,-148.5,-21.900001525878906
1445012,-1.1980804204940796,8.706568717956543,-3.7569360733032227,-1.013725996017456,-0.853663980960846,-0.342989981174469,158.70001220703125,-143.70001220703125,-21.900001525878906
1445032,-0.8206521272659302,8.701186180114746,-3.6911401748657227,-1.2728739976882935,-0.49542999267578125,-0.05335399881005287,151.5,-148.5,-22.5
1445092,0.050842151045799255,8.809450149536133,-3.069669723510742,-1.1128119230270386,0.20579399168491364,0.10670799762010574,153.90000915527344,-143.70001220703125,-23.100000381469727
1445112,-0.09151587635278702,8.474489212036133,-3.037968158721924,-1.0823240280151367,0.6326259970664978,-0.1600620001554489,153.90000915527344,-143.70001220703125,-23.700000762939453
1445132,-0.08732887357473373,8.741859436035156,-3.058903217315674,-0.5868939757347107,0.6402480006217957,-0.060975998640060425,158.70001220703125,-143.70001220703125,-24.30000114440918
1445154,-0.2428460419178009,8.484658241271973,-3.0325849056243896,-0.5182960033416748,0.5335400104522705,-0.3887220025062561,149.10000610351562,-148.5,-22.5
1445194,-0.17166703939437866,8.85789966583252,-3.111539840698242,-0.08384199440479279,0.4725639820098877,-0.571649968624115,161.10000610351562,-148.5,-23.700000762939453
1445216,-0.30086591839790344,8.902759552001953,-3.261075496673584,0.1600620001554489,0.41158798336982727,-0.6707359552383423,149.10000610351562,-148.5,-23.100000381469727
1445236,-0.5562729835510254,8.908143043518066,-3.392068862915039,0.3048799932003021,0.36585599184036255,-0.7621999979019165,156.3000030517578,-143.70001220703125,-24.30000114440918
1445256,-0.7452861666679382,8.85789966583252,-3.5990262031555176,0.25152599811553955,0.228659987449646,-0.7164679765701294,156.3000030517578,-143.70001220703125,-23.700000762939453
1445276,-0.6741071343421936,8.790308952331543,-3.5045197010040283,0.33536797761917114,-0.16768398880958557,-0.457319974899292,165.90000915527344,-146.10000610351562,-22.5
1445300,-0.7662211656570435,8.79987907409668,-3.5105011463165283,0.18292799592018127,-0.1600620001554489,-0.2972579896450043,161.10000610351562,-141.3000030517578,-22.5
1445320,-0.9606176018714905,8.720924377441406,-3.6014187335968018,0.02286599949002266,0.007621999830007553,-0.2743920087814331,158.70001220703125,-146.10000610351562,-24.900001525878906
1445342,-1.437935709953308,9.115100860595703,-3.8406760692596436,-0.09908600151538849,0.1448179930448532,-0.06859800219535828,151.5,-138.90000915527344,-21.900001525878906
1445362,-2.050434112548828,8.405104637145996,-4.065577983856201,-0.6631140112876892,0.19054999947547913,-0.5792719721794128,156.3000030517578,-143.70001220703125,-23.100000381469727
1445382,-3.433340549468994,9.27420711517334,-4.356873512268066,-0.41158798336982727,0.060975998640060425,0.739333987236023,156.3000030517578,-141.3000030517578,-23.100000381469727
1445402,-3.8562276363372803,9.381872177124023,-4.332947731018066,-0.7774440050125122,0.1295740008354187,0.5868939757347107,149.10000610351562,-143.70001220703125,-22.5
1445422,-5.2654523849487305,9.932762145996094,-4.68585205078125,-1.5929979085922241,1.3414719104766846,0.3277460038661957,151.5,-141.3000030517578,-22.5
1445443,-6.2045369148254395,9.75631046295166,-4.93587589263916,-1.6692179441452026,2.2637338638305664,-0.3277460038661957,151.5,-143.70001220703125,-24.30000114440918
1445463,-7.165154457092285,9.914219856262207,-6.086104869842529,-0.6554920077323914,3.254593849182129,0.35061198472976685,153.90000915527344,-143.70001220703125,-21.30000114440918
1445487,-7.26624059677124,11.143404006958008,-5.749948501586914,-1.9588539600372314,-0.6783579587936401,1.9207439422607422,153.90000915527344,-148.5,-23.100000381469727
1445507,-6.7859320640563965,9.66060733795166,-4.84914493560791,-1.829279899597168,-0.853663980960846,0.16768398880958557,156.3000030517578,-148.5,-21.900001525878906
1445530,-6.046029090881348,8.218484878540039,-4.350892066955566,-1.0365920066833496,-0.9375059604644775,-0.6326259970664978,151.5,-150.90000915527344,-23.100000381469727
1445550,-4.8658928871154785,5.878549098968506,-3.3244786262512207,-0.09146399796009064,-0.7621999979019165,-1.14329993724823,156.3000030517578,-150.90000915527344,-23.100000381469727
1445570,-4.306031227111816,5.419175148010254,-2.9943037033081055,0.2134159952402115,-0.4192099869251251,-0.6250039935112,153.90000915527344,-153.3000030517578,-23.700000762939453
1445590,-3.138456106185913,5.257078647613525,-2.530144691467285,0.35061198472976685,0.228659987449646,0.9298839569091797,153.90000915527344,-148.5,-23.700000762939453
1445610,-2.42606782913208,5.13804817199707,-2.3530943393707275,0.2134159952402115,0.9070180058479309,1.753059983253479,149.10000610351562,-153.3000030517578,-23.700000762939453
1445630,-1.2590909004211426,5.111729621887207,-2.1539127826690674,0.05335399881005287,0.9908599853515625,2.5152599811553955,158.70001220703125,-148.5,-22.5
1445652,0.09809544682502747,5.634506702423096,-1.5575642585754395,-0.7317119836807251,0.28201398253440857,4.115880012512207,146.70001220703125,-150.90000915527344,-22.5
1445672,1.1286958456039429,5.797201633453369,-1.3033535480499268,-2.385685920715332,1.2118979692459106,4.939055919647217,141.90000915527344,-150.90000915527344,-23.700000762939453
1445694,2.7646167278289795,6.793707847595215,-1.6383136510849,-2.126538038253784,2.179892063140869,7.3399858474731445,134.70001220703125,-153.3000030517578,-23.100000381469727
1445734,5.222984313964844,8.881226539611816,-1.1633881330490112,-3.2774598598480225,2.637212038040161,8.338467597961426,120.30000305175781,-160.5,-26.100000381469727
1445755,6.293062210083008,9.605578422546387,-1.6957353353500366,-2.736297845840454,3.8338658809661865,7.96498966217041,105.9000015258789,-160.5,-24.900001525878906
1445776,7.019805908203125,10.762386322021484,-2.077350616455078,-2.073184013366699,3.3384358882904053,7.286632061004639,105.9000015258789,-160.5,-24.30000114440918
1445796,6.511982440948486,10.34488296508789,-2.8513474464416504,-1.6234859228134155,3.407033920288086,4.436003684997559,93.9000015258789,-167.70001220703125,-26.100000381469727
1445860,7.794999122619629,11.667974472045898,-3.5457916259765625,0.09908600151538849,0.3048799932003021,2.4085519313812256,81.9000015258789,-167.70001220703125,-23.700000762939453
1445880,7.941544055938721,11.659601211547852,-3.576296806335449,0.9756159782409668,-1.1661659479141235,0.510673999786377,81.9000015258789,-165.3000030517578,-23.700000762939453
1445900,7.896683692932129,11.305500030517578,-2.923722743988037,-0.35061198472976685,-2.0960500240325928,-0.228659987449646,77.10000610351562,-165.3000030517578,-23.700000762939453
1445960,6.907354831695557,10.345480918884277,-1.9349925518035889,-0.6402480006217957,-0.48018598556518555,-2.2713558673858643,86.70000457763672,-167.70001220703125,-26.100000381469727
1445984,6.3391194343566895,9.819114685058594,-0.9008033275604248,-0.7164679765701294,0.6021379828453064,-0.6936019659042358,91.5,-160.5,-24.30000114440918
1446004,5.392857074737549,10.113999366760254,-1.7136796712875366,0.2591480016708374,1.8597679138183594,-1.4862899780273438,91.5,-167.70001220703125,-24.900001525878906
1446047,5.614768028259277,8.226858139038086,-2.0289008617401123,3.7805118560791016,-0.426831990480423,-3.2698378562927246,93.9000015258789,-165.3000030517578,-23.700000762939453
