time,sensor_accX[g],sensor_accY[g],sensor_accZ[g],sensor_gyroX[°/s],sensor_gyroY[°/s],sensor_gyroZ[°/s],sensor_magX[µT],sensor_magY[µT],sensor_magZ[µT]
689473,-2.744878053665161,8.308205604553223,-4.088905334472656,-0.1600620001554489,0.114329993724823,-0.2972579896450043,237.90000915527344,-102.9000015258789,-18.30000114440918
689494,-2.7729907035827637,8.284279823303223,-4.067970275878906,-0.18292799592018127,0.1448179930448532,-0.3201240003108978,237.90000915527344,-100.50000762939453,-17.100000381469727
689514,-2.787346363067627,8.237625122070312,-4.0912981033325195,-0.26677000522613525,0.1295740008354187,-0.22103799879550934,242.70001220703125,-100.50000762939453,-19.5
689534,-2.8160572052001953,8.257363319396973,-4.051820278167725,-0.3048799932003021,0.114329993724823,-0.15243999660015106,235.50001525878906,-102.9000015258789,-18.30000114440918
689554,-2.8423755168914795,8.251980781555176,-4.058998107910156,-0.3048799932003021,0.07621999830007553,-0.12195199728012085,237.90000915527344,-102.9000015258789,-17.100000381469727
689578,-2.786748170852661,8.27112102508545,-4.0075578689575195,-0.3201240003108978,0.030487999320030212,-0.1448179930448532,242.70001220703125,-98.10000610351562,-17.700000762939453
689598,-2.777776002883911,8.213101387023926,-4.024305820465088,-0.3048799932003021,0.015243999660015106,-0.15243999660015106,240.3000030517578,-90.9000015258789,-17.100000381469727
689618,-2.7257375717163086,8.204129219055176,-3.9752581119537354,-0.2134159952402115,-0.007621999830007553,-0.10670799762010574,233.10000610351562,-100.50000762939453,-17.700000762939453
689638,-2.7855517864227295,8.207717895507812,-4.036867141723633,-0.26677000522613525,0.030487999320030212,-0.08384199440479279,240.3000030517578,-98.10000610351562,-18.30000114440918
689658,-2.718559741973877,8.31179428100586,-3.994398832321167,-0.18292799592018127,0.02286599949002266,-0.08384199440479279,235.50001525878906,-95.70000457763672,-18.30000114440918
689678,-2.715569019317627,8.209512710571289,-3.9932024478912354,-0.2743920087814331,0.08384199440479279,-0.19054999947547913,242.70001220703125,-95.70000457763672,-17.700000762939453
689698,-2.6641287803649902,8.25915813446045,-3.9190328121185303,-0.23628199100494385,0.10670799762010574,-0.09146399796009064,237.90000915527344,-98.10000610351562,-18.30000114440918
689718,-2.7939257621765137,8.183792114257812,-4.015333652496338,-0.5030519962310791,0.1600620001554489,-0.1448179930448532,233.10000610351562,-98.10000610351562,-19.5
689738,-2.8603196144104004,8.15149211883545,-4.140944004058838,-0.25152599811553955,0.007621999830007553,-0.06859800219535828,235.50001525878906,-100.50000762939453,-17.100000381469727
689758,-2.6940360069274902,8.36861801147461,-3.9955949783325195,0,-0.16768398880958557,-0.2439039945602417,237.90000915527344,-102.9000015258789,-18.900001525878906
689798,-2.783757448196411,8.313589096069336,-4.081129550933838,-0.20579399168491364,0.08384199440479279,-0.4420759975910187,237.90000915527344,-98.10000610351562,-17.700000762939453
689818,-2.7849535942077637,8.2083158493042,-4.0255022048950195,-0.2972579896450043,0.060975998640060425,-0.3887220025062561,237.90000915527344,-98.10000610351562,-17.700000762939453
689882,-2.8058886528015137,8.2322416305542,-4.008155822753906,-0.2743920087814331,0.114329993724823,-0.26677000522613525,235.50001525878906,-95.70000457763672,-20.100000381469727
689932,-2.868095636367798,8.193960189819336,-4.058998107910156,-0.16768398880958557,0.1448179930448532,-0.4192099869251251,245.10000610351562,-98.10000610351562,-18.30000114440918
689972,-3.028397798538208,8.443984031677246,-4.198963642120361,0.07621999830007553,0.3734779953956604,-0.5411620140075684,237.90000915527344,-100.50000762939453,-18.30000114440918
689992,-3.033781051635742,8.361440658569336,-4.192982196807861,0.07621999830007553,0.4878079891204834,-0.571649968624115,240.3000030517578,-100.50000762939453,-17.100000381469727
690032,-3.0977823734283447,8.305214881896973,-4.280311107635498,-0.22103799879550934,0.8841519951820374,0.16768398880958557,242.70001220703125,-102.9000015258789,-18.30000114440918
690052,-3.240140438079834,8.297439575195312,-4.328760623931885,-0.4344539940357208,0.8993960022926331,0.18292799592018127,235.50001525878906,-95.70000457763672,-17.700000762939453
690076,-3.2233924865722656,8.269925117492676,-4.3622565269470215,-0.48018598556518555,0.6021379828453064,0.17530599236488342,240.3000030517578,-98.10000610351562,-17.700000762939453
690096,-3.356778383255005,8.146707534790039,-4.4340338706970215,-0.49542999267578125,0.4039659798145294,0.06859800219535828,237.90000915527344,-93.30000305175781,-19.5
690158,-3.470425605773926,8.350075721740723,-4.49863338470459,-0.6326259970664978,-0.15243999660015106,-0.1448179930448532,240.3000030517578,-93.30000305175781,-16.5
690180,-3.308328866958618,8.024685859680176,-4.117616176605225,-0.7469559907913208,-0.2134159952402115,0.228659987449646,237.90000915527344,-93.30000305175781,-18.30000114440918
690200,-3.0206220149993896,8.174819946289062,-3.8640036582946777,-0.8841519951820374,0.22103799879550934,0.7926880121231079,235.50001525878906,-90.9000015258789,-18.30000114440918
690222,-2.9135544300079346,8.911133766174316,-3.687551498413086,-1.0747020244598389,1.021347999572754,1.0975680351257324,237.90000915527344,-100.50000762939453,-18.30000114440918
690243,-3.484182834625244,8.086893081665039,-3.8651998043060303,-1.5929979085922241,1.4024479389190674,0.16768398880958557,235.50001525878906,-98.10000610351562,-18.30000114440918
690263,-3.6432888507843018,8.033060073852539,-4.017726421356201,-1.2195199728012085,1.0899460315704346,0.46494197845458984,240.3000030517578,-100.50000762939453,-18.900001525878906
690287,-3.5661284923553467,8.347084999084473,-4.113429069519043,-0.9375059604644775,0.7088459730148315,0.5792719721794128,233.10000610351562,-102.9000015258789,-17.700000762939453
690307,-3.5906522274017334,8.792701721191406,-4.328760623931885,-0.9603719711303711,0.342989981174469,0.6478700041770935,233.10000610351562,-102.9000015258789,-17.700000762939453
690327,-3.606204032897949,8.94343376159668,-4.47470760345459,-0.9222619533538818,-0.22103799879550934,0.4344539940357208,235.50001525878906,-105.30000305175781,-16.5
690347,-3.702504873275757,8.250783920288086,-4.43582820892334,-1.3186060190200806,-0.41158798336982727,0.4878079891204834,237.90000915527344,-102.9000015258789,-17.100000381469727
690367,-3.5697171688079834,8.017508506774902,-4.358069896697998,-1.4329359531402588,-0.3887220025062561,1.3795819282531738,228.3000030517578,-102.9000015258789,-19.5
690387,-3.4142000675201416,8.45235824584961,-4.366443634033203,-1.6158639192581177,-0.18292799592018127,2.073184013366699,230.70001220703125,-107.70000457763672,-18.900001525878906
690409,-3.249112606048584,8.768775939941406,-4.420276641845703,-1.753059983253479,-0.09908600151538849,2.042695999145508,237.90000915527344,-112.50000762939453,-18.30000114440918
690430,-3.3376376628875732,8.293251991271973,-4.4101080894470215,-1.9740979671478271,-0.114329993724823,1.4862899780273438,221.10000610351562,-107.70000457763672,-20.700000762939453
690451,-3.2832067012786865,8.171231269836426,-4.427454471588135,-1.707327961921692,-0.4039659798145294,1.882633924484253,223.50001525878906,-114.9000015258789,-19.5
690471,-3.061295747756958,8.470900535583496,-4.28748893737793,-1.4405579566955566,-0.8384199738502502,2.2027578353881836,228.3000030517578,-110.10000610351562,-19.5
690511,-3.589456081390381,8.79389762878418,-4.451379776000977,-1.1051899194717407,-2.4695279598236084,2.126538038253784,221.10000610351562,-112.50000762939453,-21.30000114440918
690535,-3.4740142822265625,8.800477981567383,-4.035670757293701,-1.4024479389190674,-3.3231918811798096,2.4619059562683105,223.50001525878906,-117.30000305175781,-20.100000381469727
690555,-3.0690715312957764,8.862086296081543,-3.6737940311431885,-2.1189160346984863,-3.346057891845703,3.003067970275879,221.10000610351562,-114.9000015258789,-21.30000114440918
690575,-3.002079486846924,8.761598587036133,-3.6085965633392334,-2.583858013153076,-2.698187828063965,3.346057891845703,213.90000915527344,-119.70000457763672,-22.5
690595,-2.8124682903289795,8.929078102111816,-3.6175687313079834,-2.652456045150757,-2.278977870941162,3.7195358276367188,209.10000610351562,-114.9000015258789,-23.700000762939453
690618,-2.7000174522399902,8.911731719970703,-3.4686310291290283,-2.9649579524993896,-1.7225719690322876,3.7728898525238037,211.50001525878906,-129.3000030517578,-23.700000762939453
690638,-2.2914857864379883,9.390844345092773,-3.3693394660949707,-3.1250200271606445,-0.8612859845161438,3.8262438774108887,206.70001220703125,-126.9000015258789,-23.700000762939453
690658,-2.259186029434204,9.19345760345459,-3.1881020069122314,-3.3765459060668945,-0.25152599811553955,3.353679895401001,209.10000610351562,-129.3000030517578,-25.500001907348633
690678,-2.2992615699768066,9.049304962158203,-3.2060463428497314,-3.407033920288086,0.060975998640060425,3.1859958171844482,204.3000030517578,-126.9000015258789,-24.900001525878906
690702,-2.3112244606018066,8.691615104675293,-3.103165626525879,-3.0183119773864746,0.4420759975910187,2.8582499027252197,197.10000610351562,-138.90000915527344,-26.100000381469727
690723,-2.23585844039917,8.073734283447266,-2.9637985229492188,-2.8125178813934326,0.5640279650688171,2.888737916946411,201.90000915527344,-134.10000610351562,-26.100000381469727
690743,-2.0187325477600098,8.013320922851562,-2.977555751800537,-2.538125991821289,0.8231759667396545,3.8948419094085693,192.3000030517578,-136.5,-25.500001907348633
690783,-1.4744224548339844,9.281384468078613,-2.9590132236480713,-1.5625100135803223,1.0289700031280518,4.496979713439941,182.70001220703125,-143.70001220703125,-28.500001907348633
690812,-1.525862693786621,9.52423095703125,-2.7699999809265137,-1.3414719104766846,1.4558019638061523,3.9481959342956543,173.10000610351562,-136.5,-27.900001525878906
690832,-1.630537748336792,9.186279296875,-2.5702202320098877,-1.4481799602508545,1.9207439422607422,3.5442299842834473,175.5,-141.3000030517578,-27.900001525878906
690872,-1.23695969581604,8.738868713378906,-2.3955626487731934,-1.2881180047988892,2.4695279598236084,4.077769756317139,163.5,-155.70001220703125,-27.30000114440918
690892,-0.6968365907669067,8.742457389831543,-2.26875638961792,-1.4634239673614502,2.583858013153076,4.413137912750244,168.3000030517578,-148.5,-27.30000114440918
690916,-0.49645867943763733,8.461928367614746,-2.2400453090667725,-1.7225719690322876,2.7134318351745605,4.580821990966797,158.70001220703125,-155.70001220703125,-28.500001907348633
690936,-0.32419347763061523,8.292654037475586,-2.2789247035980225,-1.5929979085922241,2.431417942047119,5.0000319480896,161.10000610351562,-155.70001220703125,-30.30000114440918
690956,-0.11723602563142776,8.282485961914062,-2.3507018089294434,-1.4329359531402588,2.073184013366699,5.2058258056640625,151.5,-158.10000610351562,-29.100000381469727
690976,0.17106889188289642,8.627016067504883,-2.363861083984375,-0.739333987236023,1.4939119815826416,5.312533855438232,141.90000915527344,-158.10000610351562,-27.900001525878906
690996,0.48629024624824524,8.96436882019043,-2.2974672317504883,-0.510673999786377,0.9375059604644775,5.198204040527344,137.10000610351562,-155.70001220703125,-27.900001525878906
691016,0.6453962922096252,8.80705738067627,-2.1945865154266357,-0.6097599864006042,0.7240899801254272,4.9542999267578125,134.70001220703125,-155.70001220703125,-28.500001907348633
691036,0.7751932740211487,8.819618225097656,-2.130585193634033,-0.49542999267578125,0.6402480006217957,4.900945663452148,137.10000610351562,-162.90000915527344,-29.100000381469727
691056,0.8792701959609985,9.027771949768066,-2.143744468688965,-0.4725639820098877,0.5945159792900085,4.504601955413818,120.30000305175781,-165.3000030517578,-27.900001525878906
691076,1.0204318761825562,9.34478759765625,-2.065985918045044,-0.3048799932003021,0.4878079891204834,4.1921000480651855,120.30000305175781,-170.10000610351562,-29.100000381469727
691096,1.23695969581604,9.49910831451416,-2.059406280517578,-0.3201240003108978,0.4878079891204834,3.9786839485168457,125.10000610351562,-170.10000610351562,-29.700000762939453
691116,1.3003628253936768,9.24429988861084,-1.940375804901123,-0.4344539940357208,0.6173819899559021,3.300325870513916,115.50000762939453,-170.10000610351562,-30.30000114440918
691136,1.217819094657898,8.638978958129883,-1.9565256834030151,-0.4344539940357208,0.739333987236023,3.0259339809417725,110.70000457763672,-172.5,-29.700000762939453
691156,1.514497995376587,9.03315544128418,-1.8327100276947021,0.030487999320030212,0.4420759975910187,3.254593849182129,113.10000610351562,-167.70001220703125,-28.500001907348633
691176,1.5240682363510132,8.816627502441406,-1.7848585844039917,-0.17530599236488342,0.5030519962310791,2.8277618885040283,105.9000015258789,-167.70001220703125,-26.700000762939453
691198,1.5982379913330078,8.72630786895752,-1.7190629243850708,-0.06859800219535828,0.457319974899292,2.690565824508667,96.30000305175781,-167.70001220703125,-29.100000381469727
691218,1.6975297927856445,8.756813049316406,-1.809382438659668,-0.15243999660015106,0.571649968624115,2.6067240238189697,103.50000762939453,-167.70001220703125,-28.500001907348633
691238,1.5779011249542236,8.593520164489746,-1.9894235134124756,-0.19054999947547913,0.5792719721794128,2.278977870941162,101.10000610351562,-167.70001220703125,-27.900001525878906
691258,1.62336003780365,8.4296293258667,-2.0492377281188965,0.28201398253440857,0.4039659798145294,2.14178204536438,91.5,-177.3000030517578,-28.500001907348633
691278,1.5814900398254395,8.782533645629883,-2.023517608642578,0.6783579587936401,0.2743920087814331,2.28659987449646,91.5,-172.5,-28.500001907348633
691298,1.7459793090820312,8.996668815612793,-2.0522284507751465,0.5640279650688171,0.41158798336982727,2.0198299884796143,89.10000610351562,-174.90000915527344,-27.30000114440918
691338,1.8530468940734863,8.96137809753418,-1.9768625497817993,0.1600620001554489,0.853663980960846,1.4558019638061523,89.10000610351562,-172.5,-26.100000381469727
691358,1.8548413515090942,8.942835807800293,-1.9619089365005493,-0.15243999660015106,1.1128119230270386,1.3109840154647827,79.5,-165.3000030517578,-28.500001907348633
691378,1.8159620761871338,8.911133766174316,-1.8955150842666626,-0.39634400606155396,1.2881180047988892,1.0823240280151367,79.5,-165.3000030517578,-27.900001525878906
691400,1.8985058069229126,9.200634956359863,-1.9020946025848389,-0.4192099869251251,1.4100699424743652,0.9298839569091797,79.5,-170.10000610351562,-28.500001907348633
691443,1.85543954372406,8.715540885925293,-1.7944289445877075,-0.7088459730148315,1.417691946029663,0.4039659798145294,79.5,-170.10000610351562,-29.100000381469727
691473,1.7974196672439575,8.55105209350586,-1.7130814790725708,-0.7240899801254272,1.417691946029663,0.6554920077323914,74.70000457763672,-167.70001220703125,-27.900001525878906
691493,1.830317497253418,8.993678092956543,-1.7459793090820312,-0.3201240003108978,1.4024479389190674,0.8079319596290588,77.10000610351562,-174.90000915527344,-27.900001525878906
691533,1.6502764225006104,8.703577995300293,-1.7998121976852417,-0.04573199898004532,1.371959924697876,0.3582339882850647,72.30000305175781,-172.5,-24.900001525878906
691553,1.508516550064087,8.490041732788086,-1.839289665222168,0.12195199728012085,1.0823240280151367,0.02286599949002266,77.10000610351562,-170.10000610351562,-27.30000114440918
691573,1.5611531734466553,8.723915100097656,-1.9613107442855835,0.342989981174469,0.8079319596290588,0.13719600439071655,72.30000305175781,-174.90000915527344,-28.500001907348633
691594,1.7669143676757812,9.057679176330566,-2.0617988109588623,0.36585599184036255,0.342989981174469,-0.19817200303077698,77.10000610351562,-165.3000030517578,-26.100000381469727
691614,2.0336861610412598,9.615148544311523,-2.1024725437164307,0.4039659798145294,0.114329993724823,-0.342989981174469,74.70000457763672,-167.70001220703125,-27.30000114440918
691634,2.130585193634033,9.402209281921387,-1.9397776126861572,-0.06859800219535828,0.12195199728012085,-0.8460419774055481,79.5,-165.3000030517578,-26.700000762939453
691654,2.26576566696167,9.367517471313477,-1.922431468963623,-0.2591480016708374,0.33536797761917114,-1.0289700031280518,74.70000457763672,-170.10000610351562,-25.500001907348633
691678,2.367449998855591,9.186279296875,-1.8674023151397705,-0.457319974899292,0.5792719721794128,-1.2500079870224,79.5,-172.5,-25.500001907348633
691698,2.498443126678467,9.19644832611084,-1.7573440074920654,-0.5259180068969727,0.8307979702949524,-1.2728739976882935,77.10000610351562,-170.10000610351562,-24.900001525878906
691718,2.6671195030212402,8.99008846282959,-1.6030231714248657,-0.9603719711303711,1.3643379211425781,-1.417691946029663,81.9000015258789,-170.10000610351562,-26.100000381469727
691739,2.750859498977661,9.000855445861816,-1.6831743717193604,-1.0442140102386475,1.7225719690322876,-1.4100699424743652,81.9000015258789,-165.3000030517578,-27.900001525878906
691759,3.4411165714263916,11.153572082519531,-2.563640832901001,0.16768398880958557,2.591480016708374,0.2591480016708374,77.10000610351562,-170.10000610351562,-28.500001907348633
691780,3.6773829460144043,10.051194190979004,-2.0940985679626465,-0.8155539631843567,1.3795819282531738,-1.4024479389190674,84.30000305175781,-165.3000030517578,-26.700000762939453
691800,2.4493954181671143,6.958795547485352,-1.8051954507827759,-0.8765299916267395,2.4542839527130127,-1.577754020690918,79.5,-162.90000915527344,-26.100000381469727
691842,2.805290460586548,10.737264633178711,-3.669607162475586,0.8460419774055481,2.439039945602417,0.39634400606155396,81.9000015258789,-170.10000610351562,-24.900001525878906
691862,2.4069273471832275,9.089380264282227,-3.4351351261138916,1.1509219408035278,1.14329993724823,-1.882633924484253,77.10000610351562,-165.3000030517578,-26.100000381469727
691884,2.4302549362182617,8.685035705566406,-3.4177889823913574,1.7835479974746704,0.39634400606155396,-1.3109840154647827,79.5,-167.70001220703125,-25.500001907348633
691924,2.146735191345215,9.10971736907959,-3.386087417602539,1.3872039318084717,-0.09146399796009064,-1.371959924697876,77.10000610351562,-167.70001220703125,-25.500001907348633
691956,1.7220536470413208,8.4356107711792,-3.078641891479492,0.7545779943466187,-0.457319974899292,-1.9207439422607422,91.5,-162.90000915527344,-24.900001525878906
691976,1.4552818536758423,8.2083158493042,-2.920732021331787,0.3125019967556,-0.28201398253440857,-2.0198299884796143,86.70000457763672,-158.10000610351562,-23.700000762939453
692017,1.3607752323150635,8.38058090209961,-2.971574306488037,-0.5868939757347107,0.3201240003108978,-2.0655620098114014,89.10000610351562,-160.5,-23.700000762939453
692039,1.3882898092269897,8.41347885131836,-3.064884662628174,-0.7621999979019165,0.571649968624115,-1.699705958366394,96.30000305175781,-155.70001220703125,-25.500001907348633
692060,1.4050378799438477,8.498414993286133,-3.290982723236084,-0.7926880121231079,0.6707359552383423,-1.242385983467102,91.5,-158.10000610351562,-25.500001907348633
692080,1.437935709953308,8.1544828414917,-3.258084774017334,-0.5335400104522705,0.35061198472976685,-0.36585599184036255,98.70000457763672,-162.90000915527344,-24.900001525878906
692100,1.5013388395309448,8.117398262023926,-3.20185923576355,-0.457319974899292,0.2591480016708374,-0.015243999660015106,93.9000015258789,-167.70001220703125,-23.700000762939453
692120,1.6700152158737183,8.574379920959473,-3.299954891204834,-0.36585599184036255,0.1295740008354187,0.6936019659042358,96.30000305175781,-155.70001220703125,-24.900001525878906
692140,1.6897538900375366,8.638381004333496,-3.3663487434387207,-0.426831990480423,-0.13719600439071655,0.8689079880714417,91.5,-162.90000915527344,-24.900001525878906
692162,1.711287021636963,8.527724266052246,-3.5547637939453125,-0.5487840175628662,-0.6478700041770935,0.9756159782409668,91.5,-167.70001220703125,-24.900001525878906
692182,1.7651199102401733,8.454751014709473,-3.5182769298553467,-0.5335400104522705,-1.1661659479141235,0.9298839569091797,91.5,-162.90000915527344,-24.900001525878906
692204,1.7663161754608154,8.485854148864746,-3.6050076484680176,-0.8765299916267395,-1.5853760242462158,0.800309956073761,91.5,-162.90000915527344,-24.30000114440918
692224,1.8045973777770996,8.21130657196045,-3.577493190765381,-0.8384199738502502,-1.9131219387054443,0.6021379828453064,89.10000610351562,-167.70001220703125,-26.100000381469727
692244,1.924225926399231,8.466713905334473,-3.481192111968994,-0.7774440050125122,-2.28659987449646,0.6250039935112,84.30000305175781,-170.10000610351562,-24.900001525878906
692264,2.0312936305999756,8.445778846740723,-3.3974521160125732,-1.1509219408035278,-2.240867853164673,0.4344539940357208,86.70000457763672,-170.10000610351562,-24.30000114440918
692286,2.0432562828063965,8.360244750976562,-3.4237704277038574,-1.4100699424743652,-2.1112940311431885,0.22103799879550934,89.10000610351562,-165.3000030517578,-24.900001525878906
692306,1.9684885740280151,7.839859962463379,-3.2688512802124023,-1.600619912147522,-2.080806016921997,-0.02286599949002266,89.10000610351562,-165.3000030517578,-25.500001907348633
692326,2.0522284507751465,7.808756351470947,-3.2096352577209473,-1.5701320171356201,-1.8902559280395508,0.08384199440479279,86.70000457763672,-165.3000030517578,-26.700000762939453
692346,2.4182920455932617,8.671278953552246,-3.266458749771118,-1.2195199728012085,-2.0579400062561035,-0.09908600151538849,89.10000610351562,-160.5,-27.30000114440918
692366,2.5947442054748535,8.947022438049316,-3.341824769973755,-1.1661659479141235,-2.042695999145508,-0.02286599949002266,89.10000610351562,-165.3000030517578,-26.100000381469727
692386,2.673699140548706,8.890198707580566,-3.162381887435913,-0.9832379817962646,-2.4771499633789062,-0.12195199728012085,89.10000610351562,-167.70001220703125,-29.100000381469727
692406,2.5881645679473877,8.552248001098633,-2.813664436340332,-1.0594580173492432,-2.6753220558166504,0.10670799762010574,91.5,-172.5,-27.30000114440918
692430,2.182025671005249,9.071435928344727,-2.7059988975524902,-1.067080020904541,-2.4542839527130127,0.3582339882850647,89.10000610351562,-158.10000610351562,-28.500001907348633
692450,2.0049753189086914,9.541576385498047,-2.4493954181671143,-0.8765299916267395,-2.8734939098358154,0.07621999830007553,91.5,-167.70001220703125,-24.900001525878906
692470,1.9858347177505493,9.80296516418457,-2.1174261569976807,-1.0747020244598389,-2.7134318351745605,-0.1295740008354187,86.70000457763672,-167.70001220703125,-29.100000381469727
692493,2.127594470977783,10.999849319458008,-2.113239049911499,-1.1661659479141235,-2.583858013153076,0.02286599949002266,86.70000457763672,-165.3000030517578,-29.700000762939453
692513,2.1419498920440674,11.443073272705078,-1.6718095541000366,-1.6311079263687134,-2.3628199100494385,-0.7240899801254272,91.5,-165.3000030517578,-29.700000762939453
692533,2.011554718017578,11.635077476501465,-1.4780112504959106,-2.1112940311431885,-1.653973937034607,-1.1280559301376343,91.5,-170.10000610351562,-30.900001525878906
692553,1.7998121976852417,11.378473281860352,-1.5545735359191895,-2.3628199100494385,-0.9984819889068604,-1.600619912147522,91.5,-162.90000915527344,-29.700000762939453
692573,1.3948694467544556,10.55602741241455,-1.5001425743103027,-2.4085519313812256,-0.9298839569091797,-1.753059983253479,93.9000015258789,-170.10000610351562,-30.30000114440918
692593,1.034189224243164,9.615148544311523,-1.339840292930603,-2.14178204536438,-1.1051899194717407,-1.6158639192581177,96.30000305175781,-167.70001220703125,-30.900001525878906
692613,0.8529518842697144,9.194055557250977,-1.22200608253479,-1.7225719690322876,-1.0975680351257324,-1.0899460315704346,98.70000457763672,-162.90000915527344,-29.700000762939453
692673,1.3942712545394897,8.272915840148926,-0.8421853184700012,-1.5472660064697266,-1.1585439443588257,0.9527499675750732,96.30000305175781,-172.5,-31.500001907348633
692693,1.3470180034637451,7.7872233390808105,-0.7387065887451172,-1.8673899173736572,-0.7850660085678101,1.3490939140319824,93.9000015258789,-167.70001220703125,-33.30000305175781
692737,1.622761845588684,8.76099967956543,-0.8738868832588196,-1.3186060190200806,-0.36585599184036255,1.753059983253479,89.10000610351562,-160.5,-32.70000076293945
692798,1.6036213636398315,9.68034553527832,-1.1137422323226929,-0.02286599949002266,-0.26677000522613525,0.3201240003108978,84.30000305175781,-165.3000030517578,-32.10000228881836
692818,1.4953573942184448,9.969846725463867,-1.114938497543335,0.228659987449646,-0.3277460038661957,-0.2134159952402115,86.70000457763672,-167.70001220703125,-32.70000076293945
692838,1.3924767971038818,10.02607250213623,-1.0383762121200562,0.3201240003108978,-0.2439039945602417,-0.7774440050125122,86.70000457763672,-170.10000610351562,-32.70000076293945
692861,1.2919888496398926,9.735973358154297,-0.9869359135627747,0.15243999660015106,-0.007621999830007553,-0.9603719711303711,91.5,-165.3000030517578,-32.70000076293945
692881,1.2441374063491821,9.470995903015137,-0.8930274844169617,0.015243999660015106,0.3048799932003021,-0.5182960033416748,89.10000610351562,-170.10000610351562,-31.500001907348633
692922,1.3260829448699951,9.370508193969727,-0.8613258600234985,-0.2896359860897064,0.8841519951820374,0.6936019659042358,89.10000610351562,-172.5,-33.900001525878906
692942,1.3829065561294556,9.240711212158203,-0.8990088701248169,-0.48018598556518555,1.0594580173492432,0.967993974685669,91.5,-167.70001220703125,-32.70000076293945
692962,1.3847010135650635,8.956592559814453,-0.9307104349136353,-0.49542999267578125,1.1204339265823364,1.196653962135315,89.10000610351562,-167.70001220703125,-32.70000076293945
692982,1.4696372747421265,9.045716285705566,-1.0455539226531982,-0.28201398253440857,0.9908599853515625,1.478667974472046,89.10000610351562,-167.70001220703125,-33.900001525878906
693002,1.6143878698349,9.030762672424316,-1.0700777769088745,-0.16768398880958557,0.739333987236023,1.5320219993591309,79.5,-167.70001220703125,-33.900001525878906
693046,1.8111768960952759,9.060669898986816,-1.1346771717071533,0.19817200303077698,0.28201398253440857,1.0442140102386475,81.9000015258789,-174.90000915527344,-31.500001907348633
693067,1.8811596632003784,8.880030632019043,-1.0886201858520508,0.3277460038661957,0.1600620001554489,0.8307979702949524,79.5,-167.70001220703125,-32.10000228881836
693088,2.014545440673828,8.997864723205566,-1.001291275024414,0.44969800114631653,0.19817200303077698,0.7317119836807251,77.10000610351562,-165.3000030517578,-31.500001907348633
693108,1.9852365255355835,8.96735954284668,-1.0294040441513062,0.3887220025062561,0.4878079891204834,0.426831990480423,72.30000305175781,-170.10000610351562,-30.30000114440918
693128,1.9882272481918335,9.113903999328613,-0.9624120593070984,0.35061198472976685,0.7698220014572144,0.2439039945602417,77.10000610351562,-170.10000610351562,-32.10000228881836
693151,1.83749520778656,9.075623512268066,-1.0862276554107666,0.1295740008354187,1.1737879514694214,-0.04573199898004532,77.10000610351562,-165.3000030517578,-31.500001907348633
693213,2.0247139930725098,9.173718452453613,-1.2824184894561768,0.426831990480423,1.4634239673614502,-0.4725639820098877,79.5,-174.90000915527344,-32.10000228881836
693233,1.9960031509399414,9.164746284484863,-1.62934148311615,0.5640279650688171,1.8140360116958618,-0.1448179930448532,72.30000305175781,-167.70001220703125,-30.30000114440918
693254,2.0695745944976807,9.322656631469727,-1.9654978513717651,0.8917739987373352,1.8673899173736572,-0.09146399796009064,74.70000457763672,-170.10000610351562,-30.900001525878906
693274,2.2316713333129883,9.89567756652832,-2.2555971145629883,1.3490939140319824,1.707327961921692,-0.060975998640060425,77.10000610351562,-165.3000030517578,-30.900001525878906
693294,2.1263983249664307,9.618139266967773,-2.2304751873016357,0.9908599853515625,1.524399995803833,-1.0365920066833496,74.70000457763672,-162.90000915527344,-29.100000381469727
693314,2.137763023376465,9.338208198547363,-2.182025671005249,0.7774440050125122,1.5548880100250244,-1.295740008354187,77.10000610351562,-170.10000610351562,-29.700000762939453
693378,2.104266881942749,8.947620391845703,-2.1592960357666016,0.04573199898004532,2.278977870941162,-1.1585439443588257,79.5,-162.90000915527344,-29.100000381469727
693398,1.9098705053329468,8.52114486694336,-2.149725914001465,-0.114329993724823,2.4085519313812256,-1.242385983467102,84.30000305175781,-170.10000610351562,-29.100000381469727
693418,2.092304229736328,8.470900535583496,-2.101874351501465,0.1295740008354187,2.530503988265991,-0.7850660085678101,84.30000305175781,-165.3000030517578,-30.30000114440918
693438,1.8997020721435547,8.979920387268066,-2.47691011428833,-0.3734779953956604,3.567095994949341,0.2591480016708374,77.10000610351562,-160.5,-27.900001525878906
693458,1.60541570186615,9.4375,-3.2209999561309814,-0.44969800114631653,4.672286033630371,0.9070180058479309,72.30000305175781,-167.70001220703125,-27.900001525878906
693478,2.7203543186187744,10.838949203491211,-3.7425806522369385,0.5564059615135193,4.024415969848633,1.699705958366394,79.5,-167.70001220703125,-28.500001907348633
693498,2.3883848190307617,10.06076431274414,-3.743776798248291,-1.2652519941329956,3.7347798347473145,0.739333987236023,72.30000305175781,-167.70001220703125,-29.100000381469727
693542,2.24183988571167,9.19943904876709,-3.767104387283325,0.5792719721794128,1.2804960012435913,0.22103799879550934,74.70000457763672,-162.90000915527344,-27.30000114440918
693592,2.1563053131103516,8.924891471862793,-3.573306083679199,0.5564059615135193,0.8612859845161438,-1.6692179441452026,72.30000305175781,-170.10000610351562,-28.500001907348633
693816,2.998490810394287,8.292654037475586,-2.8663010597229004,0.09146399796009064,-0.5335400104522705,0.28201398253440857,77.10000610351562,-170.10000610351562,-27.30000114440918
693836,3.0600993633270264,8.177810668945312,-2.811271905899048,0.17530599236488342,-0.7850660085678101,0.3201240003108978,79.5,-162.90000915527344,-28.500001907348633
693876,3.0750529766082764,8.068350791931152,-2.7586352825164795,-0.1295740008354187,-0.7926880121231079,0.571649968624115,79.5,-162.90000915527344,-27.30000114440918
693896,3.067875385284424,8.254971504211426,-2.784355640411377,-0.41158798336982727,-0.7469559907913208,0.2972579896450043,79.5,-162.90000915527344,-27.30000114440918
693916,3.3107213973999023,9.07801628112793,-2.941667079925537,-0.33536797761917114,-0.7774440050125122,0.2134159952402115,74.70000457763672,-170.10000610351562,-28.500001907348633
693936,3.335843324661255,9.00922966003418,-2.8387866020202637,-0.5335400104522705,-1.0061039924621582,-0.800309956073761,77.10000610351562,-170.10000610351562,-28.500001907348633
693960,3.4387240409851074,8.94343376159668,-2.871086359024048,-0.41158798336982727,-1.242385983467102,-0.967993974685669,74.70000457763672,-165.3000030517578,-27.900001525878906
693980,3.4656403064727783,8.752626419067383,-2.8160572052001953,-0.26677000522613525,-1.4405579566955566,-0.9375059604644775,74.70000457763672,-167.70001220703125,-27.900001525878906
694000,3.3944613933563232,8.59770679473877,-2.757439136505127,-0.23628199100494385,-1.577754020690918,-0.7164679765701294,77.10000610351562,-162.90000915527344,-28.500001907348633
694020,3.41001296043396,8.772364616394043,-2.647380828857422,-0.12195199728012085,-1.6692179441452026,-0.3887220025062561,79.5,-162.90000915527344,-26.700000762939453
694040,3.469229221343994,9.411181449890137,-2.820244073867798,-0.13719600439071655,-1.653973937034607,-0.07621999830007553,81.9000015258789,-165.3000030517578,-27.30000114440918
694060,3.3585727214813232,9.381274223327637,-2.5199763774871826,-0.35061198472976685,-1.8521459102630615,-0.17530599236488342,74.70000457763672,-167.70001220703125,-27.30000114440918
694080,3.1432414054870605,8.722121238708496,-2.110846519470215,-1.0061039924621582,-1.9207439422607422,-0.07621999830007553,79.5,-160.5,-27.30000114440918
694104,2.5732109546661377,8.927284240722656,-1.6263507604599,-1.478667974472046,-1.1661659479141235,1.0975680351257324,81.9000015258789,-167.70001220703125,-27.30000114440918
694124,1.9014965295791626,8.961976051330566,-1.5934529304504395,-2.2180018424987793,-0.685979962348938,0.4420759975910187,81.9000015258789,-167.70001220703125,-29.100000381469727
694145,1.4301598072052002,9.07502555847168,-1.3230922222137451,-2.1570260524749756,-0.7469559907913208,0.12195199728012085,77.10000610351562,-172.5,-28.500001907348633
694165,1.0808444023132324,9.697691917419434,-1.1466400623321533,-2.2103798389434814,-0.800309956073761,-0.09908600151538849,77.10000610351562,-170.10000610351562,-29.100000381469727
694185,0.7668192982673645,9.486547470092773,-1.0138523578643799,-2.3628199100494385,-0.7545779943466187,-0.9984819889068604,79.5,-174.90000915527344,-30.900001525878906
694205,0.6298445463180542,9.345385551452637,-0.7530620098114014,-1.829279899597168,-1.0823240280151367,-1.0899460315704346,84.30000305175781,-172.5,-30.30000114440918
694229,0.5712265372276306,9.438695907592773,-0.5604599714279175,-1.600619912147522,-0.9908599853515625,-0.7621999979019165,79.5,-165.3000030517578,-29.100000381469727
694249,0.5401231050491333,9.899864196777344,-0.7004254460334778,-1.3567159175872803,-0.510673999786377,-0.4039659798145294,81.9000015258789,-170.10000610351562,-30.900001525878906
694272,0.42886850237846375,10.19534683227539,-1.0527316331863403,-0.7698220014572144,-0.41158798336982727,-0.6021379828453064,84.30000305175781,-165.3000030517578,-30.900001525878906
694292,0.4234852194786072,10.020689010620117,-1.1167329549789429,-0.426831990480423,-0.685979962348938,-0.7926880121231079,81.9000015258789,-165.3000030517578,-30.900001525878906
694312,0.5425156950950623,9.676158905029297,-1.0174411535263062,-0.22103799879550934,-0.8917739987373352,-0.6936019659042358,84.30000305175781,-172.5,-32.70000076293945
694332,0.8140726089477539,9.90046215057373,-0.9504491686820984,-0.060975998640060425,-0.7545779943466187,-0.19817200303077698,79.5,-170.10000610351562,-30.30000114440918
694356,0.9283179044723511,9.809544563293457,-0.9929173588752747,-0.3277460038661957,-0.44969800114631653,0.007621999830007553,84.30000305175781,-165.3000030517578,-31.500001907348633
694376,0.9809544682502747,9.2760009765625,-0.9941136240959167,-0.510673999786377,-0.1295740008354187,0.36585599184036255,86.70000457763672,-167.70001220703125,-31.500001907348633
694396,1.1520233154296875,9.392041206359863,-0.9677953124046326,-0.35061198472976685,0.09908600151538849,0.8917739987373352,79.5,-167.70001220703125,-32.10000228881836
694416,1.3482142686843872,9.242505073547363,-1.0443576574325562,-0.5335400104522705,0.426831990480423,0.9908599853515625,84.30000305175781,-170.10000610351562,-32.70000076293945
694436,1.5509847402572632,9.083398818969727,-1.114938497543335,-0.15243999660015106,0.4878079891204834,0.7774440050125122,79.5,-167.70001220703125,-30.30000114440918
694456,1.642500638961792,9.007434844970703,-1.1125459671020508,0.007621999830007553,0.5182960033416748,0.6402480006217957,79.5,-167.70001220703125,-30.30000114440918
694476,1.8398877382278442,9.30112361907959,-1.1448456048965454,0.510673999786377,0.5182960033416748,0.3277460038661957,74.70000457763672,-172.5,-30.900001525878906
694496,2.0157418251037598,9.387853622436523,-1.0617038011550903,0.7621999979019165,0.6097599864006042,-0.36585599184036255,79.5,-165.3000030517578,-30.900001525878906
694516,2.1748478412628174,9.554137229919434,-1.1448456048965454,0.9070180058479309,0.853663980960846,-1.0899460315704346,79.5,-172.5,-29.700000762939453
694536,2.1204168796539307,9.048707008361816,-1.0898164510726929,0.6936019659042358,0.967993974685669,-1.8369019031524658,77.10000610351562,-165.3000030517578,-30.900001525878906
694556,1.839289665222168,8.53011703491211,-1.3942712545394897,1.189031958580017,1.4481799602508545,-1.8978779315948486,81.9000015258789,-172.5,-30.30000114440918
694576,1.8751782178878784,8.844141960144043,-1.6371172666549683,1.4862899780273438,1.189031958580017,-1.6158639192581177,86.70000457763672,-167.70001220703125,-27.900001525878906
694596,2.107855796813965,9.466809272766113,-1.8997020721435547,1.7454379796981812,1.3109840154647827,-1.4024479389190674,84.30000305175781,-162.90000915527344,-27.30000114440918
694616,2.1682682037353516,9.719822883605957,-2.0169382095336914,1.6234859228134155,1.013725996017456,-1.707327961921692,86.70000457763672,-165.3000030517578,-29.100000381469727
694639,2.0976874828338623,8.97932243347168,-1.8715893030166626,0.8917739987373352,1.1128119230270386,-1.3948259353637695,86.70000457763672,-167.70001220703125,-27.900001525878906
694659,2.139557361602783,8.801673889160156,-1.918244481086731,0.49542999267578125,1.3262280225753784,-0.9908599853515625,89.10000610351562,-165.3000030517578,-29.100000381469727
694679,2.1000800132751465,8.860291481018066,-2.1449406147003174,0.1600620001554489,1.425313949584961,-0.4725639820098877,91.5,-170.10000610351562,-27.30000114440918
694699,2.139557361602783,9.03315544128418,-2.3381409645080566,0.3048799932003021,1.3033620119094849,-0.3125019967556,89.10000610351562,-162.90000915527344,-26.100000381469727
694719,2.155109167098999,9.316675186157227,-2.4942562580108643,0.5564059615135193,1.1356779336929321,-0.4039659798145294,89.10000610351562,-165.3000030517578,-27.900001525878906
694739,2.193390369415283,9.09296989440918,-2.4990413188934326,0.5487840175628662,0.9298839569091797,-0.8384199738502502,84.30000305175781,-162.90000915527344,-26.100000381469727
694759,2.2071475982666016,8.95240592956543,-2.5002377033233643,0.8612859845161438,0.8155539631843567,-0.9375059604644775,81.9000015258789,-162.90000915527344,-24.900001525878906
694781,2.1569035053253174,9.02298641204834,-2.4912655353546143,1.0289700031280518,0.7698220014572144,-0.8307979702949524,91.5,-165.3000030517578,-26.100000381469727
694802,2.0492377281188965,9.028369903564453,-2.5678277015686035,0.8993960022926331,0.9070180058479309,-0.800309956073761,84.30000305175781,-158.10000610351562,-27.30000114440918
694822,2.0857245922088623,9.331628799438477,-2.533135414123535,0.9908599853515625,0.9222619533538818,-0.6554920077323914,93.9000015258789,-162.90000915527344,-26.100000381469727
694844,1.919440746307373,9.16654109954834,-2.512798547744751,0.5945159792900085,1.1204339265823364,-0.800309956073761,93.9000015258789,-165.3000030517578,-26.100000381469727
694865,1.7238479852676392,9.120484352111816,-2.561248302459717,0.4344539940357208,1.3033620119094849,-0.8079319596290588,91.5,-174.90000915527344,-26.100000381469727
694885,1.5695271492004395,8.973938941955566,-2.623455047607422,0.3125019967556,1.3948259353637695,-1.021347999572754,91.5,-165.3000030517578,-26.100000381469727
694947,1.633528470993042,8.76817798614502,-2.527153968811035,0.26677000522613525,0.9375059604644775,-0.7317119836807251,96.30000305175781,-160.5,-24.900001525878906
694967,1.6712114810943604,8.995471954345703,-2.593547821044922,0.35061198472976685,0.739333987236023,-0.4725639820098877,91.5,-170.10000610351562,-25.500001907348633
694987,1.7071000337600708,8.753822326660156,-2.5684258937835693,0.19054999947547913,0.5792719721794128,-0.39634400606155396,93.9000015258789,-160.5,-26.100000381469727
695007,1.714277744293213,8.89259147644043,-2.6862599849700928,0.49542999267578125,0.44969800114631653,0.030487999320030212,93.9000015258789,-165.3000030517578,-25.500001907348633
695028,1.7358108758926392,9.11270809173584,-2.6778860092163086,0.426831990480423,0.35061198472976685,0.15243999660015106,93.9000015258789,-160.5,-25.500001907348633
695048,1.5934529304504395,9.26523494720459,-2.826225519180298,0.2743920087814331,0.3887220025062561,0.030487999320030212,96.30000305175781,-160.5,-24.30000114440918
695068,1.3745325803756714,9.2760009765625,-3.0098555088043213,0.10670799762010574,0.3734779953956604,-0.44969800114631653,98.70000457763672,-165.3000030517578,-24.30000114440918
695088,1.2883999347686768,9.01102352142334,-3.105558395385742,0.1295740008354187,0.1600620001554489,-0.8231759667396545,93.9000015258789,-165.3000030517578,-23.700000762939453
695108,1.323690414428711,9.107922554016113,-3.1587929725646973,0.228659987449646,-0.13719600439071655,-0.8079319596290588,93.9000015258789,-162.90000915527344,-23.700000762939453
695128,1.3697474002838135,9.018799781799316,-3.025407075881958,0.12195199728012085,-0.23628199100494385,-0.7469559907913208,98.70000457763672,-162.90000915527344,-25.500001907348633
695148,1.3751306533813477,8.99427604675293,-2.9823408126831055,-0.12195199728012085,-0.19817200303077698,-0.5335400104522705,93.9000015258789,-167.70001220703125,-25.500001907348633
695170,1.408626675605774,8.80107593536377,-2.9219284057617188,-0.3734779953956604,-0.1600620001554489,-0.38109999895095825,96.30000305175781,-167.70001220703125,-24.900001525878906
695191,1.525862693786621,8.61684799194336,-2.7490651607513428,-0.46494197845458984,-0.08384199440479279,-0.07621999830007553,103.50000762939453,-167.70001220703125,-24.900001525878906
695211,1.7441848516464233,8.65752124786377,-2.580986976623535,-0.510673999786377,-0.015243999660015106,0.4039659798145294,101.10000610351562,-155.70001220703125,-24.900001525878906
695231,1.9098705053329468,8.92848014831543,-2.5139949321746826,-0.5259180068969727,0.23628199100494385,0.6631140112876892,96.30000305175781,-160.5,-24.900001525878906
695251,1.9320018291473389,8.899768829345703,-2.46793794631958,-0.457319974899292,0.342989981174469,0.6173819899559021,101.10000610351562,-162.90000915527344,-26.700000762939453
695272,1.9014965295791626,8.86567497253418,-2.5145931243896484,-0.17530599236488342,0.35061198472976685,0.5335400104522705,93.9000015258789,-162.90000915527344,-26.100000381469727
695292,1.8566358089447021,8.98111629486084,-2.638408660888672,0.1448179930448532,0.2896359860897064,0.49542999267578125,93.9000015258789,-165.3000030517578,-24.900001525878906
695312,1.6879594326019287,9.40938663482666,-2.871086359024048,0.26677000522613525,0.1295740008354187,0.46494197845458984,93.9000015258789,-165.3000030517578,-23.100000381469727
695375,1.2746427059173584,8.967957496643066,-3.067875385284424,-0.38109999895095825,-0.6402480006217957,-0.5030519962310791,93.9000015258789,-158.10000610351562,-24.900001525878906
695395,1.2794277667999268,8.86866569519043,-3.023014545440674,-0.5487840175628662,-0.7698220014572144,-0.1448179930448532,89.10000610351562,-162.90000915527344,-25.500001907348633
695415,1.3781213760375977,8.86687183380127,-2.920732021331787,-0.7774440050125122,-0.7698220014572144,0.12195199728012085,91.5,-160.5,-24.30000114440918
695436,1.5617512464523315,8.710158348083496,-2.6874563694000244,-0.9832379817962646,-0.7698220014572144,0.3277460038661957,84.30000305175781,-162.90000915527344,-24.30000114440918
695499,2.2274844646453857,9.123475074768066,-2.125800132751465,-1.2728739976882935,0.4192099869251251,1.0823240280151367,86.70000457763672,-167.70001220703125,-24.900001525878906
695561,1.6777909994125366,9.47518253326416,-2.5145931243896484,-0.1600620001554489,0.5792719721794128,0.19054999947547913,89.10000610351562,-162.90000915527344,-26.100000381469727
695581,1.3302699327468872,9.19345760345459,-2.649773359298706,-0.030487999320030212,0.23628199100494385,-0.6097599864006042,89.10000610351562,-165.3000030517578,-23.700000762939453
695601,1.1873137950897217,9.2520751953125,-2.7825610637664795,0.3201240003108978,-0.18292799592018127,-1.0899460315704346,93.9000015258789,-160.5,-24.900001525878906
695621,1.1807342767715454,8.920703887939453,-2.8190479278564453,0.35061198472976685,-0.5564059615135193,-1.417691946029663,89.10000610351562,-155.70001220703125,-25.500001907348633
695641,1.302755355834961,8.974536895751953,-2.7502613067626953,0.2439039945602417,-0.7774440050125122,-0.7774440050125122,89.10000610351562,-160.5,-24.30000114440918
695661,1.315914511680603,8.861488342285156,-2.717961549758911,0,-0.739333987236023,-0.571649968624115,89.10000610351562,-172.5,-26.700000762939453
695681,1.5121054649353027,8.86268424987793,-2.540313243865967,-0.228659987449646,-0.685979962348938,0.015243999660015106,91.5,-160.5,-23.700000762939453
695701,1.9858347177505493,9.031360626220703,-1.9774606227874756,-0.7698220014572144,-0.228659987449646,0.8307979702949524,91.5,-165.3000030517578,-26.700000762939453
695721,2.089911460876465,9.210803985595703,-1.8883373737335205,-1.013725996017456,0.12195199728012085,0.9222619533538818,89.10000610351562,-165.3000030517578,-23.700000762939453
695741,2.1000800132751465,9.162952423095703,-1.8961132764816284,-1.3338500261306763,0.685979962348938,0.7317119836807251,84.30000305175781,-170.10000610351562,-26.100000381469727
695761,2.0318915843963623,8.912928581237793,-1.85543954372406,-1.0594580173492432,0.8841519951820374,0.5945159792900085,89.10000610351562,-155.70001220703125,-26.700000762939453
695781,1.83151376247406,9.219776153564453,-2.059406280517578,-0.5259180068969727,0.9222619533538818,0.6326259970664978,91.5,-167.70001220703125,-26.700000762939453
695801,1.3673548698425293,9.489538192749023,-2.515789270401001,-0.16768398880958557,0.5335400104522705,-0.007621999830007553,91.5,-170.10000610351562,-24.900001525878906
695821,1.1759490966796875,9.372900009155273,-2.658745527267456,-0.060975998640060425,0.2743920087814331,-0.38109999895095825,84.30000305175781,-160.5,-25.500001907348633
695842,1.099984884262085,9.05708122253418,-2.7705981731414795,0.41158798336982727,-0.5411620140075684,-1.14329993724823,84.30000305175781,-165.3000030517578,-24.900001525878906
695862,1.2632780075073242,9.07801628112793,-2.635417938232422,0.510673999786377,-0.8384199738502502,-0.967993974685669,89.10000610351562,-165.3000030517578,-25.500001907348633
695886,1.3685511350631714,9.131250381469727,-2.540313243865967,0.030487999320030212,-0.7012239694595337,-0.5564059615135193,93.9000015258789,-162.90000915527344,-25.500001907348633
695906,1.4193933010101318,8.84892749786377,-2.5893609523773193,-0.6478700041770935,-0.3887220025062561,-0.1600620001554489,89.10000610351562,-162.90000915527344,-24.30000114440918
695926,1.5820881128311157,8.887805938720703,-2.378814697265625,-0.46494197845458984,-0.342989981174469,0.6173819899559021,84.30000305175781,-160.5,-25.500001907348633
695946,1.9367868900299072,8.86567497253418,-1.8668042421340942,-0.8765299916267395,-0.10670799762010574,1.0747020244598389,89.10000610351562,-165.3000030517578,-26.100000381469727
695966,2.104865074157715,9.14261531829834,-1.7651199102401733,-1.0747020244598389,0.6021379828453064,1.3872039318084717,89.10000610351562,-172.5,-24.30000114440918
695986,2.113837242126465,9.127063751220703,-1.7956252098083496,-0.8917739987373352,0.9222619533538818,1.14329993724823,86.70000457763672,-165.3000030517578,-26.100000381469727
696006,1.9876290559768677,9.13065242767334,-1.9104686975479126,-0.3582339882850647,0.9298839569091797,1.0061039924621582,86.70000457763672,-160.5,-23.700000762939453
696026,1.8799633979797363,9.39862060546875,-2.092304229736328,0.19054999947547913,0.6783579587936401,0.8841519951820374,89.10000610351562,-165.3000030517578,-24.900001525878906
696046,1.6592485904693604,9.563109397888184,-2.2280826568603516,0.4420759975910187,0.3887220025062561,0.41158798336982727,84.30000305175781,-172.5,-24.900001525878906
696086,1.6311359405517578,8.897974967956543,-2.4338438510894775,0.685979962348938,-0.5868939757347107,-0.9222619533538818,81.9000015258789,-165.3000030517578,-25.500001907348633
696108,1.7836623191833496,8.915919303894043,-2.3794126510620117,0.6783579587936401,-0.6936019659042358,-0.7164679765701294,86.70000457763672,-165.3000030517578,-23.700000762939453
696128,2.1054632663726807,9.252673149108887,-2.26277494430542,0.28201398253440857,-0.5487840175628662,-0.18292799592018127,91.5,-165.3000030517578,-24.900001525878906
696148,2.250213861465454,9.425537109375,-2.021125078201294,-0.4039659798145294,-0.20579399168491364,0.07621999830007553,84.30000305175781,-167.70001220703125,-24.30000114440918
696168,2.2250919342041016,9.200634956359863,-1.9320018291473389,-1.0594580173492432,0.457319974899292,-0.09146399796009064,91.5,-162.90000915527344,-23.700000762939453
696188,2.315411329269409,9.22037410736084,-1.8991038799285889,-1.1661659479141235,0.8689079880714417,-0.16768398880958557,89.10000610351562,-162.90000915527344,-26.100000381469727
696212,2.21193265914917,9.00324821472168,-1.8518506288528442,-1.4100699424743652,1.3109840154647827,-0.6631140112876892,86.70000457763672,-162.90000915527344,-24.30000114440918
696232,1.81955087184906,7.959488391876221,-1.9158519506454468,-1.478667974472046,1.4862899780273438,-1.242385983467102,81.9000015258789,-162.90000915527344,-26.700000762939453
696252,1.5898640155792236,7.157977104187012,-2.065985918045044,-0.9298839569091797,1.5015339851379395,-1.5015339851379395,89.10000610351562,-160.5,-26.700000762939453
696272,1.83749520778656,7.2596611976623535,-2.1826236248016357,-0.4192099869251251,1.7149499654769897,-0.9375059604644775,89.10000610351562,-160.5,-25.500001907348633
696334,2.4972469806671143,9.217981338500977,-3.3603672981262207,-0.800309956073761,2.042695999145508,-0.16768398880958557,84.30000305175781,-165.3000030517578,-24.900001525878906
696355,2.45597505569458,9.71324348449707,-3.7569360733032227,-0.20579399168491364,1.3948259353637695,0.2591480016708374,84.30000305175781,-165.3000030517578,-25.500001907348633
696375,2.381805419921875,9.3836669921875,-3.8281149864196777,0.342989981174469,0.5182960033416748,-0.10670799762010574,86.70000457763672,-162.90000915527344,-26.100000381469727
696395,2.4481992721557617,9.562511444091797,-3.6672146320343018,0.9984819889068604,-0.5564059615135193,-0.04573199898004532,84.30000305175781,-165.3000030517578,-24.900001525878906
696415,2.327972412109375,9.131250381469727,-3.3699374198913574,0.7012239694595337,-1.0594580173492432,-0.5030519962310791,84.30000305175781,-165.3000030517578,-24.900001525878906
696435,2.1533145904541016,8.686830520629883,-3.1617836952209473,0.5259180068969727,-1.3948259353637695,-0.967993974685669,96.30000305175781,-160.5,-27.900001525878906
696455,2.244232416152954,8.243008613586426,-2.8573288917541504,0.16768398880958557,-1.5396440029144287,-1.3109840154647827,91.5,-167.70001220703125,-26.100000381469727
696475,2.3776183128356934,8.293251991271973,-2.7371022701263428,-0.36585599184036255,-1.2576299905776978,-0.8612859845161438,91.5,-158.10000610351562,-24.30000114440918
696495,2.3441224098205566,7.814737796783447,-2.572014808654785,-0.9375059604644775,-1.1128119230270386,-0.6250039935112,89.10000610351562,-165.3000030517578,-25.500001907348633
696515,2.1479313373565674,7.440300464630127,-2.555266857147217,-0.9603719711303711,-0.7088459730148315,-0.038109999150037766,96.30000305175781,-158.10000610351562,-24.900001525878906
696535,2.21193265914917,7.8021769523620605,-2.652764081954956,-0.7240899801254272,-0.6783579587936401,0.6021379828453064,84.30000305175781,-162.90000915527344,-27.30000114440918
696555,2.3626646995544434,8.207717895507812,-2.656352996826172,-0.5259180068969727,-0.7621999979019165,0.7240899801254272,84.30000305175781,-165.3000030517578,-23.700000762939453
696575,2.471526861190796,8.456544876098633,-2.650371551513672,-0.36585599184036255,-0.9070180058479309,0.8079319596290588,91.5,-165.3000030517578,-24.900001525878906
696635,2.19697904586792,8.80286979675293,-2.721550464630127,0.09908600151538849,-1.7683039903640747,0.510673999786377,89.10000610351562,-160.5,-24.30000114440918
696677,1.2895961999893188,9.212597846984863,-2.551079750061035,-0.9603719711303711,-1.6158639192581177,0.038109999150037766,91.5,-165.3000030517578,-26.100000381469727
696756,-0.602928102016449,10.852108001708984,-3.1007730960845947,0.19817200303077698,-1.5929979085922241,-0.1448179930448532,84.30000305175781,-165.3000030517578,-26.100000381469727
696776,0.03768300637602806,12.396512985229492,-3.040958881378174,0.36585599184036255,-2.14178204536438,-0.342989981174469,84.30000305175781,-162.90000915527344,-26.100000381469727
696818,-0.7680155634880066,9.324450492858887,-2.172455310821533,-1.067080020904541,-1.14329993724823,-2.9192259311676025,86.70000457763672,-167.70001220703125,-27.900001525878906
696858,-0.4139149487018585,9.637877464294434,-2.0306954383850098,-0.9756159782409668,-0.44969800114631653,-0.7088459730148315,96.30000305175781,-158.10000610351562,-26.700000762939453
696878,-0.22310732305049896,9.10194206237793,-1.8751782178878784,-0.7469559907913208,-0.6554920077323914,-0.5259180068969727,93.9000015258789,-167.70001220703125,-26.700000762939453
696898,0.08732887357473373,8.727503776550293,-1.624556303024292,-0.3048799932003021,-1.0289700031280518,-0.685979962348938,89.10000610351562,-167.70001220703125,-26.700000762939453
696938,0.9354956150054932,8.241811752319336,-1.0856294631958008,0.571649968624115,-1.3186060190200806,-0.510673999786377,96.30000305175781,-162.90000915527344,-25.500001907348633
696978,1.1412568092346191,8.719130516052246,-1.2531095743179321,0.22103799879550934,-0.6554920077323914,-0.5487840175628662,96.30000305175781,-162.90000915527344,-26.700000762939453
697054,0.924130916595459,8.748438835144043,-2.122211217880249,0.15243999660015106,-0.4039659798145294,-1.8673899173736572,101.10000610351562,-165.3000030517578,-26.100000381469727
697074,0.9683934450149536,9.341198921203613,-2.4063291549682617,0.228659987449646,-0.33536797761917114,-1.3186060190200806,96.30000305175781,-165.3000030517578,-26.100000381469727
697114,1.123910665512085,9.436902046203613,-2.9231247901916504,-0.08384199440479279,-0.19054999947547913,-0.7926880121231079,96.30000305175781,-160.5,-26.100000381469727
697134,1.2052581310272217,9.05887508392334,-2.8842453956604004,-0.4725639820098877,-0.39634400606155396,-0.8384199738502502,103.50000762939453,-162.90000915527344,-24.900001525878906
697177,1.6909501552581787,9.228748321533203,-2.7879443168640137,-0.5564059615135193,-0.20579399168491364,-0.5640279650688171,105.9000015258789,-165.3000030517578,-26.700000762939453
697197,1.83749520778656,9.53798770904541,-2.7652149200439453,-0.571649968624115,0.09908600151538849,-1.2652519941329956,105.9000015258789,-160.5,-27.900001525878906
697217,1.915253758430481,9.37469482421875,-2.924320936203003,-0.7240899801254272,0.35061198472976685,-1.9436099529266357,105.9000015258789,-158.10000610351562,-25.500001907348633
697237,1.7980177402496338,8.829188346862793,-2.999088764190674,-0.6402480006217957,0.5792719721794128,-2.195136070251465,105.9000015258789,-160.5,-26.100000381469727
697257,1.8656079769134521,8.686232566833496,-3.0900065898895264,-0.36585599184036255,0.7469559907913208,-1.7987920045852661,113.10000610351562,-160.5,-27.30000114440918
697277,2.167072057723999,9.884910583496094,-3.132474660873413,0.3048799932003021,0.7240899801254272,-0.8460419774055481,105.9000015258789,-155.70001220703125,-27.900001525878906
697300,2.307037353515625,10.203721046447754,-3.261075496673584,0.06859800219535828,1.0518360137939453,-1.524399995803833,110.70000457763672,-155.70001220703125,-26.700000762939453
697320,2.0289008617401123,9.262842178344727,-3.2174110412597656,0.46494197845458984,1.0289700031280518,-2.0045859813690186,115.50000762939453,-158.10000610351562,-26.700000762939453
697340,1.9822458028793335,8.957191467285156,-3.156998634338379,0.5640279650688171,0.9603719711303711,-1.8521459102630615,113.10000610351562,-158.10000610351562,-26.700000762939453
697360,1.82852303981781,8.223867416381836,-3.0008833408355713,0.571649968624115,1.0442140102386475,-1.4634239673614502,113.10000610351562,-158.10000610351562,-27.30000114440918
697404,1.3775233030319214,8.027676582336426,-3.23774790763855,0.46494197845458984,0.967993974685669,-0.12195199728012085,117.9000015258789,-155.70001220703125,-25.500001907348633
697424,1.314718246459961,8.222671508789062,-3.511099338531494,0.7698220014572144,0.6250039935112,-0.13719600439071655,113.10000610351562,-158.10000610351562,-24.900001525878906
697444,1.3685511350631714,8.72630786895752,-3.609194755554199,1.242385983467102,0.23628199100494385,-0.1600620001554489,120.30000305175781,-158.10000610351562,-23.700000762939453
697464,1.129892110824585,8.530714988708496,-3.615774154663086,1.067080020904541,-0.342989981174469,-0.3887220025062561,110.70000457763672,-158.10000610351562,-25.500001907348633
697484,1.2094451189041138,8.655128479003906,-3.523660182952881,1.2271419763565063,-0.6402480006217957,0.38109999895095825,110.70000457763672,-158.10000610351562,-23.700000762939453
697547,0.19977974891662598,9.762889862060547,-2.918339490890503,-0.4420759975910187,-0.08384199440479279,0.06859800219535828,113.10000610351562,-160.5,-23.700000762939453
697653,-0.3313712179660797,9.899266242980957,-2.6390068531036377,0.6402480006217957,-0.5182960033416748,1.1128119230270386,120.30000305175781,-155.70001220703125,-25.500001907348633
697673,-0.36426907777786255,9.44826602935791,-2.3267762660980225,0.33536797761917114,-0.7240899801254272,0.3734779953956604,117.9000015258789,-150.90000915527344,-26.100000381469727
697715,-0.39656877517700195,8.87883472442627,-2.2579896450042725,-0.09908600151538849,-0.3734779953956604,-0.426831990480423,113.10000610351562,-153.3000030517578,-24.30000114440918
697834,1.0658907890319824,9.232934951782227,-1.9337961673736572,-1.189031958580017,0.46494197845458984,0.6326259970664978,113.10000610351562,-160.5,-23.700000762939453
697855,0.8039041757583618,8.66649341583252,-1.9337961673736572,-1.9969639778137207,1.5015339851379395,0.23628199100494385,110.70000457763672,-160.5,-25.500001907348633
697895,1.4576743841171265,9.453649520874023,-2.399749517440796,-1.8140360116958618,2.278977870941162,0.038109999150037766,110.70000457763672,-155.70001220703125,-26.100000381469727
697935,1.9900217056274414,9.278393745422363,-2.172455310821533,-2.903981924057007,3.193617820739746,0.18292799592018127,108.30000305175781,-160.5,-24.30000114440918
697955,1.3841028213500977,7.7453532218933105,-2.530144691467285,-3.8872199058532715,4.5503339767456055,0.7240899801254272,108.30000305175781,-160.5,-26.700000762939453
697975,1.4343467950820923,8.617445945739746,-3.4357333183288574,-2.9192259311676025,4.718018054962158,2.2713558673858643,103.50000762939453,-162.90000915527344,-27.30000114440918
698015,2.149127721786499,11.227143287658691,-4.245020866394043,-0.7545779943466187,3.399411916732788,3.1402640342712402,91.5,-153.3000030517578,-26.100000381469727
698035,2.6605398654937744,12.232622146606445,-3.9268085956573486,-0.6478700041770935,2.1570260524749756,1.7835479974746704,98.70000457763672,-158.10000610351562,-25.500001907348633
698059,2.110248327255249,11.120076179504395,-3.8939106464385986,-0.28201398253440857,1.9588539600372314,-0.457319974899292,98.70000457763672,-162.90000915527344,-26.700000762939453
698079,1.916450023651123,10.3197603225708,-3.446499824523926,-0.12195199728012085,1.478667974472046,-1.2728739976882935,91.5,-160.5,-26.100000381469727
698099,1.723249912261963,9.429125785827637,-3.1438393592834473,-0.060975998640060425,1.5167779922485352,-1.242385983467102,96.30000305175781,-165.3000030517578,-27.30000114440918
698119,1.4708335399627686,9.00623893737793,-3.0630900859832764,-0.060975998640060425,1.3567159175872803,-0.7240899801254272,101.10000610351562,-165.3000030517578,-26.100000381469727
698139,1.1741546392440796,7.849430084228516,-2.843571662902832,-0.39634400606155396,0.9984819889068604,-0.5945159792900085,96.30000305175781,-160.5,-26.700000762939453
698163,0.817661464214325,6.907953262329102,-2.42905855178833,-0.038109999150037766,0.41158798336982727,-0.02286599949002266,98.70000457763672,-158.10000610351562,-25.500001907348633
698183,1.1035737991333008,6.991095066070557,-2.0366768836975098,-0.09908600151538849,0.228659987449646,0.7469559907913208,91.5,-167.70001220703125,-26.700000762939453
698203,1.2949795722961426,6.835577964782715,-1.9337961673736572,-0.3734779953956604,0.25152599811553955,0.2972579896450043,98.70000457763672,-162.90000915527344,-27.900001525878906
698223,1.4451134204864502,6.401924133300781,-1.8051954507827759,-0.38109999895095825,-0.1295740008354187,-0.030487999320030212,96.30000305175781,-167.70001220703125,-25.500001907348633
698246,1.909272313117981,6.633405685424805,-1.5916584730148315,-0.3125019967556,-0.4039659798145294,0.4878079891204834,93.9000015258789,-165.3000030517578,-26.700000762939453
698266,2.0785467624664307,6.83198881149292,-1.6915483474731445,-0.9375059604644775,-0.18292799592018127,0.7469559907913208,93.9000015258789,-165.3000030517578,-26.700000762939453
698290,2.720952272415161,8.955994606018066,-1.9684885740280151,-0.20579399168491364,-0.28201398253440857,1.7683039903640747,93.9000015258789,-165.3000030517578,-26.700000762939453
698310,2.644390106201172,8.97035026550293,-1.8877391815185547,-0.9603719711303711,-0.5564059615135193,0.26677000522613525,93.9000015258789,-158.10000610351562,-27.30000114440918
698330,2.155707359313965,7.26923131942749,-1.8829541206359863,-1.021347999572754,-0.7012239694595337,-0.5182960033416748,93.9000015258789,-162.90000915527344,-26.700000762939453
698350,1.3631678819656372,5.593235015869141,-1.5192831754684448,-0.3582339882850647,-1.5167779922485352,-0.5411620140075684,89.10000610351562,-165.3000030517578,-26.100000381469727
698374,0.6693220138549805,3.6648221015930176,-0.8774757385253906,-0.7621999979019165,-2.0045859813690186,0.18292799592018127,89.10000610351562,-170.10000610351562,-27.900001525878906
698395,0.1914057433605194,2.4278624057769775,-0.39357808232307434,-1.6234859228134155,-1.242385983467102,2.888737916946411,96.30000305175781,-162.90000915527344,-28.500001907348633
698415,0.8619239926338196,6.617255687713623,-1.0006932020187378,-1.577754020690918,2.1494040489196777,9.794269561767578,91.5,-162.90000915527344,-27.900001525878906
698435,2.0013864040374756,16.387920379638672,-3.603811502456665,-1.600619912147522,6.2805280685424805,16.4254093170166,69.9000015258789,-172.5,-29.100000381469727
698455,4.365845680236816,19.52518081665039,-5.20085334777832,-2.2180018424987793,2.278977870941162,2.492393970489502,50.70000076293945,-165.3000030517578,-29.100000381469727
698475,4.151710510253906,19.034704208374023,-5.264854431152344,0.8307979702949524,-0.12195199728012085,-0.015243999660015106,57.900001525878906,-165.3000030517578,-29.100000381469727
698495,5.468821048736572,17.992738723754883,-3.675588607788086,1.295740008354187,-2.03507399559021,1.3643379211425781,53.10000228881836,-172.5,-29.100000381469727
698557,3.5900540351867676,13.785999298095703,-3.120511770248413,-0.4344539940357208,0.22103799879550934,-4.832347869873047,50.70000076293945,-167.70001220703125,-30.900001525878906
698577,2.3536925315856934,9.209607124328613,-1.8261305093765259,-2.545747995376587,-0.6707359552383423,-5.686011791229248,50.70000076293945,-162.90000915527344,-29.100000381469727
698598,1.032992959022522,4.631421089172363,-1.4193933010101318,-0.8917739987373352,-0.2743920087814331,-5.533571720123291,60.30000305175781,-172.5,-29.700000762939453
698618,0.24164976179599762,1.643696904182434,-1.0587130784988403,-0.4725639820098877,-1.1051899194717407,-1.829279899597168,62.70000076293945,-170.10000610351562,-30.900001525878906
698678,0.19499461352825165,-0.008972144685685635,0.42767223715782166,-0.16768398880958557,-0.739333987236023,2.8658719062805176,60.30000305175781,-170.10000610351562,-29.700000762939453
698698,0.6232649683952332,1.6765947341918945,0.7919412851333618,-1.3262280225753784,-0.2591480016708374,2.599102020263672,62.70000076293945,-170.10000610351562,-28.500001907348633
698718,0.22908875346183777,0.3313712179660797,0.5993392467498779,-2.4237959384918213,1.4939119815826416,0.228659987449646,53.10000228881836,-167.70001220703125,-27.900001525878906
698740,-0.3307730555534363,-0.12680630385875702,0.4204944968223572,-2.027451992034912,1.5929979085922241,0.19054999947547913,57.900001525878906,-170.10000610351562,-32.70000076293945
698760,-0.5843856930732727,-0.32718420028686523,0.25540703535079956,-1.5625100135803223,1.6615959405899048,-0.015243999660015106,55.500003814697266,-174.90000915527344,-31.500001907348633
698780,-0.9014014601707458,-0.8631203174591064,0.25361260771751404,-0.9222619533538818,1.417691946029663,-0.1600620001554489,53.10000228881836,-174.90000915527344,-29.700000762939453
698800,-1.0778536796569824,-0.9821507334709167,-0.012561002746224403,-0.3887220025062561,1.5091559886932373,0.6783579587936401,48.30000305175781,-170.10000610351562,-30.900001525878906
698820,-0.7572489976882935,0.2338739037513733,-0.32598790526390076,0.6021379828453064,1.4100699424743652,2.233245849609375,50.70000076293945,-174.90000915527344,-30.900001525878906
698841,0.3971669375896454,3.6594386100769043,-0.9295141696929932,2.1722700595855713,1.8140360116958618,5.083873748779297,45.900001525878906,-170.10000610351562,-29.700000762939453
698864,2.036078691482544,9.343591690063477,-2.077948570251465,3.2241058349609375,3.4375219345092773,9.969575881958008,38.70000076293945,-167.70001220703125,-30.30000114440918
698884,5.827706813812256,16.825761795043945,-3.983034133911133,0.9984819889068604,5.4573516845703125,14.413201332092285,24.30000114440918,-170.10000610351562,-30.900001525878906
698904,10.790498733520508,19.599349975585938,-6.046627521514893,-1.5015339851379395,4.687530040740967,13.78819751739502,17.100000381469727,-172.5,-29.100000381469727
698926,12.006524085998535,19.599349975585938,-5.324070453643799,2.736297845840454,-1.9131219387054443,1.5396440029144287,9.90000057220459,-172.5,-30.900001525878906
698946,18.18294906616211,19.599349975585938,-6.2852864265441895,-4.664663791656494,0.2439039945602417,13.75008773803711,-2.1000001430511475,-165.3000030517578,-31.500001907348633
698968,15.335787773132324,19.599349975585938,-4.432239532470703,-4.1387457847595215,-2.9268479347229004,2.225623846054077,-11.700000762939453,-170.10000610351562,-32.70000076293945
699028,4.801891803741455,9.66957950592041,-1.6694170236587524,0.25152599811553955,-2.0045859813690186,-13.590025901794434,7.500000476837158,-172.5,-33.30000305175781
699048,0.7452861666679382,2.5289485454559326,-0.46236452460289,0.7850660085678101,-4.329296112060547,-17.865966796875,17.100000381469727,-177.3000030517578,-33.900001525878906
699108,0.020336860790848732,0.5987411141395569,-0.06400129944086075,1.0899460315704346,-0.3201240003108978,-1.0442140102386475,38.70000076293945,-179.70001220703125,-31.500001907348633
699176,0.30086591839790344,-0.2165277600288391,0.17166703939437866,-0.4039659798145294,0.10670799762010574,-1.9207439422607422,45.900001525878906,-172.5,-30.30000114440918
699235,-0.03469229117035866,-1.4744224548339844,0.3708486557006836,-0.6021379828453064,-0.3582339882850647,0.3277460038661957,41.10000228881836,-167.70001220703125,-30.900001525878906
699333,6.037655353546143,16.091840744018555,-2.298065185546875,-1.6615959405899048,4.237832069396973,16.905595779418945,21.900001525878906,-170.10000610351562,-32.70000076293945
699353,9.761693000793457,19.599349975585938,-4.43881893157959,-4.451247692108154,4.817103862762451,12.058003425598145,2.700000047683716,-162.90000915527344,-32.10000228881836
699393,11.402399063110352,19.598752975463867,-4.45676326751709,2.591480016708374,-0.06859800219535828,2.797273874282837,2.700000047683716,-172.5,-32.70000076293945
699435,14.048583984375,19.599349975585938,-4.575195789337158,-0.25152599811553955,-2.949713945388794,-2.7210538387298584,-11.700000762939453,-172.5,-32.70000076293945
699515,1.0437594652175903,1.5922565460205078,-0.0065795728005468845,1.753059983253479,-5.221069812774658,-19.253171920776367,29.100000381469727,-179.70001220703125,-30.900001525878906
699535,-1.1286958456039429,-3.087614059448242,0.5825912356376648,-0.030487999320030212,-2.6677000522613525,-10.365920066833496,45.900001525878906,-170.10000610351562,-31.500001907348633
699575,0.9983006119728088,0.7680155634880066,0.1501338928937912,-0.685979962348938,0.5182960033416748,2.2637338638305664,41.10000228881836,-174.90000915527344,-32.10000228881836
699595,1.1759490966796875,1.1424530744552612,0.2679680585861206,-0.7317119836807251,1.0899460315704346,1.242385983467102,41.10000228881836,-172.5,-31.500001907348633
699618,1.0838350057601929,0.724351167678833,0.32897862792015076,-1.5701320171356201,1.1814099550247192,1.2500079870224,38.70000076293945,-172.5,-32.10000228881836
699638,0.6220687031745911,0.2577996253967285,0.3810170590877533,-1.5929979085922241,1.067080020904541,0.8841519951820374,38.70000076293945,-179.70001220703125,-32.10000228881836
699658,0.4133167862892151,-0.042468149214982986,0.4133167862892151,-1.478667974472046,0.9756159782409668,0.510673999786377,43.5,-170.10000610351562,-33.900001525878906
699678,0.020336860790848732,-0.5640488266944885,0.5132066607475281,-1.021347999572754,0.5411620140075684,-0.07621999830007553,38.70000076293945,-172.5,-32.10000228881836
699702,-0.19320018589496613,-1.013254165649414,0.7482768297195435,-0.5564059615135193,0.22103799879550934,-0.2896359860897064,38.70000076293945,-174.90000915527344,-32.70000076293945
699722,-0.10347873717546463,-0.5957503914833069,0.7769877314567566,-0.33536797761917114,0.36585599184036255,0.08384199440479279,38.70000076293945,-172.5,-30.900001525878906
699742,-0.1309933066368103,-0.47911250591278076,0.6471906900405884,-0.38109999895095825,0.5945159792900085,-0.05335399881005287,36.30000305175781,-174.90000915527344,-31.500001907348633
699785,1.9708811044692993,5.528635501861572,-0.7195659875869751,1.2271419763565063,1.8369019031524658,4.603687763214111,36.30000305175781,-174.90000915527344,-32.10000228881836
699812,5.440110206604004,15.847199440002441,-4.60809326171875,2.7210538387298584,10.099149703979492,17.53822135925293,19.5,-174.90000915527344,-31.500001907348633
699832,11.655413627624512,19.599349975585938,-6.721930503845215,-4.146368026733398,4.657042026519775,15.42692756652832,0.30000001192092896,-170.10000610351562,-34.5
699872,13.94510555267334,19.598154067993164,-7.187285900115967,2.073184013366699,3.3689239025115967,5.602169990539551,-4.5,-167.70001220703125,-32.70000076293945
699929,9.584044456481934,19.56106948852539,-2.5941460132598877,-3.6356940269470215,-3.4680099487304688,-3.109776020050049,0.30000001192092896,-167.70001220703125,-35.10000228881836
699949,5.692526817321777,14.650914192199707,-2.163483142852783,-1.875011920928955,-0.9375059604644775,-9.382681846618652,7.500000476837158,-174.90000915527344,-35.10000228881836
699991,-2.4523861408233643,-2.369842529296875,-0.06459943950176239,2.7286758422851562,-2.835383892059326,-18.102249145507812,38.70000076293945,-172.5,-33.30000305175781
700054,1.22200608253479,2.182025671005249,0.17585402727127075,1.7301939725875854,-0.853663980960846,2.0960500240325928,43.5,-177.3000030517578,-31.500001907348633
700074,0.9959080219268799,0.03648672252893448,0.15372274816036224,-0.06859800219535828,0.46494197845458984,0.510673999786377,43.5,-174.90000915527344,-32.70000076293945
700096,1.143051266670227,0.007775858510285616,-0.16209673881530762,-0.7469559907913208,0.25152599811553955,2.644834041595459,41.10000228881836,-177.3000030517578,-32.70000076293945
700117,1.0413669347763062,-0.21234075725078583,0.04904772341251373,-0.7012239694595337,-0.38109999895095825,2.8658719062805176,38.70000076293945,-170.10000610351562,-33.900001525878906
700137,0.708799421787262,-0.7614359855651855,0.2619866132736206,-1.2728739976882935,-0.6478700041770935,2.378063917160034,36.30000305175781,-170.10000610351562,-33.30000305175781
700157,0.49825310707092285,-0.903195858001709,0.3666616380214691,-1.5472660064697266,-0.8689079880714417,2.0122079849243164,31.500001907348633,-174.90000915527344,-34.5
700177,0.515001118183136,-0.7291362881660461,0.5275620818138123,-1.8216580152511597,-1.1128119230270386,1.5015339851379395,29.100000381469727,-177.3000030517578,-32.70000076293945
700197,0.718369722366333,-0.718369722366333,0.7572489976882935,-2.4161739349365234,-1.0823240280151367,0.914639949798584,29.100000381469727,-172.5,-32.70000076293945
700217,0.7811747193336487,0.2165277600288391,0.6842755675315857,-2.903981924057007,-0.2896359860897064,0.5945159792900085,26.700000762939453,-179.70001220703125,-33.30000305175781
700237,1.6508746147155762,2.9524338245391846,0.38161522150039673,-1.753059983253479,0.2439039945602417,2.583858013153076,29.100000381469727,-172.5,-35.70000076293945
700257,2.6061089038848877,5.303733825683594,0.08613258600234985,-1.1356779336929321,0.5335400104522705,4.771371841430664,29.100000381469727,-179.70001220703125,-34.5
700277,3.8460593223571777,9.871153831481934,-0.40554094314575195,-1.806414008140564,2.9268479347229004,6.097599983215332,21.900001525878906,-170.10000610351562,-35.10000228881836
700297,6.5353102684021,17.029727935791016,-3.4321444034576416,-0.41158798336982727,8.513773918151855,14.474177360534668,17.100000381469727,-174.90000915527344,-35.10000228881836
700359,17.55489730834961,19.599349975585938,-6.310408115386963,0.17530599236488342,3.8338658809661865,4.00154972076416,-9.300000190734863,-167.70001220703125,-36.30000305175781
700379,12.98568344116211,19.599349975585938,-5.413792133331299,1.242385983467102,-4.42838191986084,-4.07014799118042,-4.5,-172.5,-36.30000305175781
700399,10.540475845336914,19.599349975585938,-2.846562385559082,-0.8460419774055481,-5.274424076080322,-0.9222619533538818,0.30000001192092896,-167.70001220703125,-35.70000076293945
700419,6.012533187866211,14.929648399353027,-1.6090046167373657,-1.9512319564819336,-5.480217933654785,-6.737847805023193,-4.5,-172.5,-36.900001525878906
700443,2.6156792640686035,7.851224422454834,-0.15671345591545105,0.5411620140075684,-4.908567905426025,-16.52449607849121,12.300000190734863,-174.90000915527344,-34.5
700463,-2.131781578063965,-3.3394322395324707,1.709492564201355,-0.2972579896450043,-3.75002384185791,-17.469623565673828,38.70000076293945,-179.70001220703125,-33.900001525878906
700483,-2.0462470054626465,-4.509399890899658,1.5049277544021606,-1.2042759656906128,-1.882633924484253,-10.777507781982422,41.10000228881836,-179.70001220703125,-33.900001525878906
700526,1.5928547382354736,0.47911250591278076,1.718464732170105,-0.4039659798145294,0.9832379817962646,-1.2042759656906128,48.30000305175781,-167.70001220703125,-33.900001525878906
700566,0.9468603134155273,0.3194083571434021,0.7763895988464355,-0.13719600439071655,1.9054999351501465,1.9969639778137207,48.30000305175781,-167.70001220703125,-35.70000076293945
700593,0.6890606880187988,-0.22011661529541016,0.7757914066314697,-0.9527499675750732,1.8140360116958618,1.5320219993591309,45.900001525878906,-177.3000030517578,-35.10000228881836
700613,0.4767199456691742,-0.6364241242408752,0.6645368337631226,-1.478667974472046,1.7225719690322876,1.013725996017456,41.10000228881836,-172.5,-35.70000076293945
700653,0.22968690097332,-1.4014489650726318,0.3798207938671112,-1.2728739976882935,1.5320219993591309,0.7850660085678101,41.10000228881836,-172.5,-33.900001525878906
700676,0.14295616745948792,-1.0975923538208008,0.2703606188297272,-0.342989981174469,0.9832379817962646,1.4100699424743652,43.5,-177.3000030517578,-34.5
700696,0.5078234076499939,0.21712589263916016,0.26976248621940613,0.8765299916267395,0.8460419774055481,1.9740979671478271,45.900001525878906,-172.5,-35.10000228881836
700716,1.9786570072174072,4.086512565612793,-0.059216152876615524,2.3704419136047363,1.3567159175872803,5.320156097412109,38.70000076293945,-174.90000915527344,-36.30000305175781
700736,3.1169230937957764,9.232934951782227,-0.16269488632678986,1.425313949584961,3.239349842071533,7.644865989685059,31.500001907348633,-174.90000915527344,-33.900001525878906
700756,5.809762477874756,17.014177322387695,-3.5601470470428467,1.0747020244598389,10.716531753540039,15.899491310119629,19.5,-174.90000915527344,-35.10000228881836
700776,11.801959037780762,19.599349975585938,-5.085411548614502,-2.1570260524749756,5.541193962097168,12.721117973327637,0.30000001192092896,-170.10000610351562,-37.5
700796,10.163046836853027,19.599349975585938,-3.9130513668060303,3.9405739307403564,-1.4024479389190674,-4.489357948303223,7.500000476837158,-172.5,-36.900001525878906
700819,14.150866508483887,19.598154067993164,-5.2624616622924805,2.484771966934204,3.2622158527374268,5.693634033203125,2.700000047683716,-167.70001220703125,-35.10000228881836
700841,17.133806228637695,19.599349975585938,-4.390369415283203,-2.3628199100494385,0.967993974685669,2.446661949157715,2.700000047683716,-165.3000030517578,-36.30000305175781
700862,12.330717086791992,19.599349975585938,-4.198963642120361,-0.9375059604644775,-0.46494197845458984,-0.9375059604644775,-6.900000095367432,-165.3000030517578,-33.900001525878906
700903,5.589645862579346,14.548033714294434,-2.5062191486358643,-1.8445239067077637,-6.112843990325928,-8.125051498413086,0.30000001192092896,-167.70001220703125,-38.10000228881836
700923,3.1073527336120605,8.025283813476562,-0.3828114867210388,1.0975680351257324,-5.625035762786865,-16.10528564453125,12.300000190734863,-170.10000610351562,-35.70000076293945
700943,0.08134744316339493,-0.20217232406139374,0.5885726809501648,1.6692179441452026,-6.2805280685424805,-21.791297912597656,33.900001525878906,-172.5,-35.10000228881836
700963,-1.723249912261963,-4.743871688842773,0.7339214086532593,0.38109999895095825,-2.225623846054077,-5.114361763000488,53.10000228881836,-172.5,-32.70000076293945
700983,-0.26437920331954956,-1.7477737665176392,0.608909547328949,0.10670799762010574,-2.187514066696167,0.23628199100494385,53.10000228881836,-172.5,-33.30000305175781
701003,0.7572489976882935,2.2286806106567383,0.7410991191864014,1.5167779922485352,-2.538125991821289,1.1661659479141235,48.30000305175781,-174.90000915527344,-34.5
701025,0.8463723063468933,0.11962859332561493,0.5586655139923096,0.426831990480423,-0.038109999150037766,-1.9436099529266357,57.900001525878906,-174.90000915527344,-32.70000076293945
701045,0.5843856930732727,-0.1178341656923294,0.29189378023147583,0.9298839569091797,-0.16768398880958557,0.3048799932003021,48.30000305175781,-174.90000915527344,-33.900001525878906
701066,0.31701576709747314,-0.5544785261154175,0.4617663621902466,0.6554920077323914,-0.3125019967556,1.3643379211425781,53.10000228881836,-174.90000915527344,-33.900001525878906
701089,-0.09988987445831299,-1.1053682565689087,0.43903693556785583,0.04573199898004532,-0.23628199100494385,2.1112940311431885,50.70000076293945,-170.10000610351562,-31.500001907348633
701109,-0.051440294831991196,-0.7692118883132935,0.4264759421348572,-0.35061198472976685,-0.5487840175628662,3.0183119773864746,45.900001525878906,-174.90000915527344,-31.500001907348633
701129,0.19020946323871613,-0.5443100929260254,0.5347397923469543,-1.3033620119094849,-0.685979962348938,3.1783738136291504,45.900001525878906,-177.3000030517578,-32.70000076293945
701149,0.3720449209213257,-0.7315288782119751,0.5951522588729858,-2.3094658851623535,-0.6021379828453064,3.246971845626831,41.10000228881836,-172.5,-32.70000076293945
701169,0.7698100209236145,-0.25122004747390747,0.4868883788585663,-2.3475759029388428,-0.23628199100494385,3.6890478134155273,33.900001525878906,-174.90000915527344,-33.30000305175781
701189,3.3424229621887207,6.876251697540283,-0.4163075089454651,0.4344539940357208,1.5853760242462158,11.120497703552246,26.700000762939453,-172.5,-32.70000076293945
701209,5.136851787567139,13.908618927001953,-1.2465299367904663,-1.5853760242462158,5.807963848114014,14.740947723388672,19.5,-172.5,-35.70000076293945
701229,7.32007360458374,18.609424591064453,-2.918339490890503,-1.6082419157028198,9.237863540649414,18.04889488220215,5.100000381469727,-172.5,-35.10000228881836
701249,16.380146026611328,19.568246841430664,-5.885128498077393,-3.307947874069214,8.940606117248535,16.7912654876709,-11.700000762939453,-170.10000610351562,-35.70000076293945
701313,12.278678894042969,19.599349975585938,-6.030477523803711,2.9344699382781982,-3.292703866958618,-3.910085916519165,-9.300000190734863,-167.70001220703125,-32.70000076293945
701333,8.41646957397461,18.60224723815918,-3.806581974029541,1.425313949584961,-5.762231826782227,-3.6814258098602295,-4.5,-167.70001220703125,-33.900001525878906
701353,5.19188117980957,13.613136291503906,-1.6831743717193604,0.4039659798145294,-4.8552141189575195,-6.951263904571533,2.700000047683716,-172.5,-31.500001907348633
701373,2.3231873512268066,7.170537948608398,-0.8673073053359985,0.3201240003108978,-4.733262062072754,-14.855278015136719,14.700000762939453,-170.10000610351562,-33.30000305175781
701393,-1.3619714975357056,0.0705808699131012,0.5520859360694885,-0.7088459730148315,-3.3917899131774902,-16.36443328857422,26.700000762939453,-177.3000030517578,-30.30000114440918
701414,-2.074359893798828,-2.5821831226348877,0.04545886442065239,-1.9436099529266357,0.8612859845161438,-5.823207855224609,36.30000305175781,-167.70001220703125,-33.30000305175781
701435,0.01914057508111,0.5921615362167358,0.5520859360694885,-2.1570260524749756,-0.09908600151538849,1.013725996017456,41.10000228881836,-179.70001220703125,-30.900001525878906
701455,0.2548089027404785,0.08134744316339493,0.9701879024505615,-0.8231759667396545,1.1509219408035278,-0.6250039935112,41.10000228881836,-170.10000610351562,-32.10000228881836
701497,0.806894838809967,0.3343619108200073,0.3146232068538666,0.228659987449646,1.7606819868087769,1.0061039924621582,33.900001525878906,-177.3000030517578,-31.500001907348633
701517,0.7835673093795776,-0.3959706425666809,0.3929799199104309,0.36585599184036255,1.3795819282531738,0.9222619533538818,38.70000076293945,-177.3000030517578,-32.10000228881836
701537,0.6107039451599121,-0.9522436261177063,0.46415895223617554,0.26677000522613525,1.021347999572754,1.2042759656906128,33.900001525878906,-170.10000610351562,-31.500001907348633
701557,0.5114122629165649,-1.3805140256881714,0.5419175028800964,0.18292799592018127,0.7012239694595337,1.0365920066833496,26.700000762939453,-174.90000915527344,-30.900001525878906
701581,0.6675275564193726,-1.2955776453018188,0.5359361171722412,0.35061198472976685,0.41158798336982727,0.9756159782409668,29.100000381469727,-172.5,-32.10000228881836
701601,0.8876441717147827,-1.2411466836929321,0.4139149487018585,0.2896359860897064,0.342989981174469,0.685979962348938,26.700000762939453,-172.5,-31.500001907348633
701621,1.7501662969589233,1.3978601694107056,-0.2649773359298706,1.5701320171356201,1.3262280225753784,2.850627899169922,29.100000381469727,-177.3000030517578,-30.30000114440918
701641,3.2652623653411865,7.41278600692749,-1.7017167806625366,3.147886037826538,3.9253299236297607,9.199753761291504,24.30000114440918,-174.90000915527344,-31.500001907348633
701663,5.774472236633301,16.52728843688965,-4.29047966003418,1.577754020690918,8.201272010803223,17.423891067504883,9.90000057220459,-170.10000610351562,-29.700000762939453
701687,13.139406204223633,19.599349975585938,-7.963077545166016,-2.9802019596099854,9.679940223693848,19.161706924438477,-9.300000190734863,-165.3000030517578,-32.70000076293945
701707,13.737549781799316,19.599349975585938,-5.240928649902344,0.967993974685669,-7.942123889923096,-5.190581798553467,-18.900001525878906,-165.3000030517578,-30.30000114440918
701727,13.470179557800293,19.598154067993164,-4.921520233154297,1.600619912147522,-0.5487840175628662,-2.530503988265991,-9.300000190734863,-170.10000610351562,-30.900001525878906
701747,16.362201690673828,19.599349975585938,-7.3523736000061035,-1.2576299905776978,2.042695999145508,0.41158798336982727,-11.700000762939453,-167.70001220703125,-30.30000114440918
701787,7.950516223907471,19.06102180480957,-3.7724876403808594,-1.2881180047988892,-4.824726104736328,-5.579303741455078,-2.1000001430511475,-167.70001220703125,-30.900001525878906
701809,3.5272490978240967,9.552343368530273,-1.146041989326477,1.1661659479141235,-5.876561641693115,-18.651033401489258,14.700000762939453,-167.70001220703125,-30.30000114440918
701829,0.15970417857170105,0.34393221139907837,0.714780867099762,0.7545779943466187,-6.829311847686768,-25.53369903564453,38.70000076293945,-170.10000610351562,-29.100000381469727
701849,-2.7341115474700928,-6.300837993621826,1.0276095867156982,0.6326259970664978,-1.653973937034607,-15.487903594970703,57.900001525878906,-174.90000915527344,-30.30000114440918
701869,-0.29069748520851135,-2.7377004623413086,0.25421077013015747,-1.2500079870224,0.5259180068969727,0.8384199738502502,65.10000610351562,-174.90000915527344,-30.30000114440918
701912,1.399654507637024,1.2525113821029663,0.5837875604629517,0.9908599853515625,1.5396440029144287,1.013725996017456,60.30000305175781,-170.10000610351562,-28.500001907348633
701972,0.6980328559875488,-0.3002677857875824,0.3869985044002533,-0.6250039935112,0.8612859845161438,0.8155539631843567,45.900001525878906,-170.10000610351562,-28.500001907348633
701992,0.4958605170249939,-1.0413669347763062,0.43963509798049927,-0.9603719711303711,0.6021379828453064,0.46494197845458984,53.10000228881836,-167.70001220703125,-28.500001907348633
702012,0.7656229734420776,-1.4373375177383423,0.7076031565666199,-1.0594580173492432,0.18292799592018127,0.9222619533538818,50.70000076293945,-174.90000915527344,-28.500001907348633
702032,1.2243986129760742,-1.0437594652175903,0.7763895988464355,-1.653973937034607,0.6707359552383423,2.233245849609375,48.30000305175781,-174.90000915527344,-28.500001907348633
702052,1.652669072151184,0.6555647253990173,0.35410064458847046,-1.4634239673614502,2.0122079849243164,3.871975898742676,45.900001525878906,-167.70001220703125,-29.700000762939453
702072,2.8836472034454346,5.793612957000732,-1.1502289772033691,0.2134159952402115,4.778994083404541,9.718050003051758,43.5,-172.5,-29.100000381469727
702092,4.870678424835205,13.553321838378906,-2.8507494926452637,-0.5640279650688171,8.734811782836914,16.577850341796875,24.30000114440918,-170.10000610351562,-30.900001525878906
702112,9.875340461730957,19.599349975585938,-6.468317985534668,-3.3765459060668945,8.833897590637207,18.590057373046875,7.500000476837158,-170.10000610351562,-32.10000228881836
702132,9.447070121765137,18.84808349609375,-3.0361738204956055,-1.8978779315948486,-6.768335819244385,-3.4756319522857666,2.700000047683716,-174.90000915527344,-31.500001907348633
702152,6.913336277008057,14.318944931030273,-1.7627273797988892,-0.5030519962310791,-1.9969639778137207,-4.481735706329346,7.500000476837158,-165.3000030517578,-31.500001907348633
702173,10.526718139648438,19.599349975585938,-4.133167743682861,-1.2118979692459106,2.9268479347229004,4.710395812988281,2.700000047683716,-172.5,-33.900001525878906
702193,7.815336227416992,18.86004638671875,-3.823928117752075,-2.3018438816070557,-0.060975998640060425,-3.818621873855591,7.500000476837158,-179.70001220703125,-32.10000228881836
702213,5.173338413238525,14.877610206604004,-2.8387866020202637,-0.9832379817962646,-1.4481799602508545,-4.740883827209473,17.100000381469727,-174.90000915527344,-32.70000076293945
702233,3.6343166828155518,11.123066902160645,-2.22389554977417,-0.1295740008354187,-3.704291820526123,-8.864385604858398,24.30000114440918,-170.10000610351562,-33.30000305175781
702253,3.0062665939331055,9.24908447265625,-1.549788475036621,1.5320219993591309,-5.0533857345581055,-10.945191383361816,24.30000114440918,-172.5,-31.500001907348633
702273,1.0934053659439087,5.199656963348389,-0.721958577632904,1.935987949371338,-4.657042026519775,-12.187578201293945,36.30000305175781,-170.10000610351562,-32.10000228881836
702293,0.6543684005737305,4.0255022048950195,-0.9911229014396667,0.800309956073761,-2.2561118602752686,-5.419241905212402,45.900001525878906,-172.5,-31.500001907348633
702315,1.4714317321777344,5.743368625640869,-0.8858497142791748,0.06859800219535828,-1.7301939725875854,-1.1128119230270386,45.900001525878906,-165.3000030517578,-30.900001525878906
702336,1.4720298051834106,5.252293586730957,-0.8170632719993591,0.2972579896450043,-1.4329359531402588,-0.7926880121231079,48.30000305175781,-172.5,-31.500001907348633
702356,1.6795854568481445,5.654245376586914,-0.8637184500694275,0.3201240003108978,-1.4100699424743652,-0.114329993724823,43.5,-172.5,-30.900001525878906
702378,1.9290111064910889,6.103450775146484,-1.027011513710022,0.09146399796009064,-1.2271419763565063,0.2972579896450043,48.30000305175781,-172.5,-30.900001525878906
702398,2.2944765090942383,6.910943984985352,-1.113144040107727,0.36585599184036255,-1.3262280225753784,0.8384199738502502,48.30000305175781,-160.5,-29.700000762939453
702418,2.662334442138672,7.8081583976745605,-1.2901943922042847,0.3125019967556,-1.3414719104766846,0.9603719711303711,50.70000076293945,-177.3000030517578,-29.700000762939453
702438,2.9757611751556396,8.757411003112793,-1.1705658435821533,0.3201240003108978,-1.3643379211425781,1.0823240280151367,48.30000305175781,-170.10000610351562,-29.700000762939453
702462,3.356778383255005,10.16543960571289,-1.2507169246673584,0,-1.0442140102386475,1.2881180047988892,41.10000228881836,-172.5,-29.700000762939453
702482,3.7276270389556885,11.338397979736328,-1.2082488536834717,-0.7469559907913208,-0.5259180068969727,0.41158798336982727,43.5,-174.90000915527344,-31.500001907348633
702503,3.938173294067383,11.805547714233398,-0.9821507334709167,-1.1661659479141235,-0.02286599949002266,-1.0975680351257324,41.10000228881836,-177.3000030517578,-30.30000114440918
702527,3.466238498687744,10.158860206604004,-0.8045023083686829,-2.0122079849243164,1.371959924697876,-2.187514066696167,45.900001525878906,-182.10000610351562,-30.30000114440918
702547,2.7915332317352295,8.600099563598633,-0.7428935766220093,-1.4862899780273438,1.8445239067077637,-1.8216580152511597,50.70000076293945,-174.90000915527344,-31.500001907348633
702567,1.9726755619049072,7.121490001678467,-0.9307104349136353,-0.8689079880714417,2.339953899383545,-1.7835479974746704,48.30000305175781,-174.90000915527344,-31.500001907348633
702590,1.2513151168823242,6.229659080505371,-1.4211877584457397,0,2.530503988265991,-1.1051899194717407,55.500003814697266,-177.3000030517578,-32.10000228881836
702610,1.3613734245300293,7.014422416687012,-1.9547312259674072,1.0518360137939453,1.8673899173736572,0.09146399796009064,48.30000305175781,-170.10000610351562,-30.900001525878906
702630,2.161090612411499,9.012818336486816,-2.4840877056121826,2.14178204536438,1.6158639192581177,0.015243999660015106,50.70000076293945,-174.90000915527344,-30.30000114440918
702650,2.8746750354766846,9.441686630249023,-3.544595241546631,2.5228819847106934,1.1128119230270386,-2.2713558673858643,45.900001525878906,-167.70001220703125,-28.500001907348633
702670,3.096586227416992,9.524828910827637,-3.8203392028808594,3.1250200271606445,0.8460419774055481,-2.2484898567199707,45.900001525878906,-174.90000915527344,-29.700000762939453
702692,3.430349826812744,9.809544563293457,-4.16187858581543,3.5366079807281494,-0.038109999150037766,-2.233245849609375,50.70000076293945,-174.90000915527344,-28.500001907348633
702712,3.844862937927246,10.341294288635254,-3.9842302799224854,3.353679895401001,-0.6631140112876892,-1.7911700010299683,50.70000076293945,-174.90000915527344,-27.30000114440918
702732,4.145130634307861,10.462717056274414,-4.230067253112793,2.042695999145508,-0.18292799592018127,-1.8521459102630615,60.30000305175781,-170.10000610351562,-27.900001525878906
702752,3.735402822494507,9.780834197998047,-4.071559429168701,1.2804960012435913,-0.28201398253440857,-1.9054999351501465,55.500003814697266,-170.10000610351562,-26.700000762939453
702772,3.6821682453155518,9.349573135375977,-3.553567409515381,0.5259180068969727,-0.2972579896450043,-1.4481799602508545,60.30000305175781,-170.10000610351562,-27.30000114440918
702796,3.296964168548584,8.691615104675293,-3.2048499584198,-0.2972579896450043,0.09908600151538849,-1.3948259353637695,60.30000305175781,-170.10000610351562,-26.100000381469727
702816,3.0720622539520264,8.076126098632812,-2.864506721496582,-0.39634400606155396,-0.015243999660015106,-1.5091559886932373,62.70000076293945,-170.10000610351562,-27.30000114440918
702837,2.9608078002929688,7.415178298950195,-2.5917534828186035,-0.5411620140075684,-0.07621999830007553,-1.471045970916748,67.5,-162.90000915527344,-25.500001907348633
702857,2.858525276184082,6.925897598266602,-2.238250970840454,-0.4725639820098877,-0.2439039945602417,-0.914639949798584,60.30000305175781,-170.10000610351562,-27.30000114440918
702877,3.115128517150879,7.2925591468811035,-2.1036689281463623,-0.6021379828453064,0.030487999320030212,-0.038109999150037766,69.9000015258789,-167.70001220703125,-27.30000114440918
702897,3.0840251445770264,7.187285900115967,-2.112640857696533,-0.8917739987373352,0.1600620001554489,0.2591480016708374,62.70000076293945,-167.70001220703125,-26.100000381469727
702940,3.3430211544036865,7.236333847045898,-1.8620190620422363,-1.5015339851379395,-0.17530599236488342,0.9222619533538818,60.30000305175781,-170.10000610351562,-27.30000114440918
702960,3.6109890937805176,7.42773962020874,-1.8506543636322021,-1.6920839548110962,-0.22103799879550934,1.4481799602508545,62.70000076293945,-170.10000610351562,-27.30000114440918
702981,4.058998107910156,8.800477981567383,-1.8219435214996338,-1.5853760242462158,-0.6173819899559021,2.2713558673858643,62.70000076293945,-172.5,-26.700000762939453
703001,4.809069633483887,10.513559341430664,-1.9840402603149414,-1.9893419742584229,-0.7317119836807251,2.896359920501709,55.500003814697266,-170.10000610351562,-27.30000114440918
703021,4.479492664337158,9.24429988861084,-1.3224941492080688,-2.530503988265991,-0.8384199738502502,0.35061198472976685,57.900001525878906,-170.10000610351562,-30.900001525878906
703044,3.8735737800598145,8.356057167053223,-1.0479464530944824,-1.417691946029663,-0.35061198472976685,1.653973937034607,55.500003814697266,-170.10000610351562,-29.700000762939453
703064,3.582278251647949,9.499706268310547,-1.2686612606048584,-1.0594580173492432,0.10670799762010574,1.8216580152511597,50.70000076293945,-172.5,-29.100000381469727
703126,1.505525827407837,9.386059761047363,-1.615584135055542,0.3887220025062561,-0.4039659798145294,-1.6692179441452026,60.30000305175781,-170.10000610351562,-29.100000381469727
703146,0.8487648963928223,9.781432151794434,-2.027106523513794,0.6707359552383423,-1.0365920066833496,-1.2271419763565063,57.900001525878906,-174.90000915527344,-28.500001907348633
703166,0.6483869552612305,9.73118782043457,-1.8051954507827759,0.7469559907913208,-1.1356779336929321,-1.4939119815826416,55.500003814697266,-172.5,-27.900001525878906
703186,0.15133017301559448,9.499706268310547,-2.161090612411499,0.6402480006217957,-0.8460419774055481,-1.6387299299240112,60.30000305175781,-170.10000610351562,-29.100000381469727
703248,-0.11125459522008896,10.529708862304688,-2.6132867336273193,0.7545779943466187,-1.600619912147522,-2.5533699989318848,62.70000076293945,-167.70001220703125,-28.500001907348633
703357,0.08613258600234985,8.755617141723633,-2.3883848190307617,0.4878079891204834,-0.41158798336982727,-1.9131219387054443,72.30000305175781,-167.70001220703125,-27.30000114440918
703377,0.2649773359298706,8.81902027130127,-2.5474908351898193,0.48018598556518555,-0.5487840175628662,-1.2347639799118042,81.9000015258789,-170.10000610351562,-27.900001525878906
703417,0.6047225594520569,8.99427604675293,-2.0103585720062256,0.3582339882850647,-0.05335399881005287,-1.2042759656906128,84.30000305175781,-165.3000030517578,-27.30000114440918
703437,0.8409889936447144,8.99606990814209,-2.0665838718414307,0.3734779953956604,0.2591480016708374,-1.3033620119094849,79.5,-160.5,-25.500001907348633
703477,1.0605075359344482,9.95130443572998,-2.128790855407715,0.6631140112876892,0.49542999267578125,-1.013725996017456,84.30000305175781,-170.10000610351562,-26.100000381469727
703497,0.7793802618980408,9.27001953125,-2.292681932449341,0.6021379828453064,0.9451279640197754,-2.8125178813934326,86.70000457763672,-170.10000610351562,-26.100000381469727
703520,0.9713841676712036,8.738868713378906,-2.41709566116333,1.4862899780273438,0.10670799762010574,-2.6677000522613525,84.30000305175781,-167.70001220703125,-26.100000381469727
703540,1.3500087261199951,8.604286193847656,-2.1766421794891357,1.600619912147522,-0.030487999320030212,-2.4771499633789062,86.70000457763672,-172.5,-22.5
703560,1.6430987119674683,8.278298377990723,-2.4164977073669434,1.013725996017456,0.6250039935112,-2.3704419136047363,84.30000305175781,-165.3000030517578,-23.100000381469727
703580,1.7728958129882812,8.064163208007812,-3.0415570735931396,1.4481799602508545,1.2576299905776978,-1.7606819868087769,96.30000305175781,-162.90000915527344,-24.900001525878906
703602,2.750859498977661,9.82090950012207,-3.2186074256896973,1.8902559280395508,0.7317119836807251,0.16768398880958557,93.9000015258789,-165.3000030517578,-24.30000114440918
703622,3.5541656017303467,11.149983406066895,-3.448294162750244,0.6097599864006042,0.7240899801254272,-0.36585599184036255,89.10000610351562,-167.70001220703125,-23.700000762939453
703642,2.9649946689605713,9.596606254577637,-3.7360010147094727,0.19054999947547913,0.5182960033416748,-2.782029867172241,98.70000457763672,-162.90000915527344,-24.30000114440918
703662,2.896806478500366,9.143213272094727,-3.841872215270996,0.914639949798584,-0.5182960033416748,-2.187514066696167,101.10000610351562,-162.90000915527344,-24.900001525878906
703682,3.0325849056243896,9.374096870422363,-3.7330102920532227,0.35061198472976685,-0.7850660085678101,-1.646351933479309,98.70000457763672,-165.3000030517578,-24.30000114440918
703702,2.9673871994018555,9.142017364501953,-3.7952170372009277,0.06859800219535828,-0.6478700041770935,-1.753059983253479,103.50000762939453,-162.90000915527344,-23.100000381469727
703722,3.0086591243743896,9.13663387298584,-3.68994402885437,0.015243999660015106,-0.7088459730148315,-1.5853760242462158,101.10000610351562,-160.5,-23.700000762939453
703742,3.005070209503174,9.068445205688477,-3.4387240409851074,-0.5640279650688171,-0.5411620140075684,-1.7225719690322876,98.70000457763672,-155.70001220703125,-23.100000381469727
703762,2.8746750354766846,8.727503776550293,-3.171952247619629,-0.914639949798584,-0.4192099869251251,-1.8216580152511597,108.30000305175781,-165.3000030517578,-23.700000762939453
703783,2.856132745742798,8.692214012145996,-2.8387866020202637,-1.2118979692459106,-0.3048799932003021,-1.699705958366394,108.30000305175781,-155.70001220703125,-23.100000381469727
703803,2.9913129806518555,8.596510887145996,-2.497844934463501,-1.4024479389190674,-0.20579399168491364,-1.4100699424743652,105.9000015258789,-162.90000915527344,-24.30000114440918
703823,2.8980026245117188,8.29504680633545,-2.116229772567749,-1.3948259353637695,-0.05335399881005287,-1.3338500261306763,108.30000305175781,-162.90000915527344,-24.900001525878906
703843,2.7347097396850586,8.1843900680542,-1.9074779748916626,-1.1128119230270386,0.2439039945602417,-0.9375059604644775,108.30000305175781,-160.5,-23.100000381469727
703886,2.9051804542541504,8.284878730773926,-1.6981278657913208,-0.4420759975910187,0.739333987236023,-1.4634239673614502,108.30000305175781,-165.3000030517578,-23.700000762939453
703906,3.1492228507995605,8.89857292175293,-2.0797431468963623,0.7469559907913208,0.1295740008354187,-1.2576299905776978,117.9000015258789,-158.10000610351562,-24.30000114440918
703926,2.679680585861206,7.753727436065674,-1.9738718271255493,1.1128119230270386,-0.6783579587936401,-2.6753220558166504,113.10000610351562,-160.5,-24.30000114440918
703946,2.5857720375061035,7.63589334487915,-1.9098705053329468,2.134160041809082,-1.1737879514694214,-1.4329359531402588,113.10000610351562,-160.5,-23.700000762939453
703967,2.378216505050659,9.405797958374023,-2.4194884300231934,1.4405579566955566,-0.39634400606155396,0.10670799762010574,117.9000015258789,-162.90000915527344,-23.100000381469727
704008,0.5544785261154175,9.4195556640625,-3.4297518730163574,2.027451992034912,-2.225623846054077,-0.33536797761917114,120.30000305175781,-150.90000915527344,-21.900001525878906
704028,0.09331030398607254,9.919004440307617,-3.0744547843933105,1.2881180047988892,-1.9969639778137207,-1.3262280225753784,115.50000762939453,-158.10000610351562,-23.700000762939453
704049,-0.3917836546897888,9.989585876464844,-3.2927770614624023,0.7545779943466187,-1.2042759656906128,-2.027451992034912,117.9000015258789,-155.70001220703125,-22.5
704070,-0.9468603134155273,9.731785774230957,-3.2389442920684814,0.38109999895095825,-0.8231759667396545,-2.332331895828247,117.9000015258789,-150.90000915527344,-21.900001525878906
704090,-1.4911704063415527,9.348974227905273,-3.154007911682129,0.030487999320030212,-0.26677000522613525,-2.1722700595855713,125.10000610351562,-148.5,-20.100000381469727
704110,-2.0791449546813965,8.84174919128418,-3.2503089904785156,0.04573199898004532,-0.02286599949002266,-1.9740979671478271,127.50000762939453,-150.90000915527344,-21.900001525878906
704130,-2.184418201446533,8.76997184753418,-3.478201389312744,0.2972579896450043,-0.08384199440479279,-1.1204339265823364,129.90000915527344,-150.90000915527344,-22.5
704195,-1.3242884874343872,8.086295127868652,-3.3101232051849365,0.2743920087814331,-1.9131219387054443,0.20579399168491364,134.70001220703125,-150.90000915527344,-22.5
704215,-1.1556122303009033,8.3219633102417,-3.1797280311584473,-0.228659987449646,-1.6844619512557983,0.6021379828453064,129.90000915527344,-153.3000030517578,-23.100000381469727
704235,-0.5203843712806702,9.31607723236084,-3.2263832092285156,-0.49542999267578125,-1.2652519941329956,1.1814099550247192,127.50000762939453,-155.70001220703125,-22.5
704255,0.43604621291160583,10.755806922912598,-3.26765513420105,-0.7088459730148315,-0.7926880121231079,1.3262280225753784,127.50000762939453,-153.3000030517578,-22.5
704275,-0.25660333037376404,9.24310302734375,-3.341824769973755,-1.3109840154647827,0.2591480016708374,-1.2195199728012085,132.3000030517578,-153.3000030517578,-23.100000381469727
704295,-0.04725329577922821,9.137231826782227,-3.8675923347473145,-0.04573199898004532,0.25152599811553955,-0.5564059615135193,132.3000030517578,-153.3000030517578,-23.100000381469727
704315,0.1573116034269333,8.993678092956543,-3.380105972290039,-0.5030519962310791,0.35061198472976685,-0.9756159782409668,120.30000305175781,-148.5,-23.100000381469727
704336,0.015551717020571232,8.077920913696289,-3.496145725250244,-0.3734779953956604,0.7545779943466187,-1.0365920066833496,125.10000610351562,-153.3000030517578,-22.5
704356,0.08314187079668045,7.826700687408447,-3.6857569217681885,0.4725639820098877,0.5640279650688171,-0.5487840175628662,127.50000762939453,-148.5,-23.100000381469727
704376,0.43484994769096375,8.911731719970703,-3.9058735370635986,0.8612859845161438,0.10670799762010574,0.2896359860897064,127.50000762939453,-153.3000030517578,-23.100000381469727
704396,0.8200539946556091,9.746739387512207,-4.0021748542785645,0.9984819889068604,-0.3125019967556,-0.114329993724823,134.70001220703125,-148.5,-22.5
704416,0.8350076079368591,9.100147247314453,-3.7665061950683594,0.6250039935112,-0.9375059604644775,-1.3795819282531738,134.70001220703125,-150.90000915527344,-23.700000762939453
704436,0.9773656129837036,8.547463417053223,-3.428555488586426,0.3201240003108978,-1.1737879514694214,-1.5091559886932373,134.70001220703125,-148.5,-21.900001525878906
704456,1.1903045177459717,8.677858352661133,-3.0750529766082764,0.05335399881005287,-0.9832379817962646,-1.2881180047988892,132.3000030517578,-153.3000030517578,-22.5
704476,1.1699676513671875,8.737074851989746,-2.882451057434082,-0.510673999786377,-0.2743920087814331,-1.6082419157028198,137.10000610351562,-150.90000915527344,-22.5
704519,1.4301598072052002,10.11579418182373,-2.632427215576172,-0.3734779953956604,-0.02286599949002266,-2.5609920024871826,134.70001220703125,-153.3000030517578,-23.700000762939453
704569,0.2177240401506424,9.55593204498291,-2.7670094966888428,0.3201240003108978,0.9603719711303711,-2.2027578353881836,137.10000610351562,-148.5,-21.900001525878906
704637,-1.0898164510726929,8.535500526428223,-2.9494431018829346,0.18292799592018127,0.5792719721794128,-1.935987949371338,146.70001220703125,-141.3000030517578,-21.30000114440918
704693,-0.8655129075050354,8.87464714050293,-3.2347571849823,0.5564059615135193,0.18292799592018127,-1.7378159761428833,149.10000610351562,-138.90000915527344,-21.30000114440918
704875,-1.7830642461776733,8.2442045211792,-3.723439931869507,-1.189031958580017,-0.6783579587936401,-0.46494197845458984,158.70001220703125,-136.5,-21.900001525878906
704931,-0.9761693477630615,7.855411529541016,-3.1671669483184814,-1.0518360137939453,-1.417691946029663,0.16768398880958557,151.5,-143.70001220703125,-21.30000114440918
704971,-0.3074454963207245,9.238916397094727,-3.3107213973999023,0.5030519962310791,-1.0518360137939453,1.4329359531402588,158.70001220703125,-141.3000030517578,-23.100000381469727
704991,-0.4133167862892151,9.22635555267334,-3.7222437858581543,-0.39634400606155396,-0.25152599811553955,0.33536797761917114,149.10000610351562,-141.3000030517578,-21.900001525878906
705031,-0.4605700969696045,9.027771949768066,-3.9722673892974854,-0.36585599184036255,0.6402480006217957,-0.33536797761917114,158.70001220703125,-146.10000610351562,-22.5
705093,-0.1632930338382721,8.58095932006836,-3.5517730712890625,-0.7698220014572144,1.3643379211425781,0.3201240003108978,158.70001220703125,-138.90000915527344,-23.100000381469727
705113,-0.09988987445831299,8.50918197631836,-3.570913553237915,-0.9375059604644775,1.6311079263687134,0.18292799592018127,149.10000610351562,-136.5,-22.5
705133,0.02751457691192627,8.52892017364502,-3.651662826538086,-0.7164679765701294,1.699705958366394,0.1295740008354187,156.3000030517578,-141.3000030517578,-23.100000381469727
705156,0.03708486258983612,8.939845085144043,-3.8287131786346436,-0.4420759975910187,1.8369019031524658,0.030487999320030212,151.5,-143.70001220703125,-20.700000762939453
705177,0.06280501186847687,8.957789421081543,-3.812563180923462,-0.5487840175628662,1.7301939725875854,-0.3887220025062561,153.90000915527344,-136.5,-23.700000762939453
705217,0.3636709153652191,8.94044303894043,-4.796508312225342,-1.1204339265823364,3.193617820739746,-0.2972579896450043,151.5,-136.5,-21.30000114440918
705237,0.45817750692367554,8.188577651977539,-5.764303684234619,-0.7698220014572144,4.085391998291016,-0.2743920087814331,153.90000915527344,-138.90000915527344,-21.900001525878906
705259,0.808689296245575,6.315791606903076,-6.645368576049805,1.1128119230270386,6.234796047210693,-0.5640279650688171,151.5,-141.3000030517578,-20.700000762939453
705279,3.3196935653686523,8.300430297851562,-6.836175918579102,3.2850818634033203,1.6920839548110962,3.292703866958618,149.10000610351562,-141.3000030517578,-20.700000762939453
705341,2.989518642425537,5.9186248779296875,-2.4511899948120117,-1.471045970916748,7.8506598472595215,-6.768335819244385,153.90000915527344,-138.90000915527344,-18.900001525878906
705361,2.810673713684082,5.025597095489502,-1.2722500562667847,-2.2027578353881836,8.368955612182617,-7.6982197761535645,158.70001220703125,-131.70001220703125,-18.30000114440918
705381,2.840580940246582,4.432239532470703,-0.4940660893917084,-2.339953899383545,9.222620010375977,-7.743951797485352,161.10000610351562,-129.3000030517578,-16.5
705401,2.6958303451538086,4.054811000823975,-0.01794428937137127,-2.042695999145508,9.954331398010254,-7.9497456550598145,161.10000610351562,-134.10000610351562,-17.100000381469727
705424,2.659343719482422,3.558352470397949,0.4713366627693176,-1.4405579566955566,10.388785362243652,-8.399443626403809,168.3000030517578,-126.9000015258789,-17.700000762939453
705444,1.7100907564163208,3.0421552658081055,0.5084215402603149,-1.4024479389190674,10.54122543334961,-8.864385604858398,177.90000915527344,-126.9000015258789,-17.100000381469727
705516,-3.016434907913208,1.6131916046142578,0.8541481494903564,2.1112940311431885,5.678390026092529,-7.294253826141357,189.90000915527344,-110.10000610351562,-13.500000953674316
705538,-4.072157382965088,4.95681095123291,-0.6956402659416199,3.4908759593963623,3.1402640342712402,-4.870458126068115,185.10000610351562,-105.30000305175781,-12.300000190734863
705558,-3.2652623653411865,9.00025749206543,1.430757999420166,1.0365920066833496,-3.460387945175171,-4.32167387008667,201.90000915527344,-110.10000610351562,-10.5
705578,-5.650058269500732,7.538993835449219,1.916450023651123,0.2134159952402115,-1.6387299299240112,-6.265284061431885,201.90000915527344,-102.9000015258789,-12.300000190734863
705599,-7.171135902404785,9.649840354919434,-0.1591060310602188,0.914639949798584,-1.4558019638061523,-2.903981924057007,209.10000610351562,-100.50000762939453,-12.300000190734863
705619,-7.843448638916016,11.965251922607422,-0.1411617398262024,0.5259180068969727,-2.7210538387298584,-1.8673899173736572,206.70001220703125,-102.9000015258789,-11.700000762939453
705639,-9.96326732635498,9.194653511047363,-1.9098705053329468,2.225623846054077,-3.3765459060668945,-5.14484977722168,209.10000610351562,-98.10000610351562,-12.300000190734863
705663,-8.59292221069336,10.047605514526367,-2.2998597621917725,3.902463912963867,-7.789683818817139,0.6402480006217957,221.10000610351562,-95.70000457763672,-14.700000762939453
705683,-8.852516174316406,13.401991844177246,-3.1695597171783447,1.4862899780273438,-8.285114288330078,4.908567905426025,211.50001525878906,-98.10000610351562,-12.300000190734863
705703,-9.968650817871094,12.998245239257812,-4.21571159362793,-0.41158798336982727,-8.658592224121094,2.6677000522613525,211.50001525878906,-98.10000610351562,-15.300000190734863
705725,-7.32306432723999,13.962450981140137,-4.877257823944092,1.7454379796981812,-12.515323638916016,4.8552141189575195,211.50001525878906,-100.50000762939453,-18.30000114440918
705745,-9.58583927154541,13.339186668395996,-4.497437000274658,-0.3887220025062561,-12.019893646240234,2.835383892059326,213.90000915527344,-100.50000762939453,-18.30000114440918
705805,-8.152091026306152,12.763175010681152,-3.7778708934783936,-2.4771499633789062,-10.365920066833496,2.385685920715332,209.10000610351562,-107.70000457763672,-21.30000114440918
705825,-9.2281494140625,12.531095504760742,-8.033060073852539,0.7545779943466187,-4.260697841644287,5.030519962310791,206.70001220703125,-112.50000762939453,-22.5
705845,-5.572897911071777,14.91409683227539,-8.83397388458252,1.7225719690322876,-12.080869674682617,8.68145751953125,204.3000030517578,-112.50000762939453,-23.100000381469727
705865,-6.801483631134033,14.389525413513184,-6.4491777420043945,-0.19817200303077698,-12.362883567810059,5.983269691467285,199.50001525878906,-114.9000015258789,-24.900001525878906
705885,-7.05210542678833,13.541956901550293,-9.679747581481934,2.0579400062561035,-3.704291820526123,5.579303741455078,197.10000610351562,-112.50000762939453,-24.30000114440918
705907,-3.335843324661255,14.40328311920166,-11.642254829406738,2.1646480560302734,-11.067143440246582,10.198235511779785,192.3000030517578,-122.10000610351562,-26.100000381469727
705927,-2.8686935901641846,15.676729202270508,-10.383163452148438,0.35061198472976685,-14.42082405090332,10.983302116394043,185.10000610351562,-122.10000610351562,-27.900001525878906
705947,-3.8227317333221436,14.164623260498047,-8.592324256896973,-0.4878079891204834,-9.28359603881836,5.6174139976501465,182.70001220703125,-124.50000762939453,-27.30000114440918
705968,-2.856132745742798,12.404887199401855,-10.11878490447998,0.38109999895095825,-5.0000319480896,6.158576011657715,173.10000610351562,-129.3000030517578,-27.30000114440918
705988,-2.0761542320251465,12.617825508117676,-10.422042846679688,0.10670799762010574,-7.400961875915527,9.436036109924316,170.70001220703125,-136.5,-29.700000762939453
706008,-0.7865580320358276,13.20580005645752,-8.75800895690918,-0.5564059615135193,-8.300357818603516,10.54122543334961,161.10000610351562,-136.5,-30.30000114440918
706031,-0.3415396511554718,12.219462394714355,-7.637089252471924,-1.14329993724823,-4.611310005187988,8.460419654846191,156.3000030517578,-146.10000610351562,-31.500001907348633
706051,0.1088620200753212,11.636273384094238,-8.74006462097168,-1.653973937034607,0.07621999830007553,8.186027526855469,146.70001220703125,-148.5,-32.10000228881836
706113,1.2471281290054321,7.411589622497559,-6.291865825653076,-1.4634239673614502,-0.02286599949002266,6.882665634155273,125.10000610351562,-158.10000610351562,-32.70000076293945
706133,1.8530468940734863,8.135940551757812,-5.838473320007324,-2.278977870941162,1.3948259353637695,8.132674217224121,122.70000457763672,-155.70001220703125,-32.10000228881836
706153,1.9230296611785889,7.19566011428833,-5.3964457511901855,-0.8841519951820374,2.9268479347229004,5.327777862548828,113.10000610351562,-158.10000610351562,-32.10000228881836
706173,1.8805614709854126,6.3062214851379395,-4.794713973999023,1.600619912147522,2.4771499633789062,2.8811159133911133,110.70000457763672,-158.10000610351562,-30.30000114440918
706193,2.24483060836792,5.898886203765869,-3.917238235473633,1.9131219387054443,2.5609920024871826,1.4558019638061523,108.30000305175781,-153.3000030517578,-32.10000228881836
706213,2.116229772567749,5.630319595336914,-3.165372610092163,1.478667974472046,3.414655923843384,-0.13719600439071655,108.30000305175781,-167.70001220703125,-30.900001525878906
706236,1.8111768960952759,5.147618293762207,-2.158698081970215,1.3643379211425781,2.644834041595459,-2.9802019596099854,110.70000457763672,-158.10000610351562,-30.30000114440918
706256,1.9020946025848389,4.7008056640625,-1.1735565662384033,0.8155539631843567,2.644834041595459,-5.007653713226318,113.10000610351562,-158.10000610351562,-28.500001907348633
706276,1.7830642461776733,4.23963737487793,-0.9079810380935669,0.5792719721794128,3.246971845626831,-6.211929798126221,115.50000762939453,-153.3000030517578,-28.500001907348633
706296,1.7734938859939575,3.264066219329834,-0.30086591839790344,0.20579399168491364,3.902463912963867,-6.958885669708252,122.70000457763672,-155.70001220703125,-29.700000762939453
706356,2.840580940246582,4.119410514831543,0.46714967489242554,-0.8384199738502502,7.919257640838623,-2.9192259311676025,132.3000030517578,-158.10000610351562,-26.700000762939453
706376,2.21791410446167,4.559643745422363,-0.2075556069612503,-0.8841519951820374,9.154022216796875,-2.14178204536438,134.70001220703125,-148.5,-26.100000381469727
706396,2.0007882118225098,5.172142505645752,-0.6896588206291199,-0.457319974899292,9.24548625946045,-2.7134318351745605,127.50000762939453,-150.90000915527344,-25.500001907348633
706416,1.5964435338974,6.7021918296813965,-0.5712265372276306,0.8993960022926331,8.307979583740234,-2.8582499027252197,132.3000030517578,-150.90000915527344,-26.100000381469727
706436,0.6017318367958069,7.203435897827148,-0.7751932740211487,0.038109999150037766,8.025965690612793,-4.664663791656494,129.90000915527344,-148.5,-24.900001525878906
706456,0.05562729761004448,7.5910325050354,-1.1627899408340454,0.1600620001554489,7.118947982788086,-4.74850606918335,137.10000610351562,-150.90000915527344,-24.30000114440918
706477,-1.1466400623321533,8.795692443847656,-1.4678428173065186,0.23628199100494385,6.158576011657715,-2.888737916946411,146.70001220703125,-148.5,-24.30000114440918
706497,-1.2680630683898926,10.236021041870117,-1.555769920349121,-1.2271419763565063,4.969543933868408,-1.0594580173492432,144.3000030517578,-150.90000915527344,-25.500001907348633
706517,-1.5270589590072632,9.02597713470459,-1.9529367685317993,-2.4542839527130127,5.525949954986572,-1.882633924484253,137.10000610351562,-138.90000915527344,-23.700000762939453
706537,-1.7047075033187866,9.101343154907227,-2.516387462615967,-1.653973937034607,4.496979713439941,-0.4725639820098877,151.5,-148.5,-23.100000381469727
706597,-0.9624120593070984,9.241907119750977,-2.515191078186035,-0.5868939757347107,0.3125019967556,0.28201398253440857,146.70001220703125,-150.90000915527344,-23.700000762939453
706617,-0.38640037178993225,9.78801155090332,-2.423675298690796,-0.5335400104522705,-0.2972579896450043,0.5259180068969727,144.3000030517578,-146.10000610351562,-23.700000762939453
706639,-0.15551717579364777,9.611559867858887,-2.124603748321533,-0.6250039935112,-0.49542999267578125,0.3125019967556,149.10000610351562,-143.70001220703125,-24.900001525878906
706659,-0.4970568120479584,9.227551460266113,-2.2436342239379883,-0.9984819889068604,-0.16768398880958557,0.1295740008354187,149.10000610351562,-143.70001220703125,-23.700000762939453
706681,-0.5526841282844543,8.971546173095703,-2.2938783168792725,-0.2972579896450043,-0.6936019659042358,0.23628199100494385,141.90000915527344,-148.5,-23.100000381469727
706701,-0.3726430833339691,9.19046688079834,-2.0881171226501465,0.1295740008354187,-1.3567159175872803,0.6554920077323914,141.90000915527344,-141.3000030517578,-24.30000114440918
706721,-0.6430037021636963,8.703577995300293,-2.2753357887268066,-0.13719600439071655,-1.3643379211425781,0.6097599864006042,139.5,-146.10000610351562,-24.900001525878906
706744,-0.5293565392494202,8.734084129333496,-2.7197561264038086,0.6478700041770935,-2.332331895828247,1.2881180047988892,139.5,-150.90000915527344,-24.30000114440918
706764,-0.37623193860054016,8.758607864379883,-2.7042043209075928,0.7088459730148315,-2.644834041595459,1.425313949584961,144.3000030517578,-148.5,-22.5
706826,0.12919887900352478,9.126465797424316,-3.0535199642181396,-1.1814099550247192,-2.0045859813690186,0.571649968624115,139.5,-146.10000610351562,-24.30000114440918
706846,0.29189378023147583,8.95240592956543,-3.248514413833618,-0.6326259970664978,-1.7225719690322876,0.7698220014572144,141.90000915527344,-148.5,-23.700000762939453
706866,0.40853163599967957,8.82679557800293,-2.9757611751556396,-0.5868939757347107,-1.707327961921692,0.7850660085678101,137.10000610351562,-148.5,-24.30000114440918
706888,0.18602246046066284,8.823206901550293,-3.049332857131958,-0.457319974899292,-0.9222619533538818,0.8460419774055481,137.10000610351562,-148.5,-23.700000762939453
706910,0.5102159380912781,9.316675186157227,-3.067875385284424,0.1295740008354187,-0.5411620140075684,0.2896359860897064,134.70001220703125,-150.90000915527344,-25.500001907348633
706950,0.4856920838356018,8.96018123626709,-3.236551523208618,-0.342989981174469,0.007621999830007553,-0.23628199100494385,132.3000030517578,-150.90000915527344,-23.700000762939453
706970,0.8661110401153564,8.969752311706543,-3.2592811584472656,-0.1295740008354187,0.28201398253440857,-0.2591480016708374,132.3000030517578,-153.3000030517578,-24.900001525878906
706990,0.7859598398208618,8.972743034362793,-3.7126734256744385,-0.685979962348938,1.6158639192581177,-0.6478700041770935,137.10000610351562,-148.5,-26.700000762939453
707010,0.8308205604553223,8.499013900756836,-4.41190242767334,-0.342989981174469,2.294221878051758,-0.8384199738502502,137.10000610351562,-146.10000610351562,-24.30000114440918
707030,1.0395724773406982,8.513368606567383,-4.545886516571045,-0.7317119836807251,2.583858013153076,-0.7240899801254272,137.10000610351562,-148.5,-23.100000381469727
707050,1.1789398193359375,8.619239807128906,-5.248106479644775,-0.7698220014572144,3.6890478134155273,-0.8917739987373352,134.70001220703125,-148.5,-24.30000114440918
707070,1.4696372747421265,8.499013900756836,-5.913241386413574,0.5564059615135193,3.871975898742676,-1.2500079870224,141.90000915527344,-150.90000915527344,-23.700000762939453
707090,2.1598942279815674,8.612062454223633,-5.925802230834961,1.1737879514694214,2.6219680309295654,-1.0975680351257324,134.70001220703125,-146.10000610351562,-22.5
707111,2.691643476486206,7.880533695220947,-4.849743366241455,0.739333987236023,2.682943820953369,-2.1646480560302734,134.70001220703125,-146.10000610351562,-22.5
707131,2.9021897315979004,7.348784446716309,-4.083521842956543,0.39634400606155396,4.024415969848633,-3.0106899738311768,141.90000915527344,-146.10000610351562,-23.700000762939453
707212,2.6366143226623535,5.488559722900391,-0.6705182790756226,-0.4039659798145294,7.660109996795654,-4.580821990966797,153.90000915527344,-138.90000915527344,-21.900001525878906
707252,2.140155553817749,3.971071243286133,-0.1178341656923294,-1.1585439443588257,10.07628345489502,-7.286632061004639,153.90000915527344,-136.5,-18.30000114440918
