time,sensor_accX[g],sensor_accY[g],sensor_accZ[g],sensor_gyroX[°/s],sensor_gyroY[°/s],sensor_gyroZ[°/s],sensor_magX[µT],sensor_magY[µT],sensor_magZ[µT]
1017378,-3.088212251663208,8.21728801727295,-3.786245107650757,-0.3125019967556,0.19054999947547913,-0.3048799932003021,242.70001220703125,-107.70000457763672,-24.30000114440918
1017398,-3.108549118041992,8.205923080444336,-3.8113670349121094,-0.28201398253440857,0.1295740008354187,-0.2134159952402115,242.70001220703125,-100.50000762939453,-23.100000381469727
1017418,-3.0750529766082764,8.26513957977295,-3.809572696685791,-0.2591480016708374,0.04573199898004532,-0.10670799762010574,245.10000610351562,-100.50000762939453,-22.5
1017438,-3.099576950073242,8.3100004196167,-3.8346946239471436,-0.3277460038661957,0.038109999150037766,-0.1295740008354187,242.70001220703125,-105.30000305175781,-21.30000114440918
1017458,-3.058305025100708,8.280691146850586,-3.8011984825134277,-0.3125019967556,-0.015243999660015106,-0.13719600439071655,228.3000030517578,-100.50000762939453,-22.5
1017478,-3.0212202072143555,8.198745727539062,-3.780263662338257,-0.3201240003108978,0.030487999320030212,-0.114329993724823,240.3000030517578,-100.50000762939453,-23.700000762939453
1017498,-3.0295941829681396,8.316579818725586,-3.794619083404541,-0.3201240003108978,0.08384199440479279,-0.06859800219535828,240.3000030517578,-100.50000762939453,-22.5
1017519,-3.0744547843933105,8.17541790008545,-3.8412742614746094,-0.4344539940357208,0.19054999947547913,-0.2134159952402115,240.3000030517578,-102.9000015258789,-23.100000381469727
1017539,-2.8537402153015137,8.438002586364746,-3.6911401748657227,-0.2134159952402115,0.09146399796009064,0.05335399881005287,242.70001220703125,-107.70000457763672,-23.100000381469727
1017559,-3.076847553253174,8.082107543945312,-3.8586204051971436,-0.800309956073761,0.3582339882850647,-0.18292799592018127,240.3000030517578,-105.30000305175781,-21.900001525878906
1017581,-3.111539840698242,8.321365356445312,-3.898695945739746,-0.2134159952402115,0.1295740008354187,0.09908600151538849,242.70001220703125,-98.10000610351562,-21.900001525878906
1017601,-2.9111618995666504,8.484060287475586,-3.6821682453155518,-0.2134159952402115,0.1295740008354187,-0.20579399168491364,240.3000030517578,-100.50000762939453,-23.100000381469727
1017623,-3.070866107940674,8.298635482788086,-3.838881492614746,-0.5945159792900085,0.4344539940357208,-0.3201240003108978,242.70001220703125,-105.30000305175781,-23.700000762939453
1017643,-3.0331830978393555,8.311196327209473,-3.7808616161346436,-0.4039659798145294,0.4039659798145294,-0.22103799879550934,237.90000915527344,-100.50000762939453,-23.100000381469727
1017663,-3.0325849056243896,8.15747356414795,-3.767104387283325,-0.6173819899559021,0.4192099869251251,-0.07621999830007553,237.90000915527344,-110.10000610351562,-21.900001525878906
1017683,-2.9608078002929688,8.231045722961426,-3.7042994499206543,-0.44969800114631653,0.3734779953956604,0.038109999150037766,240.3000030517578,-102.9000015258789,-22.5
1017703,-2.966191053390503,8.240615844726562,-3.6941308975219727,-0.4878079891204834,0.48018598556518555,0.05335399881005287,245.10000610351562,-105.30000305175781,-21.900001525878906
1017723,-2.977555751800537,8.272915840148926,-3.70190691947937,-0.46494197845458984,0.426831990480423,0.030487999320030212,240.3000030517578,-100.50000762939453,-23.700000762939453
1017743,-3.011051654815674,8.257962226867676,-3.7425806522369385,-0.457319974899292,0.41158798336982727,0.038109999150037766,240.3000030517578,-102.9000015258789,-23.700000762939453
1017763,-2.9847333431243896,8.381178855895996,-3.696523666381836,-0.38109999895095825,0.342989981174469,0.06859800219535828,237.90000915527344,-102.9000015258789,-22.5
1017783,-2.9943037033081055,8.342300415039062,-3.71686053276062,-0.5030519962310791,0.3734779953956604,-0.038109999150037766,242.70001220703125,-102.9000015258789,-21.30000114440918
1017825,-3.0248091220855713,8.287869453430176,-3.708486318588257,-0.5259180068969727,0.3201240003108978,-0.1295740008354187,242.70001220703125,-107.70000457763672,-23.700000762939453
1017845,-2.9943037033081055,8.32674789428711,-3.7090845108032227,-0.4344539940357208,0.2896359860897064,-0.015243999660015106,247.50001525878906,-100.50000762939453,-23.700000762939453
1017865,-2.978153944015503,8.298635482788086,-3.7252345085144043,-0.4725639820098877,0.3277460038661957,-0.030487999320030212,235.50001525878906,-102.9000015258789,-22.5
1017889,-2.9368820190429688,8.32495403289795,-3.7455713748931885,-0.3582339882850647,0.2896359860897064,0.007621999830007553,242.70001220703125,-102.9000015258789,-23.100000381469727
1017910,-2.9530317783355713,8.297439575195312,-3.738393545150757,-0.33536797761917114,0.2972579896450043,0.09146399796009064,237.90000915527344,-107.70000457763672,-23.100000381469727
1017930,-2.869889974594116,8.36084270477295,-3.708486318588257,-0.33536797761917114,0.2972579896450043,0.12195199728012085,235.50001525878906,-105.30000305175781,-21.900001525878906
1017950,-2.909367322921753,8.314187049865723,-3.7240381240844727,-0.3277460038661957,0.3201240003108978,0.038109999150037766,242.70001220703125,-105.30000305175781,-20.700000762939453
1017970,-2.8507494926452637,8.454751014709473,-3.65405535697937,-0.3125019967556,0.2591480016708374,-0.015243999660015106,240.3000030517578,-105.30000305175781,-21.900001525878906
1017990,-3.005070209503174,8.042032241821289,-3.7814598083496094,-0.6326259970664978,0.35061198472976685,-0.060975998640060425,233.10000610351562,-110.10000610351562,-22.5
1018010,-2.9045822620391846,8.44458293914795,-3.826918840408325,-0.16768398880958557,0.030487999320030212,0.28201398253440857,242.70001220703125,-105.30000305175781,-23.700000762939453
1018032,-2.8692917823791504,8.38955307006836,-3.789235830307007,-0.457319974899292,0.2591480016708374,-0.07621999830007553,230.70001220703125,-102.9000015258789,-24.30000114440918
1018052,-2.868095636367798,8.336318969726562,-3.8071799278259277,-0.36585599184036255,0.25152599811553955,-0.10670799762010574,237.90000915527344,-100.50000762939453,-22.5
1018072,-2.8860397338867188,8.319570541381836,-3.785646915435791,-0.39634400606155396,0.2591480016708374,-0.12195199728012085,237.90000915527344,-112.50000762939453,-22.5
1018092,-2.8070850372314453,8.257363319396973,-3.696523666381836,-0.457319974899292,0.2591480016708374,-0.060975998640060425,240.3000030517578,-105.30000305175781,-22.5
1018115,-2.7789721488952637,8.341103553771973,-3.6468777656555176,-0.4420759975910187,0.342989981174469,-0.015243999660015106,235.50001525878906,-102.9000015258789,-23.100000381469727
1018136,-2.832206964492798,8.245400428771973,-3.7007105350494385,-0.5487840175628662,0.4192099869251251,-0.08384199440479279,235.50001525878906,-100.50000762939453,-23.700000762939453
1018156,-2.912358045578003,8.228055000305176,-3.71386981010437,-0.44969800114631653,0.38109999895095825,-0.08384199440479279,237.90000915527344,-102.9000015258789,-21.900001525878906
1018177,-2.875871419906616,8.316579818725586,-3.687551498413086,-0.2896359860897064,0.28201398253440857,-0.06859800219535828,237.90000915527344,-100.50000762939453,-21.900001525878906
1018197,-2.847160577774048,8.385366439819336,-3.7001123428344727,-0.3582339882850647,0.2896359860897064,-0.1448179930448532,240.3000030517578,-105.30000305175781,-22.5
1018217,-2.879460334777832,8.37878704071045,-3.7162623405456543,-0.36585599184036255,0.3125019967556,-0.2134159952402115,235.50001525878906,-105.30000305175781,-22.5
1018239,-2.918339490890503,8.3458890914917,-3.728823184967041,-0.342989981174469,0.33536797761917114,-0.26677000522613525,242.70001220703125,-107.70000457763672,-21.30000114440918
1018259,-2.929704189300537,8.303421020507812,-3.7222437858581543,-0.35061198472976685,0.2743920087814331,-0.2896359860897064,233.10000610351562,-105.30000305175781,-22.5
1018279,-2.929704189300537,8.269925117492676,-3.7270288467407227,-0.3201240003108978,0.26677000522613525,-0.2134159952402115,235.50001525878906,-105.30000305175781,-23.700000762939453
1018299,-2.9649946689605713,8.301626205444336,-3.7928245067596436,-0.3125019967556,0.228659987449646,-0.13719600439071655,237.90000915527344,-110.10000610351562,-21.900001525878906
1018319,-2.921330213546753,8.349477767944336,-3.794619083404541,-0.2743920087814331,0.1448179930448532,-0.09908600151538849,233.10000610351562,-107.70000457763672,-21.30000114440918
1018339,-2.8836472034454346,8.316579818725586,-3.777272939682007,-0.3201240003108978,0.114329993724823,-0.04573199898004532,237.90000915527344,-98.10000610351562,-22.5
1018363,-2.8836472034454346,8.287270545959473,-3.8107688426971436,-0.426831990480423,0.20579399168491364,-0.13719600439071655,235.50001525878906,-110.10000610351562,-21.30000114440918
1018383,-2.7735888957977295,8.393141746520996,-3.678579330444336,-0.3201240003108978,0.1600620001554489,-0.08384199440479279,237.90000915527344,-105.30000305175781,-23.100000381469727
1018403,-2.8872361183166504,8.15747356414795,-3.7904319763183594,-0.6250039935112,0.2896359860897064,-0.19054999947547913,240.3000030517578,-110.10000610351562,-22.5
1018427,-2.920732021331787,8.231643676757812,-3.808974504470825,-0.2134159952402115,0.1448179930448532,-0.09908600151538849,242.70001220703125,-107.70000457763672,-21.30000114440918
1018448,-2.7119803428649902,8.52712631225586,-3.7192530632019043,-0.038109999150037766,0.15243999660015106,-0.17530599236488342,242.70001220703125,-107.70000457763672,-21.30000114440918
1018469,-2.826225519180298,8.46731185913086,-3.8323020935058594,-0.3277460038661957,0.426831990480423,-0.38109999895095825,240.3000030517578,-110.10000610351562,-22.5
1018489,-2.8387866020202637,8.49422836303711,-3.844862937927246,-0.19054999947547913,0.44969800114631653,-0.36585599184036255,245.10000610351562,-107.70000457763672,-21.30000114440918
1018509,-2.850151300430298,8.66350269317627,-3.868788719177246,-0.3582339882850647,0.5640279650688171,-0.4039659798145294,240.3000030517578,-105.30000305175781,-23.100000381469727
1018531,-2.8064868450164795,8.480470657348633,-3.7072901725769043,-0.5182960033416748,0.6554920077323914,-0.4878079891204834,242.70001220703125,-110.10000610351562,-21.900001525878906
1018551,-3.0068647861480713,8.390151023864746,-3.833498239517212,-0.7469559907913208,0.8460419774055481,-0.41158798336982727,237.90000915527344,-102.9000015258789,-23.700000762939453
1018573,-3.1707558631896973,8.34289836883545,-3.931593656539917,-0.5335400104522705,0.6478700041770935,-0.28201398253440857,235.50001525878906,-102.9000015258789,-23.100000381469727
1018593,-3.2323646545410156,8.454153060913086,-3.9423604011535645,-0.3201240003108978,0.3887220025062561,-0.1600620001554489,240.3000030517578,-105.30000305175781,-23.100000381469727
1018613,-3.2712438106536865,8.30102825164795,-3.905275344848633,-0.4878079891204834,0.19817200303077698,-0.1448179930448532,230.70001220703125,-105.30000305175781,-21.30000114440918
1018633,-3.3878817558288574,7.973844051361084,-3.925612211227417,-0.6097599864006042,0,-0.13719600439071655,235.50001525878906,-105.30000305175781,-21.30000114440918
1018653,-3.1498208045959473,8.075528144836426,-3.750356435775757,-0.35061198472976685,-0.457319974899292,0.1448179930448532,235.50001525878906,-100.50000762939453,-23.100000381469727
1018673,-2.951237440109253,8.356057167053223,-3.564333915710449,-0.41158798336982727,-0.457319974899292,0.06859800219535828,237.90000915527344,-107.70000457763672,-23.700000762939453
1018713,-3.219205379486084,8.59591293334961,-3.8861348628997803,-0.3201240003108978,-0.02286599949002266,-0.23628199100494385,237.90000915527344,-107.70000457763672,-21.900001525878906
1018733,-3.4835846424102783,8.421853065490723,-3.954921245574951,-0.3201240003108978,0.02286599949002266,-0.6554920077323914,235.50001525878906,-107.70000457763672,-21.900001525878906
1018753,-3.5254547595977783,8.381178855895996,-3.961500883102417,-0.2439039945602417,-0.04573199898004532,-0.5335400104522705,235.50001525878906,-105.30000305175781,-22.5
1018775,-3.517678737640381,8.680849075317383,-4.068568706512451,-0.4192099869251251,0.2134159952402115,-0.33536797761917114,237.90000915527344,-100.50000762939453,-23.100000381469727
1018837,-3.7629175186157227,7.846439361572266,-4.234852313995361,-1.4558019638061523,-0.060975998640060425,0.5487840175628662,237.90000915527344,-98.10000610351562,-22.5
1018858,-3.154007911682129,8.403310775756836,-3.791030168533325,-1.2347639799118042,-0.07621999830007553,2.8201398849487305,237.90000915527344,-105.30000305175781,-20.700000762939453
1018878,-2.9500410556793213,8.75322437286377,-3.2706458568573,-1.6082419157028198,0.426831990480423,2.957335948944092,240.3000030517578,-110.10000610351562,-24.30000114440918
1018898,-3.1133341789245605,8.65453052520752,-3.1169230937957764,-2.1646480560302734,1.5396440029144287,2.5762360095977783,233.10000610351562,-110.10000610351562,-23.100000381469727
1018918,-3.7748804092407227,8.290261268615723,-3.5338287353515625,-2.3704419136047363,2.3475759029388428,1.92836594581604,225.90000915527344,-112.50000762939453,-22.5
1018938,-4.064979553222656,8.33572006225586,-3.7485620975494385,-2.042695999145508,2.1036720275878906,1.9436099529266357,225.90000915527344,-114.9000015258789,-24.30000114440918
1018958,-4.161280632019043,9.049304962158203,-3.9507343769073486,-1.882633924484253,1.935987949371338,1.9436099529266357,228.3000030517578,-117.30000305175781,-23.100000381469727
1018979,-4.27552604675293,9.74913215637207,-4.200160026550293,-2.073184013366699,1.6234859228134155,1.6387299299240112,223.50001525878906,-114.9000015258789,-24.30000114440918
1018999,-4.595532417297363,9.519445419311523,-4.450183868408203,-2.3018438816070557,1.1814099550247192,1.2804960012435913,221.10000610351562,-119.70000457763672,-23.700000762939453
1019019,-4.568017959594727,9.147998809814453,-4.398743629455566,-2.492393970489502,0.6478700041770935,2.0045859813690186,223.50001525878906,-117.30000305175781,-24.30000114440918
1019039,-4.32636833190918,9.286767959594727,-4.239039421081543,-2.8277618885040283,0.5792719721794128,3.094532012939453,221.10000610351562,-117.30000305175781,-24.900001525878906
1019059,-4.048231601715088,9.551745414733887,-4.154701232910156,-3.254593849182129,0.6631140112876892,3.7195358276367188,218.70001220703125,-129.3000030517578,-24.900001525878906
1019079,-3.776076555252075,9.301721572875977,-3.9543232917785645,-3.6356940269470215,0.7469559907913208,3.971061944961548,213.90000915527344,-129.3000030517578,-25.500001907348633
1019099,-3.514090061187744,8.74126148223877,-3.588857889175415,-3.9329519271850586,0.7698220014572144,4.496979713439941,209.10000610351562,-119.70000457763672,-24.900001525878906
1019119,-3.2048499584198,8.225662231445312,-3.458462715148926,-4.024415969848633,1.3643379211425781,5.266801834106445,199.50001525878906,-129.3000030517578,-26.700000762939453
1019140,-2.729924440383911,8.77415943145752,-3.3424229621887207,-3.6280720233917236,1.2652519941329956,6.402479648590088,199.50001525878906,-131.70001220703125,-24.30000114440918
1019160,-2.330364942550659,9.11569881439209,-2.9201340675354004,-3.704291820526123,1.196653962135315,6.3719916343688965,194.70001220703125,-138.90000915527344,-26.100000381469727
1019180,-2.2669618129730225,9.377685546875,-2.789738893508911,-3.818621873855591,1.7759259939193726,5.838451862335205,187.5,-146.10000610351562,-28.500001907348633
1019200,-2.0612006187438965,9.483556747436523,-2.6635305881500244,-3.620450019836426,1.9131219387054443,5.175337791442871,182.70001220703125,-143.70001220703125,-29.100000381469727
1019220,-1.9355906248092651,9.517650604248047,-2.5504815578460693,-3.3917899131774902,2.1570260524749756,4.718018054962158,177.90000915527344,-141.3000030517578,-27.30000114440918
1019243,-1.8638135194778442,9.147998809814453,-2.3680479526519775,-3.3841679096221924,2.3018438816070557,4.260697841644287,170.70001220703125,-146.10000610351562,-29.700000762939453
1019263,-1.8787670135498047,7.911637306213379,-2.560650110244751,-3.5366079807281494,2.5152599811553955,4.07014799118042,168.3000030517578,-148.5,-29.700000762939453
1019284,-1.539620041847229,7.299736976623535,-2.850151300430298,-2.7210538387298584,2.088428020477295,5.365887641906738,165.90000915527344,-148.5,-29.700000762939453
1019304,-0.6280501484870911,7.421159744262695,-2.5259578227996826,-2.2027578353881836,0.7621999979019165,7.019861698150635,158.70001220703125,-158.10000610351562,-29.700000762939453
1019324,0.05801986902952194,8.78193473815918,-2.47990083694458,-1.9131219387054443,0.510673999786377,8.132674217224121,153.90000915527344,-155.70001220703125,-29.700000762939453
1019348,0.5383286476135254,9.637279510498047,-2.4930598735809326,-1.013725996017456,-0.3582339882850647,6.158576011657715,144.3000030517578,-162.90000915527344,-31.500001907348633
1019368,0.5586655139923096,9.397424697875977,-2.1150336265563965,-0.7774440050125122,-0.6478700041770935,4.489357948303223,139.5,-155.70001220703125,-32.10000228881836
1019388,0.8356057405471802,9.417162895202637,-1.8075881004333496,-0.6478700041770935,-0.3887220025062561,3.75002384185791,134.70001220703125,-158.10000610351562,-29.700000762939453
1019408,1.1615936756134033,9.901061058044434,-1.5509847402572632,-0.6250039935112,0.10670799762010574,3.399411916732788,127.50000762939453,-170.10000610351562,-31.500001907348633
1019432,1.438533902168274,9.822105407714844,-1.6048176288604736,-0.7698220014572144,0.8155539631843567,2.8811159133911133,127.50000762939453,-160.5,-29.700000762939453
1019452,1.4223840236663818,9.640868186950684,-1.5575642585754395,-0.3734779953956604,0.853663980960846,3.0640439987182617,120.30000305175781,-165.3000030517578,-33.30000305175781
1019492,1.431954264640808,9.035547256469727,-1.2734464406967163,-0.038109999150037766,0.5411620140075684,3.711913824081421,113.10000610351562,-172.5,-32.70000076293945
1019512,1.1442475318908691,8.785524368286133,-1.3739343881607056,-0.07621999830007553,0.6021379828453064,4.093013763427734,115.50000762939453,-170.10000610351562,-30.900001525878906
1019534,0.821848452091217,8.852516174316406,-1.6855669021606445,0.02286599949002266,0.060975998640060425,3.8491098880767822,105.9000015258789,-170.10000610351562,-32.70000076293945
1019554,0.7333232760429382,8.549257278442383,-1.8045973777770996,-0.1600620001554489,-0.3277460038661957,3.1859958171844482,103.50000762939453,-174.90000915527344,-30.900001525878906
1019574,0.6603498458862305,8.064762115478516,-1.8117750883102417,-0.20579399168491364,-0.7012239694595337,2.6067240238189697,96.30000305175781,-167.70001220703125,-33.30000305175781
1019594,0.8816627264022827,7.917020320892334,-1.658650517463684,-0.36585599184036255,-1.0365920066833496,2.6600780487060547,101.10000610351562,-172.5,-32.70000076293945
1019614,1.015048623085022,7.658024311065674,-1.6903520822525024,-0.739333987236023,-0.7088459730148315,2.5533699989318848,93.9000015258789,-167.70001220703125,-32.70000076293945
1019634,1.3990564346313477,8.232839584350586,-1.8087843656539917,-0.6097599864006042,-0.8155539631843567,2.957335948944092,93.9000015258789,-167.70001220703125,-31.500001907348633
1019654,1.7501662969589233,8.568398475646973,-1.6801836490631104,-0.6707359552383423,-0.800309956073761,2.8811159133911133,96.30000305175781,-177.3000030517578,-30.900001525878906
1019674,1.9427683353424072,9.12766170501709,-1.621565580368042,-0.7698220014572144,-0.800309956073761,2.8125178813934326,93.9000015258789,-174.90000915527344,-30.900001525878906
1019694,1.6765947341918945,8.73528003692627,-1.5940510034561157,-0.8307979702949524,-0.5335400104522705,1.8902559280395508,81.9000015258789,-167.70001220703125,-30.30000114440918
1019714,1.6831743717193604,9.337011337280273,-1.6879594326019287,-0.20579399168491364,-0.800309956073761,1.5625100135803223,79.5,-177.3000030517578,-31.500001907348633
1019734,1.549788475036621,9.73417854309082,-1.7543532848358154,0.17530599236488342,-1.067080020904541,0.571649968624115,89.10000610351562,-177.3000030517578,-32.10000228881836
1019754,1.3823083639144897,10.16843032836914,-1.6048176288604736,0.5945159792900085,-1.653973937034607,-0.3201240003108978,86.70000457763672,-174.90000915527344,-31.500001907348633
1019774,1.5312459468841553,10.09067153930664,-1.0784517526626587,-0.030487999320030212,-2.599102020263672,-0.9756159782409668,74.70000457763672,-174.90000915527344,-31.500001907348633
1019797,1.021030068397522,8.187978744506836,-1.2315763235092163,-0.6173819899559021,-1.3643379211425781,-1.7911700010299683,84.30000305175781,-174.90000915527344,-32.70000076293945
1019817,1.0497409105300903,8.72630786895752,-1.0323947668075562,0.2134159952402115,-1.8978779315948486,0.19054999947547913,81.9000015258789,-172.5,-32.70000076293945
1019837,0.9342993497848511,8.629408836364746,-1.0981905460357666,-0.457319974899292,-1.2500079870224,0.6097599864006042,86.70000457763672,-174.90000915527344,-33.30000305175781
1019857,0.9432714581489563,8.409890174865723,-1.104171872138977,-0.10670799762010574,-1.3872039318084717,1.1356779336929321,86.70000457763672,-167.70001220703125,-31.500001907348633
1019877,1.1699676513671875,8.445180892944336,-1.0491427183151245,0.07621999830007553,-1.1509219408035278,1.5015339851379395,86.70000457763672,-174.90000915527344,-31.500001907348633
1019900,1.2076506614685059,8.415273666381836,-1.134079098701477,0.228659987449646,-0.9527499675750732,1.4634239673614502,84.30000305175781,-170.10000610351562,-30.900001525878906
1019921,1.3757288455963135,8.463125228881836,-1.1729583740234375,0.6173819899559021,-0.9298839569091797,1.3643379211425781,81.9000015258789,-170.10000610351562,-30.900001525878906
1019985,1.7549514770507812,9.088184356689453,-1.2620816230773926,1.0365920066833496,-0.510673999786377,-0.19817200303077698,77.10000610351562,-177.3000030517578,-30.900001525878906
1020005,2.036078691482544,9.765880584716797,-1.431954264640808,1.1661659479141235,-0.38109999895095825,-0.5868939757347107,77.10000610351562,-172.5,-29.700000762939453
1020025,2.18800687789917,10.480661392211914,-1.6036213636398315,0.8917739987373352,-0.25152599811553955,-1.14329993724823,77.10000610351562,-172.5,-31.500001907348633
1020045,2.381207227706909,10.551241874694824,-1.7298294305801392,0.5945159792900085,-0.07621999830007553,-1.9512319564819336,77.10000610351562,-172.5,-29.700000762939453
1020065,2.3357481956481934,9.70845890045166,-1.712483286857605,0.18292799592018127,0.030487999320030212,-2.0579400062561035,77.10000610351562,-170.10000610351562,-30.900001525878906
1020088,2.202362537384033,8.67247486114502,-1.7238479852676392,-0.16768398880958557,0.39634400606155396,-1.2576299905776978,86.70000457763672,-172.5,-30.900001525878906
1020108,2.134772300720215,8.080313682556152,-1.9637033939361572,-0.4039659798145294,0.9756159782409668,-0.06859800219535828,86.70000457763672,-174.90000915527344,-30.900001525878906
1020128,2.569622278213501,9.899864196777344,-3.1665689945220947,0.8460419774055481,1.5472660064697266,1.7835479974746704,74.70000457763672,-167.70001220703125,-29.100000381469727
1020148,3.040958881378174,10.536288261413574,-3.5284454822540283,0.9832379817962646,1.3338500261306763,1.9740979671478271,77.10000610351562,-174.90000915527344,-29.700000762939453
1020171,2.6366143226623535,8.900367736816406,-3.001481533050537,-0.038109999150037766,0.426831990480423,-0.44969800114631653,81.9000015258789,-167.70001220703125,-28.500001907348633
1020212,2.40513277053833,9.142017364501953,-4.057203769683838,0.5945159792900085,1.4862899780273438,-0.23628199100494385,79.5,-170.10000610351562,-28.500001907348633
1020232,2.44401216506958,9.284375190734863,-4.0673723220825195,0.6936019659042358,1.021347999572754,-0.9756159782409668,74.70000457763672,-167.70001220703125,-29.100000381469727
1020256,2.4721248149871826,9.31607723236084,-3.809572696685791,0.6402480006217957,0.6631140112876892,-1.3033620119094849,77.10000610351562,-167.70001220703125,-29.100000381469727
1020276,2.2250919342041016,8.996668815612793,-3.6618313789367676,0.3201240003108978,0.9908599853515625,-1.8216580152511597,79.5,-170.10000610351562,-28.500001907348633
1020296,1.8703930377960205,8.522340774536133,-3.705495595932007,0.228659987449646,1.1204339265823364,-2.233245849609375,81.9000015258789,-165.3000030517578,-29.700000762939453
1020316,1.420589566230774,8.026480674743652,-3.654653549194336,0.342989981174469,1.0365920066833496,-2.28659987449646,84.30000305175781,-167.70001220703125,-28.500001907348633
1020340,0.9677953124046326,8.74724292755127,-4.131373405456543,0.2439039945602417,0.7012239694595337,-1.371959924697876,86.70000457763672,-172.5,-27.900001525878906
1020360,0.8804664611816406,8.837562561035156,-3.8173484802246094,-0.22103799879550934,0.13719600439071655,-1.7759259939193726,89.10000610351562,-167.70001220703125,-28.500001907348633
1020382,1.0168430805206299,8.689223289489746,-3.7485620975494385,-0.9832379817962646,0.2743920087814331,-1.882633924484253,89.10000610351562,-174.90000915527344,-26.700000762939453
1020442,1.303951621055603,8.109024047851562,-3.314310312271118,-1.8216580152511597,0.342989981174469,-0.9527499675750732,98.70000457763672,-167.70001220703125,-29.700000762939453
1020482,1.6359210014343262,8.224466323852539,-3.1007730960845947,-1.471045970916748,0.5259180068969727,-0.3125019967556,93.9000015258789,-170.10000610351562,-30.900001525878906
1020518,1.9607126712799072,8.088088989257812,-2.8597216606140137,-1.196653962135315,0.4344539940357208,-0.6173819899559021,91.5,-167.70001220703125,-29.100000381469727
1020538,1.934394359588623,7.972049713134766,-2.9255173206329346,-0.9222619533538818,0.5335400104522705,-0.5945159792900085,91.5,-165.3000030517578,-29.700000762939453
1020578,2.226288080215454,8.825599670410156,-2.9045822620391846,-0.25152599811553955,0.22103799879550934,-0.007621999830007553,93.9000015258789,-167.70001220703125,-30.30000114440918
1020600,1.8709912300109863,8.686830520629883,-3.014042377471924,-0.5259180068969727,0.5030519962310791,-0.4344539940357208,96.30000305175781,-170.10000610351562,-30.30000114440918
1020620,1.6550616025924683,8.490041732788086,-3.1157267093658447,-0.7012239694595337,0.35061198472976685,-0.6402480006217957,91.5,-170.10000610351562,-29.100000381469727
1020640,1.7681106328964233,8.565407752990723,-3.138456106185913,-0.739333987236023,-0.04573199898004532,-0.342989981174469,93.9000015258789,-174.90000915527344,-29.100000381469727
1020660,1.8566358089447021,8.659914016723633,-3.0810344219207764,-0.9375059604644775,-0.38109999895095825,-0.06859800219535828,91.5,-167.70001220703125,-31.500001907348633
1020680,2.0881171226501465,9.253870010375977,-3.1528115272521973,-0.800309956073761,-0.7621999979019165,0.33536797761917114,91.5,-165.3000030517578,-30.30000114440918
1020702,1.9816476106643677,9.152783393859863,-2.9045822620391846,-0.8384199738502502,-1.1585439443588257,-0.2134159952402115,101.10000610351562,-162.90000915527344,-28.500001907348633
1020723,2.054023027420044,9.203027725219727,-2.9404709339141846,-0.7926880121231079,-1.3795819282531738,-0.2591480016708374,96.30000305175781,-165.3000030517578,-29.100000381469727
1020744,1.9846383333206177,8.32076644897461,-2.512798547744751,-1.0289700031280518,-1.7454379796981812,-0.6326259970664978,96.30000305175781,-165.3000030517578,-29.100000381469727
1020764,1.9924142360687256,8.231643676757812,-2.0408637523651123,-1.013725996017456,-1.6082419157028198,-0.04573199898004532,96.30000305175781,-172.5,-30.30000114440918
1020788,1.7770828008651733,8.400918006896973,-1.9134594202041626,-1.3643379211425781,-0.8689079880714417,-0.038109999150037766,98.70000457763672,-167.70001220703125,-30.900001525878906
1020808,1.702314853668213,9.027771949768066,-1.714277744293213,-1.1661659479141235,-0.9298839569091797,0.2439039945602417,96.30000305175781,-160.5,-32.10000228881836
1020828,1.645491361618042,10.12656021118164,-1.6616411209106445,-1.242385983467102,-0.6554920077323914,0.12195199728012085,93.9000015258789,-165.3000030517578,-30.30000114440918
1020868,1.542610764503479,11.971233367919922,-0.9002051949501038,-1.3872039318084717,-1.5929979085922241,-2.088428020477295,93.9000015258789,-170.10000610351562,-31.500001907348633
1020888,0.9043921828269958,10.57397174835205,-0.5084215402603149,-1.8445239067077637,-0.7774440050125122,-3.147886037826538,98.70000457763672,-167.70001220703125,-31.500001907348633
1020908,0.36725977063179016,9.762889862060547,-0.6465925574302673,-1.875011920928955,-0.2439039945602417,-2.835383892059326,96.30000305175781,-162.90000915527344,-31.500001907348633
1020948,0.5323472619056702,9.67137336730957,-0.8272317051887512,-0.853663980960846,-0.7164679765701294,0.20579399168491364,101.10000610351562,-165.3000030517578,-33.30000305175781
1020968,0.42767223715782166,9.803563117980957,-0.8051004409790039,-0.1448179930448532,-1.0975680351257324,0.9222619533538818,101.10000610351562,-167.70001220703125,-32.70000076293945
1020990,0.47193479537963867,9.70546817779541,-0.7542582750320435,-0.1600620001554489,-1.0975680351257324,0.342989981174469,105.9000015258789,-165.3000030517578,-34.5
1021010,0.3235953450202942,9.3597412109375,-0.8565407395362854,-0.2972579896450043,-0.8155539631843567,-0.3201240003108978,101.10000610351562,-158.10000610351562,-33.30000305175781
1021031,0.37563377618789673,9.024781227111816,-0.9450659155845642,-0.35061198472976685,-0.571649968624115,-0.8765299916267395,105.9000015258789,-165.3000030517578,-33.30000305175781
1021051,0.48210322856903076,8.670082092285156,-1.105966329574585,-0.3734779953956604,-0.12195199728012085,-0.8384199738502502,96.30000305175781,-165.3000030517578,-33.900001525878906
1021073,0.5736191272735596,8.679054260253906,-1.1807342767715454,-0.19054999947547913,0.10670799762010574,-0.25152599811553955,105.9000015258789,-162.90000915527344,-32.70000076293945
1021093,0.8039041757583618,8.893787384033203,-1.0946016311645508,-0.1295740008354187,0.3125019967556,0.35061198472976685,103.50000762939453,-165.3000030517578,-33.900001525878906
1021113,1.0993868112564087,9.08997917175293,-1.110153317451477,-0.17530599236488342,0.685979962348938,0.7469559907913208,103.50000762939453,-162.90000915527344,-32.70000076293945
1021133,1.211837649345398,9.41058349609375,-1.0910128355026245,-0.04573199898004532,1.0823240280151367,0.8993960022926331,101.10000610351562,-162.90000915527344,-32.70000076293945
1021153,1.1346771717071533,9.411779403686523,-1.1227144002914429,0.1448179930448532,1.2271419763565063,0.7317119836807251,96.30000305175781,-162.90000915527344,-33.30000305175781
1021173,1.3284755945205688,9.44647216796875,-0.9881321787834167,0.571649968624115,1.2271419763565063,0.6631140112876892,103.50000762939453,-170.10000610351562,-32.10000228881836
1021233,1.1843230724334717,9.48236083984375,-1.2638760805130005,1.0442140102386475,1.9512319564819336,0.571649968624115,98.70000457763672,-170.10000610351562,-32.10000228881836
1021253,1.119125485420227,9.333422660827637,-1.2531095743179321,1.0594580173492432,1.875011920928955,0.44969800114631653,98.70000457763672,-162.90000915527344,-31.500001907348633
1021273,1.1472382545471191,9.404004096984863,-1.3410365581512451,0.9984819889068604,1.92836594581604,0.4344539940357208,91.5,-170.10000610351562,-29.700000762939453
1021293,1.0587130784988403,8.902161598205566,-1.329671859741211,0.6402480006217957,2.073184013366699,0.28201398253440857,91.5,-170.10000610351562,-30.900001525878906
1021313,1.1615936756134033,8.89857292175293,-1.3452235460281372,0.6478700041770935,2.080806016921997,0.6326259970664978,98.70000457763672,-165.3000030517578,-29.100000381469727
1021333,1.0910128355026245,8.784327507019043,-1.4546836614608765,0.3734779953956604,2.3475759029388428,0.6936019659042358,93.9000015258789,-170.10000610351562,-29.700000762939453
1021353,1.3858972787857056,9.405200004577637,-1.5073202848434448,0.4420759975910187,2.278977870941162,1.0442140102386475,86.70000457763672,-160.5,-29.100000381469727
1021417,2.506817102432251,9.328638076782227,-1.320699691772461,-0.09146399796009064,2.5228819847106934,1.5625100135803223,77.10000610351562,-165.3000030517578,-28.500001907348633
1021437,2.617473602294922,8.887207984924316,-1.1867156028747559,-0.38109999895095825,2.957335948944092,1.5701320171356201,84.30000305175781,-172.5,-27.900001525878906
1021457,2.6844656467437744,8.33871078491211,-1.2172209024429321,-0.44969800114631653,3.2164838314056396,1.8140360116958618,84.30000305175781,-170.10000610351562,-27.900001525878906
1021477,2.7089896202087402,8.197549819946289,-1.423580288887024,-0.19817200303077698,3.551851987838745,2.2180018424987793,84.30000305175781,-167.70001220703125,-29.100000381469727
1021497,2.518181800842285,8.35067367553711,-1.8297193050384521,-0.20579399168491364,3.658559799194336,2.4695279598236084,79.5,-167.70001220703125,-29.700000762939453
1021517,2.519378185272217,8.179006576538086,-1.9427683353424072,-0.12195199728012085,3.4832539558410645,2.5152599811553955,79.5,-170.10000610351562,-29.100000381469727
1021541,2.7221486568450928,9.00324821472168,-2.405730962753296,-0.007621999830007553,3.8414878845214844,2.8734939098358154,69.9000015258789,-170.10000610351562,-27.900001525878906
1021561,2.9614057540893555,10.161850929260254,-3.254495859146118,0.1600620001554489,4.5503339767456055,3.0106899738311768,65.10000610351562,-167.70001220703125,-29.700000762939453
1021584,2.4840877056121826,9.230542182922363,-3.9028828144073486,0.18292799592018127,3.6890478134155273,1.2652519941329956,60.30000305175781,-172.5,-29.100000381469727
1021604,2.1652774810791016,9.06784725189209,-4.780358791351318,1.3643379211425781,4.146368026733398,1.4939119815826416,65.10000610351562,-172.5,-27.900001525878906
1021684,2.1826236248016357,9.401611328125,-4.785741806030273,1.7225719690322876,0.5564059615135193,-1.0975680351257324,57.900001525878906,-170.10000610351562,-24.900001525878906
1021741,2.1479313373565674,7.434319019317627,-3.5344269275665283,-1.0365920066833496,1.3109840154647827,0.2743920087814331,65.10000610351562,-170.10000610351562,-25.500001907348633
1021795,2.915348768234253,7.496525764465332,-3.4626495838165283,-0.6554920077323914,0.7012239694595337,1.6082419157028198,55.500003814697266,-170.10000610351562,-26.100000381469727
1021835,3.5487823486328125,7.8410563468933105,-3.285001277923584,-0.4725639820098877,0.39634400606155396,1.653973937034607,48.30000305175781,-165.3000030517578,-27.30000114440918
1021857,3.648672103881836,8.343496322631836,-3.449490547180176,-0.3887220025062561,0.46494197845458984,1.7835479974746704,53.10000228881836,-170.10000610351562,-27.30000114440918
1021897,3.6026151180267334,8.350075721740723,-3.362759828567505,-0.7164679765701294,0.6097599864006042,1.021347999572754,45.900001525878906,-170.10000610351562,-27.30000114440918
1021918,3.5194733142852783,8.196950912475586,-3.296365976333618,-0.853663980960846,0.7164679765701294,0.739333987236023,48.30000305175781,-162.90000915527344,-26.100000381469727
1021938,3.5182769298553467,8.278897285461426,-3.2084388732910156,-0.8765299916267395,0.739333987236023,0.48018598556518555,50.70000076293945,-170.10000610351562,-26.700000762939453
1021959,3.466238498687744,8.099453926086426,-3.1073527336120605,-1.0899460315704346,0.7621999979019165,0.26677000522613525,45.900001525878906,-170.10000610351562,-27.900001525878906
1022043,3.66900897026062,8.030069351196289,-2.5833795070648193,-1.478667974472046,-0.6707359552383423,0.800309956073761,41.10000228881836,-167.70001220703125,-27.900001525878906
1022103,4.466333389282227,9.255663871765137,-2.3925719261169434,-2.4771499633789062,-0.853663980960846,2.583858013153076,43.5,-170.10000610351562,-27.30000114440918
1022162,4.0021748542785645,7.512077808380127,-1.4403282403945923,-2.7744078636169434,-1.6920839548110962,2.8125178813934326,29.100000381469727,-174.90000915527344,-29.100000381469727
1022202,4.044044494628906,7.7752604484558105,-1.1544159650802612,-3.2850818634033203,-0.8993960022926331,3.0792880058288574,24.30000114440918,-174.90000915527344,-31.500001907348633
1022222,4.017726421356201,8.038443565368652,-1.126901388168335,-2.378063917160034,-1.0823240280151367,3.6433160305023193,26.700000762939453,-170.10000610351562,-30.900001525878906
1022262,3.9214253425598145,8.474489212036133,-0.5712265372276306,-2.0655620098114014,-1.3872039318084717,3.8262438774108887,21.900001525878906,-170.10000610351562,-31.500001907348633
1022318,3.9453511238098145,9.173718452453613,-0.2470330446958542,-2.4695279598236084,-0.5792719721794128,2.1722700595855713,12.300000190734863,-172.5,-35.10000228881836
1022338,4.054811000823975,9.63548469543457,-0.2177240401506424,-2.8582499027252197,-0.2972579896450043,1.7301939725875854,0.30000001192092896,-172.5,-34.5
1022381,3.814955949783325,9.768272399902344,-0.49227166175842285,-3.201239824295044,0.426831990480423,-0.6021379828453064,2.700000047683716,-172.5,-35.10000228881836
1022437,3.472219944000244,9.237720489501953,-0.26138848066329956,-1.7149499654769897,-0.2439039945602417,-2.4619059562683105,5.100000381469727,-177.3000030517578,-36.900001525878906
1022500,3.3705356121063232,8.356057167053223,-0.022131290286779404,0.23628199100494385,0.39634400606155396,-2.240867853164673,9.90000057220459,-170.10000610351562,-36.30000305175781
1022521,3.368143081665039,8.612062454223633,-0.052038438618183136,0.4344539940357208,0.8307979702949524,-1.8140360116958618,17.100000381469727,-177.3000030517578,-34.5
1022541,3.2467200756073,8.591127395629883,-0.1782466024160385,0.5792719721794128,1.1509219408035278,-1.6692179441452026,17.100000381469727,-172.5,-35.70000076293945
1022562,3.088212251663208,8.52712631225586,-0.352904349565506,0.914639949798584,1.189031958580017,-1.478667974472046,24.30000114440918,-170.10000610351562,-36.900001525878906
1022622,2.908769369125366,9.112110137939453,-0.8966163396835327,1.829279899597168,0.2743920087814331,-2.088428020477295,24.30000114440918,-177.3000030517578,-35.10000228881836
1022646,3.102567672729492,9.75810432434082,-0.9570287466049194,2.3628199100494385,-0.17530599236488342,-2.2484898567199707,26.700000762939453,-174.90000915527344,-33.900001525878906
1022666,2.816655158996582,9.444677352905273,-1.0754610300064087,1.6768399477005005,-0.4192099869251251,-3.4832539558410645,33.900001525878906,-172.5,-33.30000305175781
1022686,2.6509697437286377,9.053491592407227,-1.0904146432876587,1.5548880100250244,-0.5335400104522705,-3.902463912963867,29.100000381469727,-177.3000030517578,-32.70000076293945
1022706,2.534331798553467,8.67845630645752,-1.1603974103927612,1.653973937034607,-0.853663980960846,-4.359784126281738,36.30000305175781,-172.5,-32.70000076293945
1022728,2.5618462562561035,8.449965476989746,-1.2004729509353638,1.6158639192581177,-1.1204339265823364,-4.740883827209473,41.10000228881836,-165.3000030517578,-31.500001907348633
1022748,2.831608772277832,8.80705738067627,-1.3272792100906372,1.6920839548110962,-1.2347639799118042,-4.588443756103516,45.900001525878906,-177.3000030517578,-32.10000228881836
1022768,2.7281301021575928,8.2202787399292,-1.3081387281417847,1.242385983467102,-0.9756159782409668,-4.687530040740967,55.500003814697266,-172.5,-33.30000305175781
1022788,2.765813112258911,8.40450668334961,-1.633528470993042,1.5396440029144287,-0.8155539631843567,-3.955817937850952,55.500003814697266,-170.10000610351562,-31.500001907348633
1022809,3.148026466369629,9.579259872436523,-1.916450023651123,2.027451992034912,-0.6250039935112,-3.056421995162964,55.500003814697266,-170.10000610351562,-33.30000305175781
1022829,3.3902742862701416,10.377182006835938,-2.339337110519409,1.5853760242462158,-0.41158798336982727,-2.6600780487060547,57.900001525878906,-170.10000610351562,-29.700000762939453
1022849,2.8423755168914795,9.236523628234863,-2.2256898880004883,0.9756159782409668,-0.6097599864006042,-3.2317278385162354,65.10000610351562,-177.3000030517578,-32.10000228881836
1022873,2.516387462615967,8.41048812866211,-2.1509220600128174,1.013725996017456,-0.5259180068969727,-2.682943820953369,62.70000076293945,-162.90000915527344,-30.30000114440918
1022893,2.358477830886841,8.535500526428223,-2.342926025390625,0.853663980960846,-0.2743920087814331,-1.981719970703125,69.9000015258789,-174.90000915527344,-30.30000114440918
1022913,2.145538806915283,8.406301498413086,-2.462554693222046,0.6936019659042358,-0.28201398253440857,-1.8521459102630615,65.10000610351562,-167.70001220703125,-28.500001907348633
1022933,2.1234076023101807,8.54985523223877,-2.539116859436035,0.7240899801254272,-0.4878079891204834,-1.4558019638061523,65.10000610351562,-170.10000610351562,-29.700000762939453
1022953,2.0097603797912598,8.680251121520996,-2.378216505050659,0.5487840175628662,-0.5487840175628662,-1.4634239673614502,69.9000015258789,-170.10000610351562,-30.30000114440918
1022973,1.949347972869873,8.779542922973633,-2.4517879486083984,0.3048799932003021,-0.457319974899292,-1.6082419157028198,72.30000305175781,-167.70001220703125,-30.30000114440918
1022993,2.101276159286499,9.158764839172363,-2.489470958709717,0.4192099869251251,-0.46494197845458984,-1.5853760242462158,77.10000610351562,-165.3000030517578,-30.30000114440918
1023013,2.2310733795166016,9.679747581481934,-2.504424571990967,0.22103799879550934,-0.4192099869251251,-1.577754020690918,77.10000610351562,-172.5,-30.900001525878906
1023033,2.1060614585876465,8.86687183380127,-2.537322521209717,-0.19054999947547913,-0.3201240003108978,-1.653973937034607,74.70000457763672,-170.10000610351562,-30.30000114440918
1023053,2.0845282077789307,9.106128692626953,-2.396758794784546,0.33536797761917114,-0.6021379828453064,-0.6707359552383423,79.5,-167.70001220703125,-29.700000762939453
1023073,1.9858347177505493,9.052295684814453,-2.354290723800659,-0.08384199440479279,-0.35061198472976685,-0.426831990480423,79.5,-170.10000610351562,-29.100000381469727
1023093,1.84048593044281,9.08698844909668,-2.44401216506958,-0.19817200303077698,-0.2591480016708374,-0.4039659798145294,81.9000015258789,-172.5,-27.30000114440918
1023177,2.1329777240753174,9.136035919189453,-2.396160840988159,0.04573199898004532,-0.3582339882850647,-0.4725639820098877,77.10000610351562,-167.70001220703125,-27.900001525878906
1023399,1.4421226978302002,9.073230743408203,-3.001481533050537,0.5030519962310791,0.7240899801254272,-0.800309956073761,81.9000015258789,-162.90000915527344,-26.100000381469727
1023461,1.5091147422790527,8.773561477661133,-2.4822933673858643,-0.2439039945602417,0.4192099869251251,-0.7850660085678101,84.30000305175781,-167.70001220703125,-26.700000762939453
1023502,1.6323322057724,9.101343154907227,-2.24183988571167,-0.4344539940357208,0.685979962348938,-0.6783579587936401,86.70000457763672,-165.3000030517578,-27.30000114440918
1023720,1.449898600578308,9.25626277923584,-2.6396050453186035,-0.4039659798145294,-0.19817200303077698,-0.5945159792900085,91.5,-167.70001220703125,-26.700000762939453
1023879,1.5743123292922974,8.882423400878906,-2.1868107318878174,-0.44969800114631653,-0.8155539631843567,1.189031958580017,86.70000457763672,-165.3000030517578,-27.900001525878906
1023899,1.7250443696975708,8.884217262268066,-2.1174261569976807,-0.28201398253440857,-0.8460419774055481,1.1356779336929321,81.9000015258789,-162.90000915527344,-28.500001907348633
1023942,1.9565256834030151,9.153382301330566,-2.2065494060516357,-0.2743920087814331,-1.1661659479141235,0.8460419774055481,86.70000457763672,-167.70001220703125,-29.700000762939453
1023962,1.9517405033111572,9.183887481689453,-2.2908875942230225,-0.3734779953956604,-1.3872039318084717,0.7164679765701294,84.30000305175781,-170.10000610351562,-25.500001907348633
1023982,1.9427683353424072,9.22635555267334,-2.3142151832580566,-0.5259180068969727,-1.6311079263687134,0.6326259970664978,91.5,-172.5,-27.900001525878906
1024002,1.930207371711731,9.441088676452637,-2.3058412075042725,-0.7850660085678101,-1.806414008140564,0.39634400606155396,84.30000305175781,-170.10000610351562,-29.100000381469727
1024022,1.9038890600204468,9.47637939453125,-2.2992615699768066,-0.9070180058479309,-1.8673899173736572,0.060975998640060425,81.9000015258789,-172.5,-29.100000381469727
1024042,1.8697949647903442,9.315478324890137,-2.167072057723999,-1.0289700031280518,-1.7759259939193726,-0.3048799932003021,81.9000015258789,-170.10000610351562,-27.30000114440918
1024062,1.8680005073547363,9.286767959594727,-2.110846519470215,-1.0365920066833496,-1.5320219993591309,-0.5487840175628662,81.9000015258789,-165.3000030517578,-27.900001525878906
1024102,1.7699050903320312,9.15756893157959,-1.8757764101028442,-1.0747020244598389,-0.7164679765701294,-0.8917739987373352,84.30000305175781,-172.5,-29.100000381469727
1024122,1.6030231714248657,9.17252254486084,-2.0665838718414307,-0.8917739987373352,-0.33536797761917114,-1.1737879514694214,81.9000015258789,-172.5,-29.700000762939453
1024142,1.422982096672058,8.923694610595703,-2.119220495223999,-0.6402480006217957,-0.19817200303077698,-1.425313949584961,86.70000457763672,-162.90000915527344,-28.500001907348633
1024185,1.5037314891815186,8.81782341003418,-2.0857245922088623,0.18292799592018127,-0.13719600439071655,-1.189031958580017,91.5,-170.10000610351562,-30.30000114440918
1024207,1.6389117240905762,8.911731719970703,-2.065985918045044,0.19817200303077698,0.007621999830007553,-0.7698220014572144,91.5,-167.70001220703125,-28.500001907348633
1024267,1.5402181148529053,9.035547256469727,-2.3297669887542725,-0.426831990480423,1.1204339265823364,0.739333987236023,84.30000305175781,-167.70001220703125,-29.100000381469727
1024437,1.8548413515090942,8.992481231689453,-2.0402655601501465,-0.6021379828453064,0.1295740008354187,0.38109999895095825,84.30000305175781,-167.70001220703125,-28.500001907348633
1024599,2.1706607341766357,9.04691219329834,-2.0797431468963623,-0.030487999320030212,0.9527499675750732,-0.41158798336982727,89.10000610351562,-167.70001220703125,-29.700000762939453
1024619,2.20595121383667,8.932068824768066,-1.9762643575668335,-0.1295740008354187,1.0289700031280518,-0.2439039945602417,81.9000015258789,-162.90000915527344,-29.700000762939453
1024662,2.3207948207855225,9.48236083984375,-1.9499460458755493,-0.49542999267578125,0.9298839569091797,-0.3582339882850647,84.30000305175781,-174.90000915527344,-29.700000762939453
1024682,1.9971994161605835,8.90754508972168,-2.0558173656463623,-0.5945159792900085,1.1204339265823364,-0.6250039935112,81.9000015258789,-162.90000915527344,-28.500001907348633
1024702,1.9786570072174072,8.944629669189453,-2.327374219894409,-0.16768398880958557,0.7164679765701294,-0.3734779953956604,81.9000015258789,-160.5,-28.500001907348633
1024722,1.8811596632003784,9.03016471862793,-2.384197950363159,-0.12195199728012085,0.09908600151538849,0,79.5,-165.3000030517578,-29.100000381469727
1024742,1.8398877382278442,9.053491592407227,-2.3955626487731934,-0.04573199898004532,-0.1295740008354187,0.015243999660015106,86.70000457763672,-165.3000030517578,-27.30000114440918
1024762,1.9014965295791626,9.16654109954834,-2.4314510822296143,0.05335399881005287,-0.5564059615135193,-0.015243999660015106,81.9000015258789,-165.3000030517578,-30.900001525878906
1024782,1.9170482158660889,9.044519424438477,-2.4637508392333984,0.09146399796009064,-0.8993960022926331,-0.06859800219535828,84.30000305175781,-170.10000610351562,-29.700000762939453
1024802,1.9672921895980835,9.01222038269043,-2.3124208450317383,0.09146399796009064,-1.2347639799118042,0.1600620001554489,84.30000305175781,-162.90000915527344,-29.100000381469727
1024826,2.25978422164917,9.083398818969727,-2.0815374851226807,-0.33536797761917114,-1.2118979692459106,0.5182960033416748,79.5,-174.90000915527344,-28.500001907348633
1024847,2.408721685409546,9.229944229125977,-1.9619089365005493,-0.5868939757347107,-0.9832379817962646,0.6707359552383423,81.9000015258789,-170.10000610351562,-29.700000762939453
1024867,2.4870784282684326,9.078614234924316,-1.8189527988433838,-0.8612859845161438,-0.685979962348938,0.685979962348938,86.70000457763672,-172.5,-29.700000762939453
1024887,2.4003477096557617,8.948817253112793,-1.7047075033187866,-0.8765299916267395,-0.36585599184036255,0.5945159792900085,79.5,-165.3000030517578,-30.30000114440918
1024907,2.393768072128296,8.74903678894043,-1.5898640155792236,-0.8231759667396545,-0.09146399796009064,0.36585599184036255,77.10000610351562,-170.10000610351562,-30.30000114440918
1024927,2.3291687965393066,8.632997512817383,-1.5796955823898315,-0.6326259970664978,0.1295740008354187,0.06859800219535828,74.70000457763672,-170.10000610351562,-30.30000114440918
1024947,2.155707359313965,8.2142972946167,-1.5647419691085815,-0.4344539940357208,0.17530599236488342,-0.4192099869251251,84.30000305175781,-172.5,-28.500001907348633
1024967,1.9595164060592651,7.495927810668945,-1.4696372747421265,-0.1295740008354187,-0.05335399881005287,-1.0594580173492432,79.5,-170.10000610351562,-29.100000381469727
1025030,0.6388167142868042,3.9979875087738037,-0.5754135251045227,-0.44969800114631653,0.5411620140075684,-0.46494197845458984,81.9000015258789,-165.3000030517578,-29.700000762939453
1025092,-0.2237054705619812,6.233846187591553,-1.702314853668213,-3.0183119773864746,4.527467727661133,5.198204040527344,72.30000305175781,-172.5,-29.100000381469727
1025140,-0.7548564076423645,16.22283363342285,-5.187095642089844,-1.4329359531402588,7.614377975463867,9.298839569091797,60.30000305175781,-170.10000610351562,-32.10000228881836
1025160,2.3680479526519775,19.599349975585938,-6.271529197692871,-0.19054999947547913,6.714982032775879,8.719568252563477,45.900001525878906,-170.10000610351562,-32.70000076293945
1025200,9.747936248779297,19.599349975585938,-7.08500337600708,1.5091559886932373,1.753059983253479,3.9863059520721436,31.500001907348633,-167.70001220703125,-30.900001525878906
1025244,9.67556095123291,19.577219009399414,-3.1647744178771973,-3.208861827850342,-0.114329993724823,3.5747179985046387,24.30000114440918,-167.70001220703125,-30.30000114440918
1025264,6.266744136810303,14.490612030029297,-1.6329302787780762,-4.115880012512207,-1.8445239067077637,-3.5442299842834473,24.30000114440918,-170.10000610351562,-33.30000305175781
1025284,2.3835997581481934,6.324763774871826,-0.515599250793457,-1.806414008140564,-3.346057891845703,-14.397957801818848,36.30000305175781,-167.70001220703125,-32.10000228881836
1025326,-1.1663787364959717,-2.6778860092163086,-0.12142302095890045,-1.3033620119094849,-2.1112940311431885,-4.10825777053833,60.30000305175781,-174.90000915527344,-32.10000228881836
1025347,0.2960807681083679,0.14056359231472015,0.4204944968223572,0.5868939757347107,-3.8262438774108887,-0.20579399168491364,60.30000305175781,-174.90000915527344,-32.10000228881836
1025367,0.4827013909816742,0.4653552174568176,0.33615633845329285,1.8978779315948486,-3.0792880058288574,-1.189031958580017,62.70000076293945,-177.3000030517578,-32.10000228881836
1025387,0.8738868832588196,1.1053682565689087,0.021533146500587463,1.2118979692459106,-2.698187828063965,-0.23628199100494385,67.5,-172.5,-29.700000762939453
1025430,0.13936731219291687,-0.4426257908344269,0.28591233491897583,-0.22103799879550934,-2.126538038253784,-0.7698220014572144,60.30000305175781,-174.90000915527344,-30.900001525878906
1025493,-0.512010395526886,-0.2398553341627121,0.23925718665122986,-1.1051899194717407,0.22103799879550934,-0.5792719721794128,60.30000305175781,-174.90000915527344,-30.900001525878906
1025513,-0.5508896708488464,-0.35230621695518494,0.21832218766212463,-0.9908599853515625,0.457319974899292,-0.5792719721794128,67.5,-179.70001220703125,-31.500001907348633
1025533,-0.47492551803588867,-0.4575793743133545,0.2691643238067627,-0.8993960022926331,0.7012239694595337,-0.4420759975910187,65.10000610351562,-172.5,-30.900001525878906
1025555,-0.25421077013015747,-0.35709136724472046,0.30505290627479553,-0.7621999979019165,1.0518360137939453,0.5945159792900085,62.70000076293945,-172.5,-32.10000228881836
1025575,0.8475685715675354,2.584575891494751,-0.5604599714279175,0.5259180068969727,2.6219680309295654,4.375028133392334,60.30000305175781,-167.70001220703125,-30.900001525878906
1025598,2.49485445022583,7.603593349456787,-1.4618613719940186,1.1280559301376343,2.6600780487060547,9.550365447998047,50.70000076293945,-170.10000610351562,-32.10000228881836
1025618,2.829216241836548,13.771045684814453,-2.747868776321411,2.1494040489196777,8.704323768615723,15.343085289001465,43.5,-170.10000610351562,-31.500001907348633
1025638,12.881607055664062,19.599349975585938,-7.456450462341309,-3.567095994949341,11.128119468688965,26.440717697143555,26.700000762939453,-167.70001220703125,-32.10000228881836
1025658,13.89127254486084,19.577817916870117,-4.0643815994262695,-2.042695999145508,-1.189031958580017,0.1295740008354187,7.500000476837158,-167.70001220703125,-33.30000305175781
1025681,14.476256370544434,19.598752975463867,-8.3219633102417,9.123534202575684,7.378095626831055,4.420759677886963,5.100000381469727,-165.3000030517578,-33.30000305175781
1025702,17.08475685119629,19.599349975585938,-8.440993309020996,1.196653962135315,-1.0594580173492432,-1.8597679138183594,-9.300000190734863,-167.70001220703125,-32.10000228881836
1025764,3.7784690856933594,9.85560131072998,-1.396663784980774,1.577754020690918,-6.303393840789795,-19.344635009765625,21.900001525878906,-177.3000030517578,-30.30000114440918
1025879,0.8984107375144958,0.8691017627716064,0.23507018387317657,-0.4039659798145294,-1.425313949584961,-0.7240899801254272,65.10000610351562,-170.10000610351562,-28.500001907348633
1025934,0.1399654597043991,-0.2075556069612503,0.9707860350608826,-1.882633924484253,0.13719600439071655,0.3582339882850647,69.9000015258789,-172.5,-29.100000381469727
1025980,-0.356493204832077,-0.6561628580093384,0.6699201464653015,-2.0503180027008057,1.1814099550247192,-0.8917739987373352,81.9000015258789,-174.90000915527344,-30.30000114440918
1026020,-0.5496934056282043,-0.6495832800865173,0.6304426789283752,-0.800309956073761,0.9984819889068604,-0.114329993724823,79.5,-177.3000030517578,-29.100000381469727
1026040,-0.8362038731575012,-0.5072252154350281,0.6298445463180542,-0.9603719711303711,1.3338500261306763,1.067080020904541,77.10000610351562,-165.3000030517578,-29.700000762939453
1026064,0.10946016013622284,2.984135389328003,-0.4414295256137848,0.13719600439071655,3.300325870513916,5.167716026306152,72.30000305175781,-170.10000610351562,-30.30000114440918
1026084,1.7609329223632812,8.97812557220459,-2.0223214626312256,0.5411620140075684,5.061007976531982,12.60678768157959,60.30000305175781,-174.90000915527344,-30.30000114440918
1026104,3.1528115272521973,17.908998489379883,-4.42386531829834,0.49542999267578125,10.800374031066895,22.439167022705078,38.70000076293945,-177.3000030517578,-31.500001907348633
1026124,13.086172103881836,19.552696228027344,-5.365940570831299,-5.670767784118652,0.7698220014572144,4.824726104736328,14.700000762939453,-170.10000610351562,-32.70000076293945
1026144,10.654122352600098,19.599349975585938,-3.944154739379883,1.7683039903640747,-1.5929979085922241,-7.728707790374756,19.5,-172.5,-32.10000228881836
1026186,18.324708938598633,19.599349975585938,-8.95539665222168,-1.8673899173736572,0.9603719711303711,1.6234859228134155,5.100000381469727,-165.3000030517578,-31.500001907348633
1026221,7.493535041809082,19.274559020996094,-3.4943511486053467,-0.5487840175628662,-7.4390716552734375,-7.553401947021484,14.700000762939453,-174.90000915527344,-29.100000381469727
1026261,1.4301598072052002,3.2467200756073,-0.7638285756111145,3.4756319522857666,-8.879630088806152,-26.9209041595459,55.500003814697266,-172.5,-29.100000381469727
1026281,-2.9249191284179688,-5.231956481933594,1.3081387281417847,1.1051899194717407,-7.24852180480957,-20.472692489624023,77.10000610351562,-172.5,-27.900001525878906
1026344,0.8858497142791748,2.0426583290100098,-0.011364716105163097,1.1128119230270386,-0.3887220025062561,0.20579399168491364,79.5,-172.5,-27.30000114440918
1026400,0.30684733390808105,-0.6274519562721252,0.5562729835510254,-0.7164679765701294,0.3125019967556,1.5167779922485352,81.9000015258789,-165.3000030517578,-27.900001525878906
1026420,0.08493629842996597,-0.3636709153652191,0.4079335033893585,-1.3186060190200806,1.0518360137939453,1.6768399477005005,77.10000610351562,-162.90000915527344,-27.30000114440918
1026460,-0.19977974891662598,-0.6525740027427673,0.258995920419693,-1.9740979671478271,1.2728739976882935,1.0823240280151367,79.5,-167.70001220703125,-29.100000381469727
1026480,-0.16209673881530762,-0.8230447173118591,0.20277047157287598,-1.7911700010299683,1.1814099550247192,1.3567159175872803,74.70000457763672,-172.5,-28.500001907348633
1026500,0.007775858510285616,-0.47014036774635315,0.1854243278503418,-1.2881180047988892,1.1051899194717407,2.2561118602752686,72.30000305175781,-170.10000610351562,-26.700000762939453
1026520,0.5801987051963806,1.4493004083633423,-0.10826388001441956,-0.5487840175628662,1.6311079263687134,3.9329519271850586,62.70000076293945,-170.10000610351562,-28.500001907348633
1026540,1.8680005073547363,6.092086315155029,-1.3637659549713135,0.9756159782409668,3.6433160305023193,9.672317504882812,62.70000076293945,-167.70001220703125,-29.700000762939453
1026560,2.4344418048858643,11.397016525268555,-2.3734312057495117,-0.5868939757347107,5.510705947875977,12.919289588928223,53.10000228881836,-174.90000915527344,-29.700000762939453
1026582,8.036050796508789,19.599349975585938,-5.810360908508301,-1.92836594581604,9.86286735534668,22.797401428222656,24.30000114440918,-165.3000030517578,-30.30000114440918
1026602,11.908428192138672,19.528770446777344,-3.8442649841308594,-5.754610061645508,0.12195199728012085,9.161643981933594,17.100000381469727,-177.3000030517578,-30.30000114440918
1026622,9.408190727233887,19.599349975585938,-4.687646389007568,2.03507399559021,6.082355976104736,-1.1585439443588257,14.700000762939453,-172.5,-31.500001907348633
1026642,16.86823081970215,19.598752975463867,-7.933170318603516,-1.4024479389190674,11.882698059082031,20.175434112548828,5.100000381469727,-162.90000915527344,-32.10000228881836
1026662,16.993242263793945,19.599349975585938,-7.972049713134766,-1.5625100135803223,2.126538038253784,-0.5411620140075684,-6.900000095367432,-170.10000610351562,-33.30000305175781
1026682,9.792797088623047,19.599349975585938,-5.724228382110596,0.6707359552383423,-7.629621982574463,-8.201272010803223,0.30000001192092896,-165.3000030517578,-33.900001525878906
1026702,7.381682395935059,18.050758361816406,-3.189298391342163,-1.0975680351257324,-6.074733734130859,-7.012239933013916,9.90000057220459,-172.5,-32.10000228881836
1026723,3.9722673892974854,12.012505531311035,-2.528350353240967,0.05335399881005287,-5.785098075866699,-14.984851837158203,14.700000762939453,-172.5,-31.500001907348633
1026743,1.9654978513717651,3.7246363162994385,-0.9689916372299194,3.0106899738311768,-7.10370397567749,-24.314180374145508,33.900001525878906,-172.5,-30.30000114440918
1026763,-1.8028029203414917,-4.547680854797363,1.0467501878738403,2.225623846054077,-7.1875457763671875,-18.902559280395508,53.10000228881836,-167.70001220703125,-30.30000114440918
1026783,0.5664414167404175,-0.9839451909065247,0.3887929320335388,-2.484771966934204,0.1448179930448532,2.7058098316192627,62.70000076293945,-174.90000915527344,-29.100000381469727
1026803,0.9055884480476379,0.9360937476158142,-0.023327575996518135,-1.1737879514694214,0.030487999320030212,3.666181802749634,62.70000076293945,-170.10000610351562,-31.500001907348633
1026823,1.0096653699874878,1.2889981269836426,0.705808699131012,-0.02286599949002266,-0.3201240003108978,1.2347639799118042,65.10000610351562,-170.10000610351562,-30.30000114440918
1026883,-0.09031958878040314,-0.9055884480476379,0.6974347233772278,-0.9756159782409668,-0.26677000522613525,0.08384199440479279,60.30000305175781,-172.5,-32.10000228881836
1026923,-0.07835672795772552,-0.2577996253967285,0.6220687031745911,-0.5640279650688171,-0.46494197845458984,-0.12195199728012085,57.900001525878906,-172.5,-28.500001907348633
1026943,-0.10288058966398239,-0.7554545998573303,0.7195659875869751,-0.9603719711303711,-0.457319974899292,-0.39634400606155396,60.30000305175781,-174.90000915527344,-30.30000114440918
1026964,-0.11723602563142776,-1.0204318761825562,0.9199438691139221,-0.8689079880714417,-0.3582339882850647,-0.015243999660015106,57.900001525878906,-172.5,-30.900001525878906
1027008,1.324886679649353,3.27363657951355,-0.09390844404697418,0.09146399796009064,2.7210538387298584,4.596065998077393,55.500003814697266,-174.90000915527344,-30.900001525878906
1027029,2.6282401084899902,9.23532772064209,-2.0725653171539307,2.4695279598236084,7.080837726593018,13.28514575958252,45.900001525878906,-172.5,-32.10000228881836
1027050,8.068350791931152,19.599349975585938,-5.673984050750732,-0.49542999267578125,11.75312328338623,27.942251205444336,26.700000762939453,-177.3000030517578,-32.10000228881836
1027070,16.5482234954834,19.51262092590332,-7.353569507598877,-6.615895748138428,7.065593719482422,16.11290740966797,-2.1000001430511475,-170.10000610351562,-33.900001525878906
1027090,12.99166488647461,19.598154067993164,-9.06306266784668,11.166230201721191,2.3551979064941406,-2.789651870727539,9.90000057220459,-172.5,-30.900001525878906
1027110,16.812602996826172,19.598752975463867,-9.16355037689209,1.829279899597168,2.03507399559021,10.343053817749023,2.700000047683716,-162.90000915527344,-32.10000228881836
1027131,17.343154907226562,19.599349975585938,-6.939056396484375,-3.239349842071533,-3.300325870513916,-1.2347639799118042,-6.900000095367432,-170.10000610351562,-30.30000114440918
1027151,9.22216796875,19.550901412963867,-4.775573253631592,-0.228659987449646,-8.879630088806152,-12.301907539367676,7.500000476837158,-165.3000030517578,-33.30000305175781
1027171,4.984325408935547,14.63237190246582,-2.5259578227996826,-2.5000159740448,-6.242417812347412,-11.234827995300293,19.5,-174.90000915527344,-29.700000762939453
1027252,0.4886828064918518,-0.20695747435092926,0.8720924258232117,-1.8369019031524658,-1.1356779336929321,2.378063917160034,77.10000610351562,-170.10000610351562,-29.100000381469727
1027359,0.31881019473075867,-0.9701879024505615,0.515001118183136,-0.5792719721794128,1.242385983467102,2.3018438816070557,65.10000610351562,-172.5,-30.900001525878906
1027378,0.3445303440093994,-0.33017492294311523,0.4928697943687439,-0.44969800114631653,0.9222619533538818,2.195136070251465,65.10000610351562,-170.10000610351562,-30.30000114440918
1027421,0.2709587514400482,-0.6346296668052673,0.6735090017318726,-1.0442140102386475,0.7088459730148315,0.9070180058479309,60.30000305175781,-170.10000610351562,-31.500001907348633
1027441,0.4635607898235321,-0.28651049733161926,0.90977543592453,-1.0899460315704346,0.7774440050125122,1.4634239673614502,57.900001525878906,-167.70001220703125,-30.900001525878906
1027461,1.3876917362213135,2.0229194164276123,0.19798532128334045,-0.9070180058479309,1.981719970703125,3.567095994949341,57.900001525878906,-172.5,-32.10000228881836
1027481,2.1957828998565674,4.984923362731934,-0.47313109040260315,-0.1600620001554489,3.2850818634033203,6.570163726806641,48.30000305175781,-172.5,-30.900001525878906
1027523,12.854092597961426,19.599349975585938,-7.930777549743652,-3.2164838314056396,13.673867225646973,21.09769630432129,9.90000057220459,-174.90000915527344,-33.30000305175781
1027546,11.949700355529785,19.599349975585938,-5.403623580932617,-0.28201398253440857,-5.960403919219971,-5.625035762786865,5.100000381469727,-170.10000610351562,-34.5
1027566,13.898449897766113,19.597557067871094,-6.596320629119873,4.64179801940918,3.1859958171844482,6.051867961883545,7.500000476837158,-177.3000030517578,-32.70000076293945
1027586,18.883373260498047,19.599349975585938,-8.001956939697266,-2.682943820953369,6.730226039886475,4.870458126068115,-4.5,-165.3000030517578,-32.10000228881836
1027606,10.209104537963867,19.599349975585938,-6.067562103271484,1.1661659479141235,-9.077801704406738,-9.237863540649414,-4.5,-170.10000610351562,-32.70000076293945
1027626,6.753632068634033,15.628877639770508,-2.1622867584228516,-1.7987920045852661,-4.580821990966797,-7.362851619720459,9.90000057220459,-170.10000610351562,-30.30000114440918
1027646,4.550671577453613,12.004729270935059,-2.149725914001465,-1.3643379211425781,-4.649419784545898,-11.974162101745605,9.90000057220459,-174.90000915527344,-30.900001525878906
1027667,1.3464198112487793,6.270930767059326,0.11843230575323105,1.653973937034607,-5.030519962310791,-20.587020874023438,26.700000762939453,-174.90000915527344,-30.900001525878906
1027708,-2.280121088027954,-4.507007122039795,0.06220686808228493,0.12195199728012085,0,-8.269869804382324,65.10000610351562,-172.5,-28.500001907348633
1027728,-0.01734614558517933,0.7255474328994751,-0.2793327569961548,0.46494197845458984,-1.1204339265823364,-0.228659987449646,67.5,-172.5,-30.30000114440918
1027748,0.08673073351383209,0.6465925574302673,0.061010584235191345,1.9740979671478271,-0.9832379817962646,-3.1250200271606445,79.5,-167.70001220703125,-26.700000762939453
1027768,0.45877566933631897,-0.3152213394641876,-0.05383286625146866,1.0518360137939453,-0.5792719721794128,-2.0045859813690186,79.5,-170.10000610351562,-27.30000114440918
1027790,0.3989613652229309,-0.0059814294800162315,-0.12441373616456985,0.6554920077323914,-0.6936019659042358,-0.25152599811553955,72.30000305175781,-170.10000610351562,-27.30000114440918
1027810,0.27155691385269165,-0.6304426789283752,0.052636582404375076,-0.114329993724823,-0.8612859845161438,0.114329993724823,74.70000457763672,-170.10000610351562,-29.100000381469727
1027832,0.23148132860660553,-0.5951522588729858,0.44681280851364136,-0.8155539631843567,-0.9298839569091797,0.8612859845161438,72.30000305175781,-167.70001220703125,-28.500001907348633
1027852,0.3427359163761139,-0.20097604393959045,0.5108140707015991,-1.7759259939193726,-0.4344539940357208,1.3262280225753784,72.30000305175781,-174.90000915527344,-27.900001525878906
1027872,0.06280501186847687,-0.6328352689743042,0.5532822608947754,-2.332331895828247,0.030487999320030212,1.0823240280151367,69.9000015258789,-170.10000610351562,-28.500001907348633
1027892,0.08553444594144821,-0.3014640510082245,0.3911854922771454,-2.042695999145508,0.426831990480423,1.478667974472046,67.5,-170.10000610351562,-30.30000114440918
1027952,1.702314853668213,9.263440132141113,-1.9308055639266968,2.2103798389434814,4.00154972076416,10.807995796203613,50.70000076293945,-172.5,-30.30000114440918
1027974,6.3983354568481445,19.215343475341797,-4.8569207191467285,-1.2347639799118042,9.596097946166992,23.8492374420166,43.5,-167.70001220703125,-30.30000114440918
1027994,13.68610954284668,19.525779724121094,-7.3105034828186035,-4.474113941192627,8.208893775939941,17.68303871154785,21.900001525878906,-167.70001220703125,-30.900001525878906
1028016,10.754611015319824,19.599349975585938,-5.101561546325684,2.7210538387298584,-2.9725799560546875,-6.448211669921875,17.100000381469727,-162.90000915527344,-32.10000228881836
1028036,17.948476791381836,19.599349975585938,-8.668886184692383,-3.239349842071533,5.3582658767700195,7.317119598388672,0.30000001192092896,-167.70001220703125,-30.900001525878906
1028056,14.564781188964844,19.599349975585938,-8.36263656616211,0.2439039945602417,-3.300325870513916,-5.541193962097168,2.700000047683716,-167.70001220703125,-31.500001907348633
1028078,8.630006790161133,19.599349975585938,-5.17692756652832,0.1600620001554489,-9.702805519104004,-9.024447441101074,17.100000381469727,-174.90000915527344,-31.500001907348633
1028099,4.219300746917725,12.892374038696289,-2.4577693939208984,-3.0183119773864746,-6.6844940185546875,-12.545811653137207,33.900001525878906,-170.10000610351562,-29.700000762939453
1028119,1.4821982383728027,5.943148612976074,-0.03648672252893448,0.1295740008354187,-6.112843990325928,-23.03368377685547,48.30000305175781,-172.5,-29.100000381469727
1028141,-2.5110042095184326,-4.133167743682861,0.8344094157218933,0.5411620140075684,-4.8018598556518555,-23.727285385131836,74.70000457763672,-170.10000610351562,-27.900001525878906
1028161,-2.0247139930725098,-5.655441761016846,0.28471603989601135,-2.027451992034912,1.1280559301376343,-4.077769756317139,77.10000610351562,-167.70001220703125,-29.700000762939453
1028185,0.7835673093795776,0.9037940502166748,0.28351977467536926,-1.2804960012435913,-1.013725996017456,5.510705947875977,79.5,-170.10000610351562,-29.700000762939453
1028205,1.2985683679580688,1.918244481086731,0.9941136240959167,0.6250039935112,-0.7545779943466187,2.1722700595855713,84.30000305175781,-172.5,-30.900001525878906
1028225,1.3691492080688477,0.39477434754371643,1.1334809064865112,-1.1814099550247192,0.7164679765701294,1.5091559886932373,81.9000015258789,-170.10000610351562,-28.500001907348633
1028245,0.7195659875869751,0.23327575623989105,0.599937379360199,-1.4100699424743652,1.425313949584961,1.4481799602508545,69.9000015258789,-172.5,-30.900001525878906
1028269,0.09331030398607254,-0.8726906180381775,0.4677478075027466,-1.0975680351257324,1.1051899194717407,0.2972579896450043,72.30000305175781,-165.3000030517578,-30.900001525878906
1028289,-0.032299719750881195,-0.8960181474685669,0.41271865367889404,-0.6707359552383423,0.5030519962310791,0.9070180058479309,72.30000305175781,-174.90000915527344,-30.30000114440918
1028309,0.015551717020571232,-0.30804362893104553,0.4976549446582794,-0.5182960033416748,0.10670799762010574,0.7774440050125122,69.9000015258789,-172.5,-30.900001525878906
1028329,0.023327575996518135,-0.815268874168396,0.5449082255363464,-0.6707359552383423,0.07621999830007553,0.2439039945602417,65.10000610351562,-167.70001220703125,-29.700000762939453
1028349,0.2954826354980469,-0.5395249724388123,0.5604599714279175,-0.3887220025062561,0.39634400606155396,1.3795819282531738,62.70000076293945,-165.3000030517578,-30.900001525878906
1028369,0.9576268792152405,2.5863702297210693,-0.2739494740962982,0.8612859845161438,2.0960500240325928,5.175337791442871,67.5,-174.90000915527344,-30.900001525878906
1028389,1.6472856998443604,7.3015313148498535,-1.5737141370773315,0.9298839569091797,4.565577983856201,10.022930145263672,60.30000305175781,-177.3000030517578,-30.900001525878906
1028409,3.276029109954834,16.232404708862305,-3.49076247215271,1.1814099550247192,10.411651611328125,20.472692489624023,45.900001525878906,-174.90000915527344,-30.900001525878906
1028429,13.999536514282227,19.599349975585938,-7.06107759475708,-5.327777862548828,14.527531623840332,22.721181869506836,14.700000762939453,-172.5,-32.70000076293945
1028449,10.477072715759277,19.599349975585938,-4.224085807800293,-1.5472660064697266,-7.629621982574463,-7.522913932800293,14.700000762939453,-170.10000610351562,-32.70000076293945
1028469,10.986091613769531,19.597557067871094,-6.539496898651123,6.585407733917236,6.181441783905029,-0.5259180068969727,21.900001525878906,-170.10000610351562,-32.10000228881836
1028489,16.87779998779297,19.599349975585938,-7.894290924072266,-2.6600780487060547,7.324741840362549,6.989373683929443,7.500000476837158,-170.10000610351562,-30.900001525878906
1028509,8.165249824523926,19.595163345336914,-6.547871112823486,3.3384358882904053,-8.993959426879883,-14.260761260986328,19.5,-160.5,-32.10000228881836
1028532,5.316893100738525,14.954172134399414,-2.780766725540161,0.6783579587936401,-8.589993476867676,-11.798855781555176,31.500001907348633,-170.10000610351562,-32.10000228881836
1028552,2.9883222579956055,10.338303565979004,-1.411617398262024,-0.6478700041770935,-4.778994083404541,-16.34918975830078,38.70000076293945,-177.3000030517578,-30.900001525878906
1028572,0.5335435271263123,2.2878968715667725,-1.3123257160186768,2.5762360095977783,-4.64179801940918,-24.756256103515625,62.70000076293945,-167.70001220703125,-29.700000762939453
1028593,-2.908769369125366,-4.816845417022705,-0.0957028716802597,3.567095994949341,-3.7424018383026123,-17.03516960144043,89.10000610351562,-167.70001220703125,-28.500001907348633
1028613,-0.4695422351360321,-1.5001425743103027,-0.5628525614738464,-1.2804960012435913,-1.0594580173492432,0.9451279640197754,93.9000015258789,-167.70001220703125,-27.900001525878906
1028633,0.23028504848480225,2.0976874828338623,-0.4677478075027466,-0.5182960033416748,-1.7225719690322876,2.538125991821289,91.5,-162.90000915527344,-29.700000762939453
1028653,0.6406111121177673,0.6788922548294067,-0.08553444594144821,-0.04573199898004532,-1.2500079870224,-0.49542999267578125,86.70000457763672,-165.3000030517578,-28.500001907348633
1028676,0.6238631010055542,0.0544310100376606,0.16508746147155762,-1.2118979692459106,-0.9070180058479309,1.806414008140564,86.70000457763672,-162.90000915527344,-26.700000762939453
1028696,0.3768300712108612,-0.25660333037376404,0.36546534299850464,-1.8216580152511597,-0.6173819899559021,1.8978779315948486,84.30000305175781,-162.90000915527344,-28.500001907348633
1028716,0.1573116034269333,-0.5084215402603149,0.4521960914134979,-2.240867853164673,-0.25152599811553955,2.0198299884796143,79.5,-177.3000030517578,-31.500001907348633
1028736,0.0017944289138540626,-0.2960807681083679,0.409129798412323,-2.332331895828247,0.007621999830007553,2.0045859813690186,84.30000305175781,-167.70001220703125,-29.100000381469727
1028756,0.042468149214982986,-0.5819931030273438,0.509019672870636,-2.5000159740448,0.04573199898004532,1.8369019031524658,77.10000610351562,-172.5,-29.100000381469727
1028780,0.06220686808228493,-0.8475685715675354,0.8996070027351379,-2.599102020263672,0.3048799932003021,2.6295900344848633,77.10000610351562,-170.10000610351562,-30.30000114440918
1028800,1.22200608253479,3.765310049057007,-0.029907148331403732,-0.46494197845458984,3.513741970062256,8.460419654846191,72.30000305175781,-165.3000030517578,-30.30000114440918
1028860,8.814234733581543,19.245250701904297,-4.771984577178955,-1.0442140102386475,-5.068629741668701,-3.246971845626831,21.900001525878906,-172.5,-32.70000076293945
1028880,2.793327569961548,11.723602294921875,-0.4139149487018585,4.00154972076416,-7.60675573348999,-13.010753631591797,41.10000228881836,-174.90000915527344,-32.70000076293945
1028900,7.60598611831665,19.599349975585938,-3.8053855895996094,0.426831990480423,9.840002059936523,11.867453575134277,24.30000114440918,-167.70001220703125,-31.500001907348633
1028923,16.304182052612305,19.49467658996582,-7.566508769989014,-3.353679895401001,11.836965560913086,1.524399995803833,24.30000114440918,-167.70001220703125,-31.500001907348633
1028943,3.413601875305176,11.551337242126465,-3.1229045391082764,-0.015243999660015106,-16.69217872619629,-23.468137741088867,36.30000305175781,-172.5,-32.10000228881836
1028963,-0.4844958186149597,3.777272939682007,1.3470180034637451,4.405515670776367,-4.047281742095947,-17.050413131713867,57.900001525878906,-165.3000030517578,-30.900001525878906
1028983,-2.0558173656463623,1.2387540340423584,-2.5738091468811035,0.6707359552383423,3.7424018383026123,-3.460387945175171,67.5,-170.10000610351562,-30.30000114440918
1029067,1.6676225662231445,4.520764350891113,-0.28591233491897583,-0.9375059604644775,0.18292799592018127,0.35061198472976685,67.5,-172.5,-30.900001525878906
1029159,2.972172498703003,10.890389442443848,-1.2363615036010742,-1.4024479389190674,3.361301898956299,4.565577983856201,55.500003814697266,-167.70001220703125,-30.900001525878906
1029179,5.272630214691162,16.319133758544922,-3.514688014984131,-2.324709892272949,6.265284061431885,10.564091682434082,41.10000228881836,-167.70001220703125,-33.30000305175781
1029223,1.4923666715621948,8.510976791381836,-3.142045021057129,2.850627899169922,-1.0747020244598389,-0.36585599184036255,45.900001525878906,-172.5,-31.500001907348633
1029244,1.3942712545394897,8.708961486816406,-1.5240682363510132,0.07621999830007553,-3.3765459060668945,0.739333987236023,43.5,-177.3000030517578,-31.500001907348633
1029284,2.8005053997039795,9.80894660949707,-1.5862751007080078,1.707327961921692,-3.5289859771728516,-1.3033620119094849,41.10000228881836,-167.70001220703125,-30.900001525878906
1029304,3.025407075881958,9.162952423095703,-1.435543179512024,0.26677000522613525,-2.2637338638305664,-1.9664759635925293,48.30000305175781,-179.70001220703125,-30.30000114440918
1029324,3.099576950073242,8.091079711914062,-1.4648520946502686,0.3201240003108978,-2.1722700595855713,-2.027451992034912,48.30000305175781,-172.5,-30.30000114440918
1029344,3.3131139278411865,6.971356391906738,-0.6053206920623779,0.5564059615135193,-2.294221878051758,-1.4329359531402588,55.500003814697266,-172.5,-30.30000114440918
1029408,3.65106463432312,7.943936824798584,-0.5724228024482727,-1.5167779922485352,1.6387299299240112,1.6311079263687134,43.5,-177.3000030517578,-30.30000114440918
1029428,3.499136447906494,8.091079711914062,-0.5927596688270569,-1.9436099529266357,2.28659987449646,1.8445239067077637,43.5,-170.10000610351562,-30.900001525878906
1029491,3.776674747467041,10.02009105682373,-2.2585878372192383,0.6402480006217957,3.1402640342712402,2.0655620098114014,41.10000228881836,-177.3000030517578,-29.700000762939453
1029521,4.344910621643066,11.587225914001465,-3.7126734256744385,1.0518360137939453,1.7378159761428833,-0.1600620001554489,31.500001907348633,-172.5,-28.500001907348633
1029541,3.8083763122558594,9.742552757263184,-3.2293739318847656,2.4619059562683105,-0.5182960033416748,-2.03507399559021,36.30000305175781,-174.90000915527344,-29.700000762939453
1029583,3.987819194793701,10.000351905822754,-3.0977823734283447,1.1737879514694214,-0.6250039935112,-1.5320219993591309,43.5,-172.5,-28.500001907348633
1029604,3.814955949783325,9.504491806030273,-2.8298144340515137,0.33536797761917114,-0.7926880121231079,-1.3262280225753784,36.30000305175781,-172.5,-30.30000114440918
1029624,3.47879958152771,8.78014087677002,-2.5259578227996826,-0.6478700041770935,-0.7774440050125122,-1.3643379211425781,43.5,-170.10000610351562,-28.500001907348633
1029644,3.2215981483459473,7.720231533050537,-2.2107365131378174,-1.2042759656906128,-0.6936019659042358,-1.3567159175872803,45.900001525878906,-174.90000915527344,-30.900001525878906
1029664,3.0840251445770264,7.184295177459717,-1.8327100276947021,-1.2804960012435913,-0.6173819899559021,-0.46494197845458984,38.70000076293945,-174.90000915527344,-27.900001525878906
1029684,3.2323646545410156,7.490544319152832,-1.7310258150100708,-1.2652519941329956,-0.20579399168491364,0.5335400104522705,43.5,-172.5,-29.700000762939453
1029704,3.380105972290039,7.756718158721924,-1.8045973777770996,-0.8993960022926331,-0.12195199728012085,0.49542999267578125,43.5,-179.70001220703125,-31.500001907348633
1029724,3.6259427070617676,7.634098529815674,-1.6939408779144287,-0.6326259970664978,-0.2439039945602417,0.2591480016708374,38.70000076293945,-172.5,-30.900001525878906
1029744,3.791030168533325,7.521049499511719,-1.8051954507827759,-0.4878079891204834,-0.038109999150037766,0.17530599236488342,41.10000228881836,-177.3000030517578,-29.100000381469727
1029767,3.997389554977417,7.559928894042969,-2.0139474868774414,-0.038109999150037766,0.12195199728012085,0.44969800114631653,41.10000228881836,-172.5,-29.100000381469727
1029809,4.017127990722656,8.276504516601562,-2.563042640686035,0.02286599949002266,0.3125019967556,0.9222619533538818,41.10000228881836,-177.3000030517578,-29.100000381469727
1029829,3.8520407676696777,8.189773559570312,-2.9249191284179688,0.4192099869251251,0.16768398880958557,0.1600620001554489,41.10000228881836,-170.10000610351562,-30.900001525878906
1029849,3.8675923347473145,8.42663860321045,-3.087614059448242,0.7698220014572144,0.007621999830007553,-0.1448179930448532,43.5,-170.10000610351562,-30.900001525878906
1029869,3.741384267807007,8.245400428771973,-2.841179132461548,1.14329993724823,-0.8841519951820374,-1.2576299905776978,43.5,-167.70001220703125,-30.900001525878906
1029889,3.6498684883117676,8.186782836914062,-2.820244073867798,0.7545779943466187,-1.1204339265823364,-1.6158639192581177,38.70000076293945,-167.70001220703125,-30.30000114440918
1029909,3.8352928161621094,7.725614547729492,-2.6479790210723877,0.5945159792900085,-1.0823240280151367,-1.7606819868087769,38.70000076293945,-177.3000030517578,-29.700000762939453
1029929,4.937072277069092,10.173813819885254,-2.906376600265503,0.9832379817962646,-1.3338500261306763,0.5259180068969727,41.10000228881836,-170.10000610351562,-30.30000114440918
1029950,5.222386360168457,10.396323204040527,-2.7030081748962402,-0.5335400104522705,-0.7088459730148315,-0.28201398253440857,43.5,-172.5,-30.900001525878906
1029970,4.635009765625,9.203625679016113,-2.501433849334717,-1.3186060190200806,-0.6783579587936401,-0.3277460038661957,41.10000228881836,-170.10000610351562,-28.500001907348633
1029990,4.295264720916748,8.499013900756836,-2.4374325275421143,-1.4862899780273438,-0.5411620140075684,-0.2591480016708374,45.900001525878906,-174.90000915527344,-29.100000381469727
1030050,3.811965227127075,8.361440658569336,-1.6329302787780762,-0.9908599853515625,-1.2195199728012085,-1.4634239673614502,36.30000305175781,-174.90000915527344,-30.900001525878906
1030070,3.5577542781829834,8.34289836883545,-1.5109091997146606,-1.0365920066833496,-1.0747020244598389,-1.9740979671478271,45.900001525878906,-174.90000915527344,-30.900001525878906
1030154,1.696333408355713,9.421948432922363,-1.6413042545318604,-1.1204339265823364,-0.6936019659042358,-2.942091941833496,55.500003814697266,-172.5,-29.700000762939453
1030177,0.6693220138549805,9.917210578918457,-1.7962234020233154,-0.739333987236023,-0.36585599184036255,-2.6600780487060547,62.70000076293945,-167.70001220703125,-32.10000228881836
1030197,0.44501838088035583,10.602682113647461,-2.074359893798828,-0.9222619533538818,-0.4344539940357208,-2.339953899383545,60.30000305175781,-174.90000915527344,-30.900001525878906
1030239,-0.2398553341627121,9.833470344543457,-1.735212802886963,-1.0061039924621582,-0.7469559907913208,-2.0198299884796143,69.9000015258789,-167.70001220703125,-32.70000076293945
1030259,0.11065644770860672,10.536886215209961,-1.6550616025924683,-1.2118979692459106,-0.7317119836807251,-1.5853760242462158,72.30000305175781,-172.5,-31.500001907348633
1030300,0.031701575964689255,10.042820930480957,-1.6508746147155762,-1.196653962135315,-0.6173819899559021,-1.524399995803833,74.70000457763672,-174.90000915527344,-31.500001907348633
1030360,0.6310408115386963,9.277795791625977,-1.6430987119674683,-0.2134159952402115,-1.14329993724823,0.228659987449646,77.10000610351562,-167.70001220703125,-32.10000228881836
1030380,0.7751932740211487,9.295740127563477,-1.655659794807434,-0.228659987449646,-1.189031958580017,0.1448179930448532,77.10000610351562,-165.3000030517578,-30.900001525878906
1030420,0.9594213366508484,9.082202911376953,-1.6024249792099,-0.2972579896450043,-1.2347639799118042,-0.22103799879550934,81.9000015258789,-172.5,-33.30000305175781
1030440,0.8876441717147827,9.086389541625977,-1.6801836490631104,-0.26677000522613525,-1.1814099550247192,-0.1600620001554489,77.10000610351562,-170.10000610351562,-32.70000076293945
1030480,0.7207622528076172,9.524828910827637,-1.721455454826355,-0.4344539940357208,-1.1280559301376343,-0.2896359860897064,81.9000015258789,-165.3000030517578,-34.5
1030504,0.7524638772010803,10.133139610290527,-1.6490801572799683,-0.3125019967556,-1.1661659479141235,-0.38109999895095825,77.10000610351562,-167.70001220703125,-32.70000076293945
1030524,0.7452861666679382,9.944725036621094,-1.5796955823898315,-0.8079319596290588,-0.9756159782409668,-1.1051899194717407,74.70000457763672,-170.10000610351562,-33.900001525878906
1030564,0.7165752649307251,9.332226753234863,-1.3410365581512451,-0.800309956073761,-0.4878079891204834,-0.3734779953956604,77.10000610351562,-165.3000030517578,-33.900001525878906
1030601,0.7937357425689697,9.485949516296387,-1.3051480054855347,-0.7698220014572144,0.05335399881005287,0.08384199440479279,77.10000610351562,-165.3000030517578,-34.5
1030621,0.7566508650779724,9.558324813842773,-1.293783187866211,-0.5487840175628662,0.19817200303077698,0.19054999947547913,79.5,-170.10000610351562,-35.10000228881836
1030663,0.6005355715751648,9.53798770904541,-1.4618613719940186,-0.06859800219535828,0.3277460038661957,0.15243999660015106,77.10000610351562,-172.5,-32.70000076293945
1030684,0.4426257908344269,9.149792671203613,-1.4726279973983765,0.1295740008354187,0.26677000522613525,0.114329993724823,79.5,-165.3000030517578,-33.900001525878906
1030704,0.3941762149333954,8.877039909362793,-1.5515828132629395,0.38109999895095825,0.09908600151538849,0.39634400606155396,77.10000610351562,-165.3000030517578,-33.30000305175781
1030727,0.9354956150054932,9.47219181060791,-1.3500087261199951,0.3734779953956604,0.015243999660015106,1.1737879514694214,77.10000610351562,-182.10000610351562,-33.900001525878906
1030787,1.2172209024429321,9.65462589263916,-1.2650723457336426,0.007621999830007553,0.6478700041770935,1.5015339851379395,67.5,-170.10000610351562,-33.30000305175781
1030808,1.1633881330490112,9.439892768859863,-1.3691492080688477,-0.44969800114631653,0.967993974685669,1.067080020904541,72.30000305175781,-174.90000915527344,-32.70000076293945
1030828,1.0682833194732666,9.21439266204834,-1.513899803161621,-0.2896359860897064,1.021347999572754,0.9070180058479309,67.5,-172.5,-32.70000076293945
1030848,1.107162594795227,9.21738338470459,-1.6042194366455078,0.015243999660015106,0.7621999979019165,0.8307979702949524,65.10000610351562,-167.70001220703125,-33.900001525878906
1030868,1.3619714975357056,9.68632698059082,-1.6389117240905762,0.426831990480423,0.5640279650688171,0.8460419774055481,65.10000610351562,-174.90000915527344,-32.70000076293945
1030981,1.3667566776275635,9.186878204345703,-1.8028029203414917,0.6783579587936401,0.3734779953956604,-0.4039659798145294,65.10000610351562,-170.10000610351562,-33.900001525878906
1031016,1.7059037685394287,8.56779956817627,-1.9427683353424072,-0.17530599236488342,1.067080020904541,-0.19817200303077698,65.10000610351562,-170.10000610351562,-32.70000076293945
1031036,1.8871411085128784,8.388357162475586,-2.223297357559204,0.015243999660015106,1.189031958580017,0.22103799879550934,62.70000076293945,-170.10000610351562,-33.900001525878906
1031076,2.426666021347046,9.188074111938477,-2.158698081970215,0.17530599236488342,1.3338500261306763,0.5259180068969727,65.10000610351562,-172.5,-30.30000114440918
1031096,2.6312308311462402,9.201831817626953,-2.387188673019409,0.3201240003108978,1.600619912147522,0.07621999830007553,55.500003814697266,-167.70001220703125,-31.500001907348633
1031158,3.24372935295105,8.552248001098633,-2.549285411834717,0.17530599236488342,1.6692179441452026,-0.12195199728012085,65.10000610351562,-167.70001220703125,-29.100000381469727
1031198,3.1928870677948,8.36084270477295,-3.1815223693847656,0.33536797761917114,1.9436099529266357,0.3125019967556,57.900001525878906,-167.70001220703125,-30.30000114440918
1031218,3.261075496673584,8.698793411254883,-3.437527656555176,0.9527499675750732,1.2195199728012085,0.08384199440479279,62.70000076293945,-167.70001220703125,-31.500001907348633
1031258,3.1976723670959473,8.316579818725586,-3.6983180046081543,1.699705958366394,0.571649968624115,-1.013725996017456,69.9000015258789,-177.3000030517578,-29.100000381469727
1031278,3.789235830307007,8.97334098815918,-3.8825459480285645,2.835383892059326,-0.7850660085678101,-1.1204339265823364,65.10000610351562,-172.5,-29.100000381469727
1031299,3.9118549823760986,9.128259658813477,-3.8203392028808594,2.743919849395752,-1.0518360137939453,-1.2118979692459106,60.30000305175781,-167.70001220703125,-27.30000114440918
1031319,4.002772808074951,8.811244010925293,-3.562539577484131,2.1722700595855713,-1.4024479389190674,-1.653973937034607,65.10000610351562,-167.70001220703125,-28.500001907348633
1031339,3.971071243286133,8.884217262268066,-3.443509101867676,1.5853760242462158,-1.7225719690322876,-1.9969639778137207,74.70000457763672,-170.10000610351562,-26.100000381469727
1031359,3.883742332458496,8.571389198303223,-3.133072853088379,1.3033620119094849,-1.875011920928955,-3.102154016494751,72.30000305175781,-167.70001220703125,-27.30000114440918
1031379,3.577493190765381,7.833280563354492,-2.8920211791992188,1.6158639192581177,-1.7301939725875854,-3.971061944961548,72.30000305175781,-167.70001220703125,-28.500001907348633
1031399,3.374124526977539,7.826700687408447,-2.5773980617523193,0.8155539631843567,-2.7286758422851562,-2.843005895614624,81.9000015258789,-160.5,-26.100000381469727
1031419,3.4686310291290283,7.918814659118652,-2.2974672317504883,0.5640279650688171,-2.797273874282837,-2.591480016708374,84.30000305175781,-165.3000030517578,-26.700000762939453
1031439,3.6743922233581543,8.393141746520996,-2.175446033477783,0.08384199440479279,-2.2637338638305664,-2.0960500240325928,79.5,-162.90000915527344,-27.900001525878906
1031459,3.6594386100769043,8.46731185913086,-2.23585844039917,-0.5564059615135193,-1.8521459102630615,-2.073184013366699,86.70000457763672,-165.3000030517578,-26.100000381469727
1031481,3.802993059158325,8.938648223876953,-2.113837242126465,-0.6631140112876892,-2.0503180027008057,-1.2652519941329956,81.9000015258789,-170.10000610351562,-26.700000762939453
1031501,3.7306177616119385,8.784327507019043,-1.9774606227874756,-1.1128119230270386,-1.9054999351501465,-1.4939119815826416,84.30000305175781,-167.70001220703125,-27.30000114440918
1031521,3.737795352935791,8.87883472442627,-1.9840402603149414,-1.0289700031280518,-1.8445239067077637,-1.189031958580017,86.70000457763672,-170.10000610351562,-27.30000114440918
1031545,3.6708033084869385,8.683839797973633,-1.8674023151397705,-1.189031958580017,-1.7225719690322876,-1.0975680351257324,93.9000015258789,-162.90000915527344,-27.30000114440918
1031565,3.8071799278259277,9.058277130126953,-1.8973095417022705,-0.8231759667396545,-1.5167779922485352,-0.571649968624115,93.9000015258789,-160.5,-26.700000762939453
1031628,3.449490547180176,9.137231826782227,-1.8207472562789917,-1.1051899194717407,-0.4192099869251251,-0.9984819889068604,91.5,-167.70001220703125,-27.30000114440918
1031678,2.5624444484710693,8.836365699768066,-1.6951371431350708,-0.5564059615135193,0.007621999830007553,-2.385685920715332,93.9000015258789,-162.90000915527344,-28.500001907348633
1031698,2.086322784423828,8.801673889160156,-1.5563679933547974,-0.18292799592018127,-0.04573199898004532,-2.3170878887176514,91.5,-167.70001220703125,-29.100000381469727
1031738,0.9067847728729248,8.948817253112793,-1.6191730499267578,-0.5792719721794128,0.7012239694595337,-2.294221878051758,103.50000762939453,-160.5,-29.700000762939453
1031778,-1.2004729509353638,9.475780487060547,-2.664726972579956,-0.5335400104522705,1.1661659479141235,-1.8445239067077637,101.10000610351562,-160.5,-29.100000381469727
1031799,-1.6574541330337524,8.59292221069336,-2.4673397541046143,0.4878079891204834,-0.2439039945602417,-0.9375059604644775,105.9000015258789,-162.90000915527344,-27.30000114440918
1031819,-1.6544634103775024,9.68453311920166,-2.8423755168914795,0.7926880121231079,-0.2591480016708374,0.2439039945602417,101.10000610351562,-162.90000915527344,-28.500001907348633
1031860,-1.830317497253418,9.49611759185791,-2.8692917823791504,0.2439039945602417,-0.5487840175628662,-0.7698220014572144,103.50000762939453,-160.5,-28.500001907348633
1031880,-1.730427622795105,9.93754768371582,-3.1635782718658447,0.7088459730148315,-0.6478700041770935,-0.571649968624115,101.10000610351562,-165.3000030517578,-28.500001907348633
1031921,-1.9308055639266968,9.521240234375,-3.156400442123413,0.685979962348938,-1.1661659479141235,-1.1509219408035278,113.10000610351562,-160.5,-27.30000114440918
1031981,-1.4463096857070923,8.81483268737793,-2.5528740882873535,0.07621999830007553,-1.295740008354187,0.12195199728012085,108.30000305175781,-167.70001220703125,-28.500001907348633
1032021,-1.016244888305664,9.401013374328613,-2.2274844646453857,-0.9908599853515625,-0.46494197845458984,0.08384199440479279,113.10000610351562,-165.3000030517578,-28.500001907348633
1032041,-0.9079810380935669,8.668288230895996,-2.0348823070526123,-1.0518360137939453,-0.48018598556518555,-0.6631140112876892,108.30000305175781,-162.90000915527344,-27.30000114440918
1032061,-0.515001118183136,9.143213272094727,-1.7537552118301392,-0.7545779943466187,0.3048799932003021,0.3201240003108978,110.70000457763672,-158.10000610351562,-27.30000114440918
1032101,-0.8290261626243591,8.589333534240723,-2.408721685409546,-0.2972579896450043,1.4100699424743652,-1.2500079870224,108.30000305175781,-160.5,-27.900001525878906
1032121,-0.6878644227981567,8.85789966583252,-2.3806090354919434,0.1295740008354187,0.9984819889068604,0.04573199898004532,108.30000305175781,-162.90000915527344,-27.900001525878906
1032141,-0.34094148874282837,9.124073028564453,-2.4607601165771484,-0.09146399796009064,1.2804960012435913,-0.05335399881005287,113.10000610351562,-165.3000030517578,-24.900001525878906
1032161,-0.024523861706256866,8.81303882598877,-2.856132745742798,0.6173819899559021,1.3033620119094849,-0.3734779953956604,113.10000610351562,-162.90000915527344,-29.100000381469727
1032183,0.7327251434326172,8.98709774017334,-2.987126111984253,1.4024479389190674,0.7164679765701294,0.22103799879550934,113.10000610351562,-160.5,-26.100000381469727
1032203,1.2501188516616821,9.155774116516113,-3.0774455070495605,1.3490939140319824,0.8689079880714417,0.5868939757347107,105.9000015258789,-155.70001220703125,-27.900001525878906
1032223,1.729231357574463,9.367517471313477,-3.436331272125244,1.3490939140319824,1.4024479389190674,0.6250039935112,108.30000305175781,-160.5,-28.500001907348633
1032243,2.1706607341766357,9.816123962402344,-3.69592547416687,1.4100699424743652,1.4939119815826416,0.4878079891204834,110.70000457763672,-158.10000610351562,-26.100000381469727
1032263,2.5032284259796143,10.521334648132324,-4.124195575714111,0.7469559907913208,2.233245849609375,-0.13719600439071655,110.70000457763672,-160.5,-26.700000762939453
1032306,2.6001274585723877,9.026576042175293,-4.431641101837158,0.33536797761917114,1.92836594581604,-2.0503180027008057,113.10000610351562,-155.70001220703125,-25.500001907348633
1032342,2.641399383544922,8.685633659362793,-4.180421352386475,-0.19054999947547913,1.3872039318084717,-1.5167779922485352,110.70000457763672,-153.3000030517578,-26.100000381469727
1032362,2.4721248149871826,8.38476848602295,-3.7575340270996094,-0.05335399881005287,0.7545779943466187,-1.417691946029663,113.10000610351562,-155.70001220703125,-25.500001907348633
1032382,2.3201966285705566,7.838663578033447,-3.2772252559661865,-0.26677000522613525,0.6326259970664978,-1.2881180047988892,120.30000305175781,-153.3000030517578,-24.900001525878906
1032402,2.1353704929351807,7.415178298950195,-2.8932175636291504,-0.5030519962310791,0.8307979702949524,-0.9908599853515625,115.50000762939453,-153.3000030517578,-24.900001525878906
1032422,1.734614610671997,6.983917236328125,-2.768803834915161,-0.7088459730148315,1.021347999572754,-0.967993974685669,108.30000305175781,-155.70001220703125,-24.900001525878906
1032442,1.83151376247406,7.422356128692627,-2.6731009483337402,-0.2591480016708374,0.8917739987373352,-0.5792719721794128,113.10000610351562,-158.10000610351562,-24.30000114440918
1032462,1.7908400297164917,8.694007873535156,-2.7592334747314453,-0.2743920087814331,0.7088459730148315,-0.22103799879550934,120.30000305175781,-162.90000915527344,-26.100000381469727
1032482,1.7370071411132812,8.691017150878906,-2.9608078002929688,-0.48018598556518555,0.9832379817962646,-0.8765299916267395,115.50000762939453,-150.90000915527344,-24.900001525878906
1032502,1.123910665512085,8.977527618408203,-2.8830490112304688,0.13719600439071655,0.457319974899292,-0.8612859845161438,113.10000610351562,-148.5,-23.700000762939453
1032525,1.2716519832611084,10.18458080291748,-3.0929973125457764,0.36585599184036255,0.17530599236488342,-0.5564059615135193,113.10000610351562,-155.70001220703125,-24.900001525878906
1032545,0.608909547328949,9.435705184936523,-2.8304126262664795,-0.20579399168491364,0.20579399168491364,-1.6615959405899048,115.50000762939453,-160.5,-24.900001525878906
1032565,0.27275320887565613,8.955994606018066,-2.7921314239501953,-0.33536797761917114,0.3125019967556,-1.1814099550247192,115.50000762939453,-160.5,-26.100000381469727
1032585,0.032299719750881195,9.62471866607666,-2.820244073867798,-0.10670799762010574,0.5182960033416748,-0.7469559907913208,120.30000305175781,-153.3000030517578,-23.100000381469727
1032605,-0.03768300637602806,9.82090950012207,-2.843571662902832,-0.28201398253440857,0.8079319596290588,-0.8155539631843567,120.30000305175781,-160.5,-24.900001525878906
1032627,-0.1309933066368103,9.947715759277344,-2.8722825050354004,-0.2439039945602417,0.8384199738502502,-0.7774440050125122,125.10000610351562,-150.90000915527344,-23.100000381469727
1032647,-0.24224790930747986,9.603185653686523,-2.877067804336548,-0.2743920087814331,0.7088459730148315,-0.6250039935112,122.70000457763672,-160.5,-24.900001525878906
1032670,-0.32897862792015076,8.972743034362793,-2.7293264865875244,-0.25152599811553955,0.3277460038661957,-0.2743920087814331,127.50000762939453,-158.10000610351562,-25.500001907348633
1032691,-0.3546987771987915,8.917115211486816,-2.4553768634796143,-0.18292799592018127,0.12195199728012085,0.510673999786377,120.30000305175781,-160.5,-25.500001907348633
1032713,-0.15551717579364777,9.64266300201416,-2.5588555335998535,-0.35061198472976685,0.22103799879550934,0.685979962348938,125.10000610351562,-153.3000030517578,-24.900001525878906
1032753,-0.16987259685993195,8.743654251098633,-2.6330254077911377,-0.7240899801254272,-0.26677000522613525,0.22103799879550934,117.9000015258789,-150.90000915527344,-26.700000762939453
1032773,-0.1280025988817215,8.86986255645752,-2.635417938232422,-0.5030519962310791,-0.5868939757347107,0.7545779943466187,117.9000015258789,-160.5,-24.30000114440918
1032793,-0.08254373073577881,9.231739044189453,-2.542107582092285,-0.4039659798145294,-0.8079319596290588,0.8917739987373352,117.9000015258789,-162.90000915527344,-23.700000762939453
1032813,-0.016149859875440598,9.84662914276123,-2.622856855392456,-0.3734779953956604,-0.967993974685669,0.4725639820098877,115.50000762939453,-158.10000610351562,-23.700000762939453
1032875,-0.2308831810951233,10.041624069213867,-2.19996976852417,-0.25152599811553955,-2.682943820953369,1.6158639192581177,115.50000762939453,-160.5,-25.500001907348633
1032895,-0.13278773427009583,10.048203468322754,-1.5647419691085815,-1.1356779336929321,-3.3917899131774902,1.882633924484253,120.30000305175781,-155.70001220703125,-26.100000381469727
1032918,0.20037789642810822,9.721617698669434,-0.9510473012924194,-1.7683039903640747,-3.871975898742676,1.9436099529266357,115.50000762939453,-153.3000030517578,-24.900001525878906
1032938,-0.08134744316339493,8.564210891723633,-0.20815375447273254,-3.292703866958618,-3.7728898525238037,1.9131219387054443,110.70000457763672,-158.10000610351562,-26.700000762939453
1032958,-0.39656877517700195,7.592228889465332,-0.3546987771987915,-3.658559799194336,-3.871975898742676,1.2804960012435913,113.10000610351562,-162.90000915527344,-25.500001907348633
1032978,-0.8326150178909302,5.613571643829346,-0.44382208585739136,-1.806414008140564,-5.061007976531982,1.067080020904541,110.70000457763672,-160.5,-29.100000381469727
1032998,-0.47313109040260315,6.013729572296143,-0.3182120621204376,0.8307979702949524,-7.149435997009277,3.6356940269470215,105.9000015258789,-160.5,-27.900001525878906
1033018,0.5843856930732727,6.77337121963501,-0.1441524624824524,1.0594580173492432,-10.335432052612305,4.17685604095459,110.70000457763672,-162.90000915527344,-29.700000762939453
1033078,1.4044396877288818,4.395752906799316,0.3911854922771454,-0.7317119836807251,-11.60068416595459,3.0183119773864746,98.70000457763672,-160.5,-30.30000114440918
1033115,1.9637033939361572,3.3017492294311523,0.45877566933631897,-0.9527499675750732,-10.731775283813477,1.7987920045852661,98.70000457763672,-160.5,-32.70000076293945
1033135,2.0342843532562256,3.1169230937957764,-0.30325847864151,-0.7774440050125122,-8.902495384216309,0.35061198472976685,96.30000305175781,-165.3000030517578,-31.500001907348633
1033178,2.3201966285705566,3.463247776031494,-1.8291212320327759,1.6234859228134155,-7.774439811706543,-1.1585439443588257,96.30000305175781,-167.70001220703125,-33.30000305175781
1033198,2.649773359298706,4.460351943969727,-2.1826236248016357,1.3414719104766846,-5.960403919219971,-1.7911700010299683,101.10000610351562,-160.5,-32.10000228881836
1033219,2.4188902378082275,4.535120010375977,-3.2066445350646973,0.5335400104522705,-3.3231918811798096,-3.239349842071533,103.50000762939453,-160.5,-31.500001907348633
1033239,2.3327574729919434,4.893407821655273,-4.030885696411133,1.6692179441452026,-2.225623846054077,-3.0259339809417725,105.9000015258789,-162.90000915527344,-33.30000305175781
1033300,1.3852990865707397,6.654340744018555,-6.47848653793335,1.4634239673614502,-1.189031958580017,-5.137228012084961,108.30000305175781,-155.70001220703125,-32.70000076293945
1033320,1.1669769287109375,8.327346801757812,-6.92171049118042,1.7911700010299683,1.3033620119094849,-3.7881338596343994,113.10000610351562,-153.3000030517578,-30.30000114440918
1033340,1.4977500438690186,11.014802932739258,-8.530714988708496,1.5015339851379395,4.5503339767456055,-1.653973937034607,117.9000015258789,-155.70001220703125,-32.10000228881836
1033360,2.026508331298828,11.625506401062012,-8.89857292175293,-1.0442140102386475,2.0503180027008057,-5.25155782699585,117.9000015258789,-148.5,-30.30000114440918
1033420,0.824839174747467,11.916204452514648,-7.880533695220947,-1.7454379796981812,7.385717868804932,-4.67990779876709,139.5,-143.70001220703125,-29.700000762939453
1033440,0.029907148331403732,12.142302513122559,-8.62163257598877,-0.8841519951820374,10.96043586730957,-6.737847805023193,141.90000915527344,-148.5,-29.100000381469727
1033460,-0.9707860350608826,11.545953750610352,-8.880030632019043,-0.3277460038661957,9.504633903503418,-6.974129676818848,144.3000030517578,-141.3000030517578,-27.30000114440918
1033484,-1.1992766857147217,13.362513542175293,-8.173624038696289,-1.471045970916748,10.556469917297363,-5.525949954986572,153.90000915527344,-141.3000030517578,-27.30000114440918
1033504,-2.953629970550537,12.363017082214355,-9.356152534484863,0.33536797761917114,15.747051239013672,-7.71346378326416,153.90000915527344,-143.70001220703125,-25.500001907348633
1033524,-2.271148920059204,11.247480392456055,-10.980709075927734,2.3094658851623535,12.850691795349121,-5.785098075866699,161.10000610351562,-134.10000610351562,-26.700000762939453
1033544,-3.761122941970825,12.141105651855469,-9.510473251342773,-2.446661949157715,4.146368026733398,-3.5747179985046387,165.90000915527344,-134.10000610351562,-24.30000114440918
1033564,-3.7419824600219727,13.89725399017334,-8.159268379211426,-1.189031958580017,6.288149833679199,-2.8201398849487305,168.3000030517578,-134.10000610351562,-23.100000381469727
1033588,-2.390777349472046,13.113088607788086,-8.472097396850586,-0.22103799879550934,6.859799861907959,-4.580821990966797,168.3000030517578,-129.3000030517578,-23.100000381469727
1033608,-4.3861823081970215,12.447953224182129,-6.518562316894531,-2.652456045150757,6.250040054321289,-3.460387945175171,170.70001220703125,-131.70001220703125,-22.5
1033628,-5.041149139404297,15.079184532165527,-5.809164524078369,-4.329296112060547,10.914703369140625,-2.8658719062805176,170.70001220703125,-134.10000610351562,-21.900001525878906
1033648,-5.093785762786865,14.506163597106934,-5.675778865814209,-3.8795979022979736,11.166230201721191,-4.062525749206543,170.70001220703125,-134.10000610351562,-20.700000762939453
1033668,-7.143023490905762,13.517433166503906,-5.589645862579346,-3.818621873855591,11.0061674118042,-4.054903984069824,170.70001220703125,-131.70001220703125,-21.30000114440918
1033691,-5.023204803466797,16.385528564453125,-4.49265193939209,-3.041177988052368,5.686011791229248,0.2134159952402115,170.70001220703125,-129.3000030517578,-21.900001525878906
1033711,-6.318782329559326,14.348852157592773,-2.5851738452911377,-4.900945663452148,7.4466938972473145,-2.0045859813690186,168.3000030517578,-131.70001220703125,-21.30000114440918
1033731,-6.266744136810303,14.064733505249023,-4.931090831756592,-4.771371841430664,11.410133361816406,0.02286599949002266,173.10000610351562,-129.3000030517578,-21.900001525878906
1033755,-5.127879619598389,14.724485397338867,-4.286292552947998,-2.957335948944092,6.166197776794434,1.0899460315704346,165.90000915527344,-131.70001220703125,-21.900001525878906
1033775,-4.894603729248047,13.32064437866211,-2.560051918029785,-3.1707520484924316,5.998513698577881,0.342989981174469,163.5,-141.3000030517578,-21.30000114440918
1033838,-4.666113376617432,11.648236274719238,-2.0037789344787598,-3.0716660022735596,1.7835479974746704,2.3018438816070557,158.70001220703125,-141.3000030517578,-20.700000762939453
1033858,-4.51358699798584,11.461017608642578,-2.116827964782715,-3.307947874069214,1.6311079263687134,4.054903984069824,151.5,-143.70001220703125,-23.100000381469727
1033878,-4.319190502166748,11.950896263122559,-2.3201966285705566,-3.75002384185791,0.1295740008354187,5.03814172744751,151.5,-146.10000610351562,-21.30000114440918
1033898,-3.564932107925415,10.566195487976074,-2.3417296409606934,-2.294221878051758,-2.2561118602752686,3.292703866958618,149.10000610351562,-143.70001220703125,-23.100000381469727
1033958,-1.631734013557434,8.114407539367676,-0.7739970088005066,-0.9375059604644775,-7.073215961456299,7.804927825927734,132.3000030517578,-158.10000610351562,-24.900001525878906
1033978,-0.39477434754371643,7.011431694030762,0.1573116034269333,-1.3643379211425781,-7.416205883026123,7.164680004119873,127.50000762939453,-153.3000030517578,-24.900001525878906
1033998,0.06579572707414627,6.363044738769531,0.24523861706256866,-1.699705958366394,-5.625035762786865,5.754610061645508,122.70000457763672,-153.3000030517578,-25.500001907348633
1034020,0.5347397923469543,5.875558376312256,-0.15372274816036224,-1.7454379796981812,-4.8552141189575195,4.17685604095459,115.50000762939453,-162.90000915527344,-26.100000381469727
1034040,1.0096653699874878,5.0184197425842285,-0.28890305757522583,-0.7545779943466187,-4.923811912536621,2.682943820953369,110.70000457763672,-158.10000610351562,-26.100000381469727
1034060,1.5761067867279053,4.664319038391113,-0.34632477164268494,0.38109999895095825,-5.1067399978637695,2.4085519313812256,113.10000610351562,-158.10000610351562,-26.700000762939453
1034080,1.9995919466018677,4.541699409484863,-0.35709136724472046,1.1128119230270386,-4.733262062072754,2.3628199100494385,108.30000305175781,-160.5,-26.700000762939453
1034100,2.546294689178467,4.9286980628967285,-0.4725329577922821,1.067080020904541,-4.268320083618164,2.431417942047119,108.30000305175781,-165.3000030517578,-26.700000762939453
1034120,2.8070850372314453,4.876659870147705,-0.5078234076499939,1.021347999572754,-3.551851987838745,1.7378159761428833,113.10000610351562,-167.70001220703125,-26.700000762939453
1034141,3.0600993633270264,4.753442287445068,-0.6441999673843384,0.7240899801254272,-2.743919849395752,1.2576299905776978,108.30000305175781,-158.10000610351562,-27.900001525878906
1034161,2.7676074504852295,4.124195575714111,-0.9917210340499878,0.7012239694595337,-1.7835479974746704,0.739333987236023,105.9000015258789,-158.10000610351562,-26.100000381469727
1034183,2.662334442138672,4.39395809173584,-1.3595789670944214,0.853663980960846,-1.8673899173736572,1.3186060190200806,105.9000015258789,-162.90000915527344,-24.900001525878906
1034203,2.6952321529388428,5.028587818145752,-1.3906824588775635,1.0365920066833496,-2.2180018424987793,1.1509219408035278,103.50000762939453,-167.70001220703125,-26.700000762939453
1034243,3.4243686199188232,5.960494518280029,-1.4768149852752686,1.3338500261306763,-2.278977870941162,0.967993974685669,103.50000762939453,-158.10000610351562,-27.30000114440918
1034263,3.216214656829834,6.331941604614258,-1.6783891916275024,0.9298839569091797,-1.3872039318084717,0.4039659798145294,108.30000305175781,-160.5,-25.500001907348633
1034283,3.5332305431365967,7.016815185546875,-2.0402655601501465,1.3872039318084717,-0.9984819889068604,0.5792719721794128,103.50000762939453,-155.70001220703125,-26.100000381469727
1034303,3.9327900409698486,7.933768272399902,-2.3835997581481934,1.1280559301376343,-0.5868939757347107,0.3277460038661957,101.10000610351562,-162.90000915527344,-25.500001907348633
1034327,3.476407051086426,7.056890964508057,-2.841179132461548,1.0747020244598389,-0.3201240003108978,-1.0899460315704346,101.10000610351562,-167.70001220703125,-23.700000762939453
1034347,3.41001296043396,7.336223602294922,-2.8034961223602295,1.2347639799118042,-0.46494197845458984,0.18292799592018127,101.10000610351562,-162.90000915527344,-27.30000114440918
1034369,3.112137794494629,8.243008613586426,-3.022416353225708,0.4725639820098877,0.6707359552383423,0.4344539940357208,103.50000762939453,-162.90000915527344,-25.500001907348633
1034389,2.7412891387939453,8.513967514038086,-3.505715847015381,0.17530599236488342,1.1585439443588257,-0.26677000522613525,101.10000610351562,-155.70001220703125,-24.900001525878906
1034409,2.358477830886841,8.779542922973633,-3.597830057144165,0.6402480006217957,1.5320219993591309,-0.7545779943466187,105.9000015258789,-162.90000915527344,-26.100000381469727
1034429,2.142548084259033,11.001644134521484,-4.784545421600342,2.027451992034912,2.8277618885040283,0.6173819899559021,101.10000610351562,-158.10000610351562,-25.500001907348633
1034452,1.6383136510849,10.500399589538574,-5.240928649902344,0.9984819889068604,0.4192099869251251,-2.530503988265991,105.9000015258789,-160.5,-24.30000114440918
1034473,1.1388641595840454,8.41467571258545,-3.988417387008667,1.5625100135803223,-1.3109840154647827,-3.3689239025115967,103.50000762939453,-160.5,-23.700000762939453
1034493,1.034189224243164,8.59770679473877,-3.6115872859954834,-0.16768398880958557,-0.1448179930448532,-1.5929979085922241,103.50000762939453,-160.5,-22.5
1034514,0.515001118183136,8.471498489379883,-3.7479639053344727,-0.41158798336982727,0.5564059615135193,-0.9070180058479309,105.9000015258789,-158.10000610351562,-23.700000762939453
1034534,0.3666616380214691,8.83696460723877,-3.755141496658325,-0.2896359860897064,0.44969800114631653,-0.48018598556518555,110.70000457763672,-155.70001220703125,-23.100000381469727
1034554,0.352904349565506,8.78911304473877,-3.508706569671631,-0.5792719721794128,0.15243999660015106,-0.6402480006217957,108.30000305175781,-160.5,-22.5
1034578,0.33914706110954285,8.65572738647461,-3.025407075881958,-0.5564059615135193,0.12195199728012085,0.18292799592018127,113.10000610351562,-148.5,-23.100000381469727
1034598,0.43604621291160583,8.846534729003906,-2.8991990089416504,-0.8079319596290588,0.5182960033416748,0.02286599949002266,108.30000305175781,-155.70001220703125,-23.700000762939453
1034618,0.5311509370803833,9.046314239501953,-2.8208422660827637,-0.6783579587936401,0.7469559907913208,-0.05335399881005287,110.70000457763672,-158.10000610351562,-24.30000114440918
1034638,0.6645368337631226,9.363927841186523,-2.7556445598602295,-0.739333987236023,0.9984819889068604,-0.2743920087814331,108.30000305175781,-155.70001220703125,-24.30000114440918
1034658,0.61548912525177,8.85371208190918,-2.8363940715789795,-0.9298839569091797,1.3795819282531738,-0.7469559907913208,105.9000015258789,-150.90000915527344,-23.100000381469727
1034680,0.7261455655097961,9.08579158782959,-2.831608772277832,-0.3125019967556,1.189031958580017,-0.3125019967556,105.9000015258789,-153.3000030517578,-24.900001525878906
1034743,0.9043921828269958,9.045716285705566,-2.8830490112304688,-0.19054999947547913,1.3033620119094849,-1.8140360116958618,110.70000457763672,-158.10000610351562,-21.900001525878906
1034764,0.91575688123703,8.810646057128906,-2.664726972579956,-0.4344539940357208,0.9603719711303711,-1.4862899780273438,115.50000762939453,-160.5,-23.100000381469727
1034784,0.9019995927810669,9.02896785736084,-2.634819746017456,-0.7698220014572144,1.196653962135315,-0.7621999979019165,113.10000610351562,-158.10000610351562,-23.700000762939453
1034804,0.92771977186203,9.360937118530273,-2.4810969829559326,-0.8384199738502502,1.2042759656906128,-0.8384199738502502,115.50000762939453,-160.5,-23.100000381469727
1034869,-0.028710862621665,9.04810905456543,-2.4547786712646484,-0.23628199100494385,1.0365920066833496,-0.28201398253440857,115.50000762939453,-155.70001220703125,-24.30000114440918
1034975,-0.2769401967525482,7.938553333282471,-1.8691967725753784,-0.04573199898004532,-3.254593849182129,0.39634400606155396,113.10000610351562,-155.70001220703125,-23.700000762939453
1034995,0.2458367645740509,8.545668601989746,-1.3422328233718872,-0.060975998640060425,-4.900945663452148,2.0198299884796143,115.50000762939453,-158.10000610351562,-23.700000762939453
1035039,0.8481667041778564,8.140128135681152,-0.7303325533866882,-1.6158639192581177,-6.6844940185546875,-0.5868939757347107,117.9000015258789,-153.3000030517578,-25.500001907348633
1035059,0.38161522150039673,6.562824726104736,-0.4605700969696045,-2.278977870941162,-8.186027526855469,-1.3414719104766846,122.70000457763672,-153.3000030517578,-24.30000114440918
1035100,-0.033496007323265076,3.153409719467163,0.5167955160140991,0.39634400606155396,-12.6448974609375,0.6097599864006042,127.50000762939453,-155.70001220703125,-27.900001525878906
1035160,0.9660009145736694,4.212122917175293,1.0288058519363403,-0.49542999267578125,-11.364401817321777,2.0579400062561035,120.30000305175781,-153.3000030517578,-29.700000762939453
1035220,0.915158748626709,3.007462978363037,-0.28052905201911926,-1.1128119230270386,-6.814067840576172,-1.8445239067077637,117.9000015258789,-160.5,-32.10000228881836
1035240,0.48090696334838867,2.7119803428649902,-2.2041568756103516,-1.0899460315704346,-3.208861827850342,-2.690565824508667,122.70000457763672,-153.3000030517578,-31.500001907348633
1035280,1.4798057079315186,5.962289333343506,-3.880751609802246,1.3643379211425781,-4.53508996963501,-1.0747020244598389,127.50000762939453,-155.70001220703125,-32.10000228881836
1035300,1.3583827018737793,5.4143900871276855,-4.990306854248047,0.7012239694595337,-0.4039659798145294,-1.9512319564819336,129.90000915527344,-153.3000030517578,-31.500001907348633
1035324,1.449898600578308,8.34469223022461,-6.058589935302734,1.6234859228134155,-0.8917739987373352,-1.7911700010299683,127.50000762939453,-158.10000610351562,-29.700000762939453
1035346,1.296773910522461,7.775858402252197,-6.337324619293213,0.9222619533538818,1.0975680351257324,-3.803377866744995,134.70001220703125,-148.5,-30.30000114440918
1035366,0.909177303314209,8.319570541381836,-7.461833477020264,2.743919849395752,3.1173980236053467,-2.942091941833496,129.90000915527344,-148.5,-32.10000228881836
1035386,0.9049903154373169,9.679747581481934,-8.225662231445312,3.163130044937134,2.4237959384918213,-2.75154185295105,137.10000610351562,-153.3000030517578,-29.100000381469727
1035407,0.9809544682502747,11.126655578613281,-7.888907432556152,2.3170878887176514,2.4085519313812256,-2.995445966720581,139.5,-148.5,-28.500001907348633
1035427,0.6418074369430542,11.040522575378418,-7.571293830871582,0.7164679765701294,3.3689239025115967,-5.099117755889893,139.5,-148.5,-29.700000762939453
1035447,-0.08852516114711761,10.020689010620117,-7.824906349182129,0.457319974899292,5.3582658767700195,-5.7698540687561035,153.90000915527344,-146.10000610351562,-28.500001907348633
1035469,-0.5287584066390991,12.373185157775879,-7.971451282501221,-0.8993960022926331,6.981751918792725,-4.718018054962158,153.90000915527344,-143.70001220703125,-27.900001525878906
1035490,-1.6765947341918945,11.819903373718262,-8.207119941711426,-1.1661659479141235,8.666213989257812,-5.8613176345825195,156.3000030517578,-138.90000915527344,-27.900001525878906
1035510,-1.3153164386749268,13.1184720993042,-8.84294605255127,-0.9375059604644775,9.596097946166992,-3.85673189163208,161.10000610351562,-138.90000915527344,-25.500001907348633
1035530,-1.62934148311615,13.23570728302002,-8.47329330444336,-1.9512319564819336,9.001582145690918,-4.009171962738037,153.90000915527344,-136.5,-24.900001525878906
1035554,-1.9529367685317993,12.580740928649902,-8.199941635131836,-1.0365920066833496,10.114394187927246,-4.161612033843994,156.3000030517578,-136.5,-23.700000762939453
1035617,-3.20185923576355,14.259130477905273,-8.612062454223633,-2.0045859813690186,15.297353744506836,-5.8613176345825195,168.3000030517578,-131.70001220703125,-22.5
1035659,-4.103858947753906,14.61023998260498,-7.117303371429443,-3.094532012939453,12.233309745788574,-4.57319974899292,173.10000610351562,-131.70001220703125,-18.900001525878906
1035699,-4.3831915855407715,13.850598335266113,-7.7154459953308105,-0.8689079880714417,8.559505462646484,-5.838451862335205,173.10000610351562,-124.50000762939453,-20.100000381469727
1035719,-4.712170124053955,12.337895393371582,-6.190779685974121,0.8460419774055481,4.405515670776367,-5.312533855438232,173.10000610351562,-119.70000457763672,-18.900001525878906
1035761,-3.6169705390930176,17.805519104003906,-6.233846187591553,-3.3308138847351074,2.5228819847106934,0.9375059604644775,180.3000030517578,-122.10000610351562,-18.900001525878906
1035805,-5.031578540802002,12.134526252746582,-6.826605796813965,-0.6326259970664978,2.995445966720581,-0.571649968624115,177.90000915527344,-119.70000457763672,-19.5
1035845,-4.972362518310547,11.249275207519531,-3.3669466972351074,-1.6768399477005005,-3.1707520484924316,0.060975998640060425,182.70001220703125,-124.50000762939453,-18.900001525878906
1035901,-4.596728801727295,10.234824180603027,-2.2424380779266357,-3.49849796295166,-1.2652519941329956,1.92836594581604,177.90000915527344,-131.70001220703125,-19.5
1035941,-3.821535348892212,8.010929107666016,-0.5628525614738464,-2.225623846054077,-2.8048958778381348,3.056421995162964,177.90000915527344,-129.3000030517578,-21.900001525878906
1035961,-3.383694887161255,7.460039138793945,-0.4139149487018585,-2.0503180027008057,-2.042695999145508,3.2850818634033203,168.3000030517578,-131.70001220703125,-22.5
1036001,-2.2639710903167725,7.569499492645264,-0.2703606188297272,-1.3643379211425781,-2.088428020477295,5.045763969421387,170.70001220703125,-134.10000610351562,-22.5
1036021,-1.912263035774231,7.042535305023193,-0.20336860418319702,-1.3414719104766846,-2.03507399559021,4.123501777648926,158.70001220703125,-141.3000030517578,-23.700000762939453
1036041,-1.3518030643463135,6.271529197692871,-0.02811271883547306,-0.8765299916267395,-2.538125991821289,3.5289859771728516,158.70001220703125,-146.10000610351562,-24.30000114440918
1036081,-0.2793327569961548,5.641086578369141,-0.09809544682502747,-1.2195199728012085,-2.073184013366699,2.2561118602752686,153.90000915527344,-148.5,-24.30000114440918
1036140,0.007775858510285616,3.3167028427124023,-0.7476786971092224,1.3948259353637695,-4.07014799118042,0.12195199728012085,151.5,-148.5,-23.100000381469727
1036241,1.8237379789352417,6.081319808959961,-1.1484345197677612,1.0061039924621582,-2.5228819847106934,3.102154016494751,149.10000610351562,-146.10000610351562,-24.30000114440918
1036261,2.107257604598999,6.7829413414001465,-1.2854092121124268,0.8079319596290588,-2.027451992034912,2.8201398849487305,144.3000030517578,-143.70001220703125,-25.500001907348633
1036305,2.059406280517578,7.41278600692749,-2.2974672317504883,0.13719600439071655,0.10670799762010574,0.6478700041770935,141.90000915527344,-148.5,-25.500001907348633
1036375,0.818857729434967,9.724010467529297,-5.016026973724365,2.743919849395752,-1.6311079263687134,0.8841519951820374,137.10000610351562,-146.10000610351562,-23.100000381469727
1036415,1.1227144002914429,9.637279510498047,-4.749853134155273,0.5030519962310791,0.15243999660015106,0.007621999830007553,137.10000610351562,-146.10000610351562,-21.30000114440918
1036435,0.9019995927810669,9.113903999328613,-4.786938190460205,0.015243999660015106,0.5335400104522705,-0.114329993724823,134.70001220703125,-146.10000610351562,-23.100000381469727
1036479,0.6071150898933411,8.2621488571167,-3.797609806060791,-1.0442140102386475,0.6173819899559021,0.13719600439071655,137.10000610351562,-143.70001220703125,-21.900001525878906
