time,sensor_accX[g],sensor_accY[g],sensor_accZ[g],sensor_gyroX[°/s],sensor_gyroY[°/s],sensor_gyroZ[°/s],sensor_magX[µT],sensor_magY[µT],sensor_magZ[µT]
416860,-2.3764219284057617,8.246597290039062,-4.039259433746338,-0.39634400606155396,0,-0.09908600151538849,233.10000610351562,-107.70000457763672,-20.100000381469727
416884,-2.3148133754730225,8.30102825164795,-4.033277988433838,-0.2591480016708374,0.05335399881005287,-0.08384199440479279,228.3000030517578,-105.30000305175781,-18.900001525878906
416904,-2.27473783493042,8.34887981414795,-3.9932024478912354,-0.23628199100494385,0.1448179930448532,-0.07621999830007553,228.3000030517578,-110.10000610351562,-19.5
416926,-2.366851806640625,8.2202787399292,-4.003969192504883,-0.2896359860897064,0.26677000522613525,-0.16768398880958557,230.70001220703125,-105.30000305175781,-18.30000114440918
416946,-2.40513277053833,8.346487045288086,-4.064979553222656,-0.25152599811553955,0.3277460038661957,-0.13719600439071655,223.50001525878906,-107.70000457763672,-18.30000114440918
416966,-2.4248716831207275,8.331533432006836,-4.129579067230225,-0.22103799879550934,0.2439039945602417,-0.2439039945602417,228.3000030517578,-105.30000305175781,-20.100000381469727
416986,-2.4523861408233643,8.402113914489746,-4.132569789886475,-0.18292799592018127,0.16768398880958557,-0.18292799592018127,233.10000610351562,-102.9000015258789,-20.100000381469727
417010,-2.4607601165771484,8.332131385803223,-4.110438346862793,-0.2972579896450043,0.15243999660015106,-0.2439039945602417,228.3000030517578,-102.9000015258789,-19.5
417030,-2.515789270401001,8.241811752319336,-4.152308464050293,-0.2972579896450043,0.09908600151538849,-0.228659987449646,225.90000915527344,-107.70000457763672,-18.30000114440918
417050,-2.4727230072021484,8.293251991271973,-4.16786003112793,-0.20579399168491364,0.02286599949002266,-0.19054999947547913,230.70001220703125,-105.30000305175781,-17.700000762939453
417070,-2.381805419921875,8.30282211303711,-4.083521842956543,-0.19054999947547913,-0.007621999830007553,-0.09908600151538849,230.70001220703125,-107.70000457763672,-18.900001525878906
417093,-2.4123106002807617,8.240017890930176,-4.108644008636475,-0.46494197845458984,0.2134159952402115,0.05335399881005287,230.70001220703125,-105.30000305175781,-18.900001525878906
417113,-2.4069273471832275,8.280691146850586,-4.130775451660156,-0.39634400606155396,0.2972579896450043,0.1295740008354187,228.3000030517578,-114.9000015258789,-19.5
417133,-2.3949644565582275,8.284279823303223,-4.056605815887451,-0.5182960033416748,0.1600620001554489,0.3734779953956604,233.10000610351562,-110.10000610351562,-19.5
417153,-2.619866132736206,8.186782836914062,-4.162477016448975,-0.6402480006217957,0.426831990480423,0.2972579896450043,230.70001220703125,-102.9000015258789,-18.900001525878906
417173,-2.471526861190796,8.30282211303711,-4.236048698425293,-0.20579399168491364,0.1600620001554489,0.3048799932003021,223.50001525878906,-102.9000015258789,-18.900001525878906
417193,-2.4009459018707275,8.547463417053223,-4.142139911651611,-0.1448179930448532,0.16768398880958557,0.23628199100494385,230.70001220703125,-110.10000610351562,-18.30000114440918
417213,-2.5564630031585693,8.423048973083496,-4.297657012939453,-0.17530599236488342,0.4344539940357208,-0.05335399881005287,225.90000915527344,-112.50000762939453,-18.30000114440918
417233,-2.6007256507873535,8.39074993133545,-4.261170387268066,-0.3201240003108978,0.22103799879550934,0.12195199728012085,228.3000030517578,-102.9000015258789,-19.5
417253,-2.7203543186187744,8.415273666381836,-4.297059059143066,-0.4192099869251251,0.46494197845458984,0.10670799762010574,225.90000915527344,-102.9000015258789,-20.100000381469727
417273,-2.7143728733062744,8.452956199645996,-4.3712286949157715,-0.4878079891204834,0.48018598556518555,0.16768398880958557,228.3000030517578,-107.70000457763672,-20.100000381469727
417293,-2.753850221633911,8.451162338256836,-4.3682379722595215,-0.6554920077323914,0.4420759975910187,0.3277460038661957,230.70001220703125,-105.30000305175781,-17.100000381469727
417317,-2.860917806625366,8.368020057678223,-4.507007122039795,-0.8307979702949524,0.4344539940357208,0.4878079891204834,223.50001525878906,-107.70000457763672,-18.900001525878906
417337,-3.0654826164245605,8.278897285461426,-4.620654582977295,-0.914639949798584,0.26677000522613525,0.5945159792900085,223.50001525878906,-112.50000762939453,-21.30000114440918
417378,-3.0900065898895264,8.986499786376953,-4.740283012390137,-1.3109840154647827,-0.030487999320030212,0.8384199738502502,225.90000915527344,-107.70000457763672,-20.100000381469727
417398,-3.1007730960845947,9.379480361938477,-4.821032524108887,-1.600619912147522,0.04573199898004532,0.8384199738502502,225.90000915527344,-110.10000610351562,-18.900001525878906
417418,-3.2329628467559814,9.279589653015137,-4.748058795928955,-1.935987949371338,0.007621999830007553,0.6250039935112,233.10000610351562,-110.10000610351562,-18.30000114440918
417438,-3.4183871746063232,8.635988235473633,-4.691235542297363,-2.591480016708374,0.33536797761917114,0.5945159792900085,216.3000030517578,-112.50000762939453,-18.900001525878906
417499,-3.145035743713379,8.058181762695312,-4.136158466339111,-2.7286758422851562,0.2743920087814331,1.9436099529266357,213.90000915527344,-119.70000457763672,-21.30000114440918
417519,-3.0331830978393555,8.094070434570312,-4.205543041229248,-2.446661949157715,0.28201398253440857,2.28659987449646,216.3000030517578,-124.50000762939453,-23.700000762939453
417539,-2.7885425090789795,8.775355339050293,-4.4400153160095215,-1.6158639192581177,-0.17530599236488342,2.6067240238189697,211.50001525878906,-122.10000610351562,-21.30000114440918
417560,-2.524761438369751,8.79688835144043,-4.221095085144043,-1.1280559301376343,-0.7012239694595337,2.6143460273742676,216.3000030517578,-122.10000610351562,-23.100000381469727
417580,-2.43503999710083,8.888404846191406,-4.072157382965088,-1.2195199728012085,-0.5945159792900085,2.736297845840454,211.50001525878906,-129.3000030517578,-21.900001525878906
417600,-2.351300001144409,9.234130859375,-3.9573140144348145,-1.3186060190200806,-0.4039659798145294,2.797273874282837,204.3000030517578,-122.10000610351562,-23.100000381469727
417620,-2.45896577835083,9.197644233703613,-3.9244160652160645,-1.6311079263687134,-0.33536797761917114,2.530503988265991,199.50001525878906,-131.70001220703125,-21.30000114440918
417640,-2.3261780738830566,9.433911323547363,-3.8143577575683594,-1.7835479974746704,-0.5564059615135193,2.7210538387298584,204.3000030517578,-126.9000015258789,-23.100000381469727
417660,-2.0528266429901123,9.782628059387207,-3.478201389312744,-2.088428020477295,-0.7164679765701294,2.8582499027252197,199.50001525878906,-131.70001220703125,-22.5
417680,-2.187408924102783,9.727599143981934,-3.186905860900879,-2.743919849395752,-0.4878079891204834,2.637212038040161,187.5,-136.5,-24.30000114440918
417700,-2.4302549362182617,9.712047576904297,-3.1528115272521973,-2.957335948944092,-0.08384199440479279,2.652456045150757,194.70001220703125,-136.5,-24.900001525878906
417720,-2.583977699279785,9.794590950012207,-3.049931049346924,-3.1326420307159424,-0.05335399881005287,2.698187828063965,189.90000915527344,-138.90000915527344,-23.700000762939453
417740,-2.7119803428649902,9.391443252563477,-2.7831592559814453,-3.2317278385162354,-0.09146399796009064,2.6600780487060547,185.10000610351562,-136.5,-26.100000381469727
417822,-2.4182920455932617,9.022388458251953,-2.607903242111206,-2.5609920024871826,1.2195199728012085,3.1326420307159424,177.90000915527344,-153.3000030517578,-26.700000762939453
417871,-1.8853466510772705,8.78911304473877,-2.318402051925659,-1.5091559886932373,1.2576299905776978,4.237832069396973,168.3000030517578,-150.90000915527344,-29.700000762939453
417891,-1.6060138940811157,8.865077018737793,-2.2185122966766357,-1.3872039318084717,1.6692179441452026,4.687530040740967,168.3000030517578,-146.10000610351562,-28.500001907348633
417931,-1.1053682565689087,8.94642448425293,-2.1802310943603516,-1.0899460315704346,2.3551979064941406,5.25155782699585,156.3000030517578,-158.10000610351562,-26.700000762939453
417954,-1.134079098701477,8.805262565612793,-2.1150336265563965,-0.967993974685669,2.446661949157715,4.969543933868408,144.3000030517578,-155.70001220703125,-28.500001907348633
417974,-1.1855193376541138,8.403908729553223,-2.057013750076294,-0.8307979702949524,2.4542839527130127,4.740883827209473,146.70001220703125,-165.3000030517578,-29.100000381469727
417994,-1.009067177772522,8.647353172302246,-1.8985058069229126,-0.571649968624115,2.378063917160034,4.847591876983643,141.90000915527344,-160.5,-26.700000762939453
418016,-0.9271215796470642,8.58993148803711,-1.8028029203414917,-0.5792719721794128,2.3628199100494385,4.344540119171143,141.90000915527344,-160.5,-28.500001907348633
418036,-0.8930274844169617,8.110220909118652,-1.615584135055542,-0.46494197845458984,2.088428020477295,3.696669816970825,132.3000030517578,-162.90000915527344,-26.700000762939453
418058,-0.4695422351360321,8.417067527770996,-1.418795108795166,-0.10670799762010574,2.126538038253784,4.062525749206543,129.90000915527344,-165.3000030517578,-27.900001525878906
418078,-0.40374651551246643,8.367422103881836,-1.2489224672317505,-0.2591480016708374,2.1494040489196777,3.8338658809661865,122.70000457763672,-162.90000915527344,-27.900001525878906
418142,-0.3971669375896454,8.96735954284668,-1.5270589590072632,-0.114329993724823,2.03507399559021,2.2561118602752686,115.50000762939453,-170.10000610351562,-26.700000762939453
418172,-0.09450659155845642,9.06186580657959,-1.3009610176086426,-0.12195199728012085,1.3414719104766846,1.2042759656906128,103.50000762939453,-170.10000610351562,-25.500001907348633
418214,0.814670741558075,9.64445686340332,-1.513899803161621,0.08384199440479279,0.5487840175628662,0.8689079880714417,110.70000457763672,-167.70001220703125,-26.700000762939453
418234,1.2746427059173584,9.652233123779297,-1.6975297927856445,-0.05335399881005287,0.46494197845458984,0.09146399796009064,103.50000762939453,-172.5,-27.30000114440918
418254,2.21791410446167,9.727001190185547,-2.0606024265289307,0.114329993724823,0.038109999150037766,-0.05335399881005287,105.9000015258789,-165.3000030517578,-26.100000381469727
418295,2.9584150314331055,9.986595153808594,-2.6599419116973877,-0.8993960022926331,0.7698220014572144,1.0823240280151367,105.9000015258789,-170.10000610351562,-26.100000381469727
418315,3.552371025085449,11.234919548034668,-3.2168128490448,-1.0365920066833496,0.7545779943466187,1.3186060190200806,103.50000762939453,-170.10000610351562,-26.100000381469727
418335,2.4601619243621826,9.439892768859863,-2.975163221359253,-1.6082419157028198,0.41158798336982727,-1.2347639799118042,96.30000305175781,-162.90000915527344,-29.100000381469727
418355,1.8775707483291626,8.271718978881836,-3.3394322395324707,-0.6097599864006042,0.8841519951820374,-1.242385983467102,103.50000762939453,-167.70001220703125,-28.500001907348633
418375,1.9714791774749756,8.97035026550293,-3.4865753650665283,0.38109999895095825,0.4039659798145294,-0.44969800114631653,101.10000610351562,-165.3000030517578,-27.30000114440918
418415,2.1706607341766357,9.093567848205566,-3.570315361022949,0.8384199738502502,0.8307979702949524,-0.16768398880958557,103.50000762939453,-165.3000030517578,-26.700000762939453
418435,1.945160984992981,8.0946683883667,-3.5015289783477783,0.7317119836807251,1.242385983467102,-0.038109999150037766,101.10000610351562,-167.70001220703125,-27.30000114440918
418455,1.6341265439987183,7.488152027130127,-3.6564478874206543,0.9375059604644775,1.4100699424743652,0.7240899801254272,103.50000762939453,-167.70001220703125,-24.30000114440918
418475,1.9936105012893677,8.311196327209473,-3.6229519844055176,0.9222619533538818,0.9375059604644775,2.042695999145508,103.50000762939453,-165.3000030517578,-25.500001907348633
418515,1.6909501552581787,7.658622741699219,-3.464444160461426,-0.2743920087814331,0.967993974685669,1.2576299905776978,103.50000762939453,-165.3000030517578,-26.700000762939453
418535,1.6592485904693604,7.583854675292969,-3.3974521160125732,-0.20579399168491364,0.7164679765701294,1.2347639799118042,98.70000457763672,-162.90000915527344,-26.100000381469727
418555,1.732222080230713,8.053995132446289,-3.478201389312744,-0.3582339882850647,0.5792719721794128,1.0442140102386475,91.5,-162.90000915527344,-24.900001525878906
418578,1.7047075033187866,7.830289840698242,-3.4004428386688232,-0.7317119836807251,0.25152599811553955,0.5564059615135193,103.50000762939453,-167.70001220703125,-27.30000114440918
418598,1.729231357574463,7.598808288574219,-3.332254409790039,-0.914639949798584,0.16768398880958557,0.6936019659042358,96.30000305175781,-167.70001220703125,-24.900001525878906
418618,1.8207472562789917,7.56411600112915,-3.344217300415039,-1.0442140102386475,0.114329993724823,0.8765299916267395,96.30000305175781,-160.5,-26.700000762939453
418638,1.8530468940734863,7.882925987243652,-3.5105011463165283,-0.9375059604644775,0.1600620001554489,1.1356779336929321,91.5,-167.70001220703125,-26.100000381469727
418658,1.8578320741653442,8.187978744506836,-3.6289334297180176,-0.7012239694595337,-0.09908600151538849,1.0061039924621582,91.5,-170.10000610351562,-24.900001525878906
418679,1.9008983373641968,7.908048152923584,-3.5601470470428467,-0.7774440050125122,-0.3048799932003021,0.6783579587936401,89.10000610351562,-162.90000915527344,-28.500001907348633
418700,1.9529367685317993,8.046218872070312,-3.5302398204803467,-0.685979962348938,-0.44969800114631653,0.7317119836807251,86.70000457763672,-167.70001220703125,-26.100000381469727
418720,2.0552191734313965,8.182596206665039,-3.5182769298553467,-0.7545779943466187,-0.5640279650688171,0.5564059615135193,93.9000015258789,-165.3000030517578,-29.100000381469727
418744,2.0516304969787598,8.248990058898926,-3.368143081665039,-0.7164679765701294,-0.7774440050125122,-0.02286599949002266,86.70000457763672,-170.10000610351562,-24.900001525878906
418765,2.068378448486328,8.221475601196289,-3.231168270111084,-0.7012239694595337,-0.9984819889068604,-0.4344539940357208,84.30000305175781,-165.3000030517578,-27.900001525878906
418786,2.2041568756103516,8.34768295288086,-3.1558022499084473,-0.5564059615135193,-1.242385983467102,-0.5640279650688171,86.70000457763672,-167.70001220703125,-27.900001525878906
418827,2.6276421546936035,9.262842178344727,-2.580986976623535,-0.4725639820098877,-2.14178204536438,-0.36585599184036255,93.9000015258789,-160.5,-25.500001907348633
418847,2.748466968536377,9.607970237731934,-2.772392749786377,-1.196653962135315,-1.4939119815826416,-0.4039659798145294,89.10000610351562,-167.70001220703125,-28.500001907348633
418887,2.2526063919067383,8.804664611816406,-2.0946967601776123,-1.3795819282531738,-1.875011920928955,0.007621999830007553,91.5,-165.3000030517578,-27.900001525878906
418951,1.7812697887420654,10.206113815307617,-1.7310258150100708,-0.9222619533538818,-2.0045859813690186,0.6326259970664978,86.70000457763672,-170.10000610351562,-29.100000381469727
418971,2.4158995151519775,11.911418914794922,-1.8787670135498047,-0.7850660085678101,-1.8445239067077637,0.9298839569091797,89.10000610351562,-165.3000030517578,-28.500001907348633
418991,2.9919111728668213,13.39122486114502,-1.3171107769012451,-1.5701320171356201,-2.126538038253784,-0.7774440050125122,84.30000305175781,-167.70001220703125,-29.100000381469727
419012,1.3344569206237793,10.18458080291748,-0.6818829774856567,-2.240867853164673,-0.8917739987373352,-3.513741970062256,91.5,-172.5,-29.700000762939453
419032,0.5550766587257385,9.724608421325684,-0.8679054379463196,-1.471045970916748,0.038109999150037766,-3.208861827850342,93.9000015258789,-167.70001220703125,-30.30000114440918
419054,0.2769401967525482,9.94532299041748,-1.2387540340423584,-1.3186060190200806,0.571649968624115,-3.8872199058532715,91.5,-167.70001220703125,-30.30000114440918
419077,-0.1722651720046997,8.31897258758545,-1.4804039001464844,-1.2576299905776978,0.510673999786377,-5.0000319480896,101.10000610351562,-165.3000030517578,-29.700000762939453
419097,-0.6627424359321594,7.344597339630127,-1.7011185884475708,0.17530599236488342,-0.06859800219535828,-3.2241058349609375,108.30000305175781,-165.3000030517578,-30.30000114440918
419117,-0.061010584235191345,8.086893081665039,-1.5491902828216553,0.6936019659042358,-0.685979962348938,-0.7240899801254272,101.10000610351562,-158.10000610351562,-29.700000762939453
419137,0.23865903913974762,8.544472694396973,-1.4833946228027344,0.6936019659042358,-0.6707359552383423,0.09146399796009064,101.10000610351562,-165.3000030517578,-30.30000114440918
419157,0.4827013909816742,8.45534896850586,-1.432552456855774,0.33536797761917114,-0.6631140112876892,0.10670799762010574,101.10000610351562,-160.5,-27.900001525878906
419177,0.7201641201972961,8.270523071289062,-1.5940510034561157,0.25152599811553955,-0.46494197845458984,0.05335399881005287,105.9000015258789,-162.90000915527344,-28.500001907348633
419200,0.9803563356399536,8.855506896972656,-1.81955087184906,0.46494197845458984,-0.739333987236023,0.6936019659042358,101.10000610351562,-165.3000030517578,-29.700000762939453
419220,1.0264133214950562,9.030762672424316,-1.8973095417022705,0.39634400606155396,-0.7850660085678101,0.7164679765701294,105.9000015258789,-162.90000915527344,-29.700000762939453
419240,1.3643641471862793,9.36273193359375,-1.9738718271255493,0.48018598556518555,-1.295740008354187,0.5792719721794128,101.10000610351562,-165.3000030517578,-27.900001525878906
419260,1.4810019731521606,9.456640243530273,-1.940375804901123,0.3201240003108978,-1.4405579566955566,0.6021379828453064,103.50000762939453,-165.3000030517578,-28.500001907348633
419284,1.535433053970337,9.504491806030273,-1.7752883434295654,0.114329993724823,-1.4024479389190674,0.6021379828453064,103.50000762939453,-165.3000030517578,-29.700000762939453
419304,1.7370071411132812,9.810142517089844,-1.5635457038879395,-0.228659987449646,-0.967993974685669,0.5030519962310791,101.10000610351562,-162.90000915527344,-28.500001907348633
419324,1.658650517463684,9.468603134155273,-1.537825584411621,-0.7088459730148315,-0.18292799592018127,-0.007621999830007553,98.70000457763672,-162.90000915527344,-30.30000114440918
419344,1.5605549812316895,8.935657501220703,-1.4744224548339844,-0.8917739987373352,0.39634400606155396,0.007621999830007553,103.50000762939453,-160.5,-28.500001907348633
419364,1.4726279973983765,8.72331714630127,-1.3954675197601318,-0.7774440050125122,0.7850660085678101,0.41158798336982727,103.50000762939453,-167.70001220703125,-29.700000762939453
419425,1.119125485420227,8.33272933959961,-1.1053682565689087,-0.8155539631843567,1.6311079263687134,0.22103799879550934,93.9000015258789,-158.10000610351562,-29.100000381469727
419445,1.524666428565979,9.22336483001709,-1.2973721027374268,-0.4192099869251251,1.8673899173736572,0.46494197845458984,98.70000457763672,-162.90000915527344,-30.900001525878906
419485,2.2017643451690674,10.529708862304688,-1.7812697887420654,-0.41158798336982727,2.088428020477295,0.07621999830007553,93.9000015258789,-162.90000915527344,-27.900001525878906
419505,1.84347665309906,9.241907119750977,-1.6897538900375366,-0.5411620140075684,2.0045859813690186,-0.6783579587936401,96.30000305175781,-165.3000030517578,-27.900001525878906
419525,2.0964910984039307,9.91541576385498,-2.1987736225128174,0.19817200303077698,1.875011920928955,0.2591480016708374,96.30000305175781,-160.5,-29.100000381469727
419546,1.739399790763855,9.08698844909668,-2.292681932449341,-0.09146399796009064,1.9131219387054443,-0.030487999320030212,91.5,-167.70001220703125,-28.500001907348633
419566,1.229781985282898,8.850123405456543,-2.629436492919922,0.3734779953956604,1.8978779315948486,0.2972579896450043,101.10000610351562,-165.3000030517578,-30.900001525878906
419588,1.3254848718643188,9.84483528137207,-3.054716110229492,0.685979962348938,1.9588539600372314,-0.4420759975910187,98.70000457763672,-165.3000030517578,-29.700000762939453
419608,1.2142301797866821,9.51107120513916,-3.1486246585845947,0.510673999786377,1.8369019031524658,-1.653973937034607,96.30000305175781,-160.5,-29.100000381469727
419629,1.643696904182434,9.880125999450684,-3.43393874168396,0.6554920077323914,2.1036720275878906,-1.4024479389190674,96.30000305175781,-162.90000915527344,-27.30000114440918
419650,2.5564630031585693,10.410079956054688,-3.538015604019165,0.8231759667396545,1.699705958366394,-0.5411620140075684,93.9000015258789,-165.3000030517578,-27.900001525878906
419670,2.1688663959503174,9.180896759033203,-3.126493215560913,-0.007621999830007553,1.882633924484253,-0.342989981174469,96.30000305175781,-160.5,-27.30000114440918
419690,2.1539127826690674,9.168335914611816,-3.473416328430176,0.26677000522613525,1.8978779315948486,1.0899460315704346,98.70000457763672,-165.3000030517578,-27.30000114440918
419710,2.0259101390838623,8.98709774017334,-3.3196935653686523,0.6021379828453064,1.5548880100250244,1.2804960012435913,91.5,-160.5,-29.700000762939453
419733,1.8614208698272705,8.79688835144043,-3.395059585571289,0.7926880121231079,1.478667974472046,1.1814099550247192,98.70000457763672,-170.10000610351562,-29.100000381469727
419753,2.0318915843963623,8.81902027130127,-3.168961524963379,1.0747020244598389,0.9603719711303711,1.0289700031280518,89.10000610351562,-162.90000915527344,-27.30000114440918
419773,2.139557361602783,8.593520164489746,-2.9404709339141846,0.9603719711303711,1.0061039924621582,0.7088459730148315,91.5,-160.5,-26.100000381469727
419793,2.2394473552703857,8.524733543395996,-3.008060932159424,0.8612859845161438,1.2118979692459106,0.800309956073761,91.5,-158.10000610351562,-26.100000381469727
419816,2.2825136184692383,8.215494155883789,-2.911760091781616,0.6097599864006042,1.2500079870224,0.914639949798584,84.30000305175781,-158.10000610351562,-26.100000381469727
419879,2.8100757598876953,8.29504680633545,-3.20784068107605,-0.16768398880958557,1.5091559886932373,2.225623846054077,74.70000457763672,-162.90000915527344,-24.30000114440918
419909,2.920732021331787,8.152688980102539,-3.2215981483459473,-0.6554920077323914,1.524399995803833,2.278977870941162,79.5,-165.3000030517578,-24.900001525878906
419970,3.251505136489868,8.815430641174316,-3.5601470470428467,-1.3948259353637695,0.9756159782409668,2.957335948944092,72.30000305175781,-165.3000030517578,-26.700000762939453
420149,3.7156641483306885,8.067752838134766,-2.005573272705078,-1.8978779315948486,-0.8765299916267395,2.4542839527130127,43.5,-165.3000030517578,-30.900001525878906
420170,3.5302398204803467,8.059976577758789,-1.7806715965270996,-1.935987949371338,-0.9984819889068604,2.492393970489502,45.900001525878906,-165.3000030517578,-30.900001525878906
420212,3.4596588611602783,9.857994079589844,-1.8859448432922363,-1.6082419157028198,-1.4100699424743652,2.492393970489502,48.30000305175781,-170.10000610351562,-30.900001525878906
420232,3.1019694805145264,9.33880615234375,-1.4421226978302002,-1.92836594581604,-1.9588539600372314,1.7835479974746704,36.30000305175781,-170.10000610351562,-30.900001525878906
420272,2.7765796184539795,10.878426551818848,-1.030002236366272,-1.7454379796981812,-1.7683039903640747,1.5167779922485352,36.30000305175781,-170.10000610351562,-32.70000076293945
420315,2.1144354343414307,10.10562515258789,-0.6430037021636963,-1.5625100135803223,-0.9832379817962646,-2.8658719062805176,38.70000076293945,-167.70001220703125,-33.30000305175781
420335,1.8703930377960205,9.423742294311523,-0.5861800909042358,-1.3490939140319824,-0.6554920077323914,-3.1707520484924316,36.30000305175781,-170.10000610351562,-32.70000076293945
420355,1.7758865356445312,9.21917724609375,-0.6537702679634094,-0.8689079880714417,-0.36585599184036255,-2.835383892059326,45.900001525878906,-174.90000915527344,-33.30000305175781
420398,1.84945809841156,9.165943145751953,-0.7871561646461487,-0.20579399168491364,0.038109999150037766,-1.0061039924621582,45.900001525878906,-170.10000610351562,-32.70000076293945
420419,2.0516304969787598,8.830384254455566,-0.821250319480896,-0.15243999660015106,0.1600620001554489,-0.5487840175628662,48.30000305175781,-170.10000610351562,-31.500001907348633
420439,2.5026302337646484,8.879432678222656,-0.8350076079368591,0.09146399796009064,0.12195199728012085,0.18292799592018127,43.5,-170.10000610351562,-32.70000076293945
420459,2.6790823936462402,8.640174865722656,-0.7925394177436829,-0.17530599236488342,0.17530599236488342,0.3887220025062561,48.30000305175781,-167.70001220703125,-32.10000228881836
420501,3.079240083694458,8.936854362487793,-0.92472904920578,0.457319974899292,0.3048799932003021,1.1204339265823364,45.900001525878906,-165.3000030517578,-32.70000076293945
420521,3.2060463428497314,8.789710998535156,-0.903195858001709,0.22103799879550934,0.5487840175628662,0.9070180058479309,43.5,-170.10000610351562,-32.70000076293945
420543,3.3430211544036865,8.993678092956543,-0.9809544682502747,0.2134159952402115,0.7850660085678101,0.9070180058479309,48.30000305175781,-167.70001220703125,-32.70000076293945
420564,3.419583320617676,8.877039909362793,-1.0718722343444824,0.02286599949002266,1.0061039924621582,0.6554920077323914,36.30000305175781,-174.90000915527344,-32.70000076293945
420585,3.511697292327881,9.176111221313477,-1.2232023477554321,0.3048799932003021,1.021347999572754,0.5411620140075684,43.5,-174.90000915527344,-30.30000114440918
420626,3.4865753650665283,9.10493278503418,-1.4475059509277344,0.41158798336982727,0.9070180058479309,0.6250039935112,36.30000305175781,-170.10000610351562,-31.500001907348633
420646,3.2927770614624023,8.800477981567383,-1.4606651067733765,0.1600620001554489,0.7774440050125122,0.4725639820098877,45.900001525878906,-167.70001220703125,-31.500001907348633
420666,3.27363657951355,9.01999568939209,-1.6849687099456787,0.46494197845458984,0.5640279650688171,0.39634400606155396,41.10000228881836,-172.5,-31.500001907348633
420688,3.282010555267334,8.772364616394043,-1.7250443696975708,0.49542999267578125,0.28201398253440857,-0.06859800219535828,31.500001907348633,-172.5,-32.70000076293945
420708,3.260477304458618,8.632997512817383,-1.7746901512145996,0.571649968624115,0.17530599236488342,-0.2743920087814331,43.5,-174.90000915527344,-31.500001907348633
420728,3.3077306747436523,8.439797401428223,-1.714277744293213,0.6707359552383423,0.16768398880958557,-0.46494197845458984,36.30000305175781,-172.5,-29.700000762939453
420751,3.570913553237915,8.680251121520996,-1.7136796712875366,0.5868939757347107,0.4039659798145294,-0.3125019967556,43.5,-172.5,-32.10000228881836
420771,3.5398101806640625,8.78911304473877,-1.8249342441558838,0.36585599184036255,0.7926880121231079,-0.228659987449646,33.900001525878906,-170.10000610351562,-30.900001525878906
420791,3.5487823486328125,8.510377883911133,-1.9098705053329468,0.19817200303077698,1.0823240280151367,-0.19817200303077698,38.70000076293945,-174.90000915527344,-30.30000114440918
420811,3.5428009033203125,8.626418113708496,-1.9266184568405151,0.20579399168491364,1.2576299905776978,0,31.500001907348633,-170.10000610351562,-30.900001525878906
420831,3.431546211242676,8.31478500366211,-1.9834420680999756,-0.07621999830007553,1.5015339851379395,0.114329993724823,38.70000076293945,-172.5,-30.30000114440918
420891,3.5870633125305176,8.86388111114502,-2.19697904586792,0.10670799762010574,1.2271419763565063,0.5945159792900085,38.70000076293945,-172.5,-30.900001525878906
420929,3.6355130672454834,8.516958236694336,-2.2424380779266357,-0.2743920087814331,0.9756159782409668,0.04573199898004532,36.30000305175781,-172.5,-30.900001525878906
420949,3.624148368835449,8.682642936706543,-2.3178040981292725,0.02286599949002266,0.7240899801254272,0.3277460038661957,31.500001907348633,-167.70001220703125,-30.30000114440918
420991,3.562539577484131,8.483461380004883,-2.104865074157715,-0.3582339882850647,0.4039659798145294,-0.09908600151538849,33.900001525878906,-167.70001220703125,-29.700000762939453
421011,3.6109890937805176,8.45235824584961,-2.0498359203338623,-0.3125019967556,0.28201398253440857,-0.19817200303077698,29.100000381469727,-172.5,-29.100000381469727
421031,3.5697171688079834,8.442190170288086,-2.0612006187438965,-0.22103799879550934,0.2134159952402115,-0.35061198472976685,36.30000305175781,-170.10000610351562,-30.30000114440918
421051,3.6702053546905518,8.510377883911133,-1.9475535154342651,-0.06859800219535828,0.060975998640060425,-0.342989981174469,33.900001525878906,-167.70001220703125,-30.30000114440918
421071,3.8257224559783936,8.632399559020996,-1.8715893030166626,-0.2439039945602417,0.1600620001554489,-0.2972579896450043,38.70000076293945,-170.10000610351562,-30.900001525878906
421094,3.7365992069244385,8.45534896850586,-1.8309156894683838,-0.6173819899559021,0.3582339882850647,-0.22103799879550934,36.30000305175781,-172.5,-29.100000381469727
421118,3.552371025085449,8.116800308227539,-1.8261305093765259,-0.8231759667396545,0.44969800114631653,-0.04573199898004532,31.500001907348633,-170.10000610351562,-29.100000381469727
421138,3.374124526977539,8.070743560791016,-1.7932326793670654,-0.7317119836807251,0.3887220025062561,0.04573199898004532,36.30000305175781,-170.10000610351562,-30.30000114440918
421158,3.239542245864868,7.993582725524902,-1.702314853668213,-0.6783579587936401,0.2439039945602417,-0.15243999660015106,33.900001525878906,-170.10000610351562,-29.700000762939453
421198,2.0827338695526123,4.765405178070068,-0.8643165826797485,-0.9908599853515625,-0.18292799592018127,-2.225623846054077,36.30000305175781,-170.10000610351562,-31.500001907348633
421227,0.9570287466049194,1.8841503858566284,-0.2799309194087982,-0.9984819889068604,-0.09908600151538849,-2.195136070251465,43.5,-167.70001220703125,-30.30000114440918
421287,2.521770715713501,8.285476684570312,-1.8291212320327759,-1.7835479974746704,1.7606819868087769,2.378063917160034,31.500001907348633,-167.70001220703125,-30.30000114440918
421307,3.0864176750183105,15.263412475585938,-4.051222324371338,-0.3125019967556,3.452765941619873,7.614377975463867,33.900001525878906,-170.10000610351562,-30.900001525878906
421347,9.997960090637207,19.568845748901367,-4.151112079620361,0.007621999830007553,-3.803377866744995,2.3551979064941406,19.5,-167.70001220703125,-32.70000076293945
421367,10.392135620117188,19.599349975585938,-3.502127170562744,-0.20579399168491364,-3.650938034057617,2.2027578353881836,17.100000381469727,-170.10000610351562,-31.500001907348633
421389,11.249275207519531,19.599349975585938,-5.094981670379639,-2.2637338638305664,2.4542839527130127,3.361301898956299,5.100000381469727,-170.10000610351562,-32.10000228881836
421409,7.785429000854492,19.47075080871582,-3.7186548709869385,-0.5182960033416748,-1.6920839548110962,-3.757645845413208,14.700000762939453,-172.5,-35.10000228881836
421429,5.648862361907959,15.200607299804688,-2.152716636657715,-1.013725996017456,-1.3186060190200806,-4.397893905639648,14.700000762939453,-165.3000030517578,-33.900001525878906
421472,1.6742022037506104,4.307227611541748,0.15491902828216553,0.015243999660015106,-2.0655620098114014,-10.724153518676758,33.900001525878906,-172.5,-32.70000076293945
421553,0.7351177334785461,0.25241634249687195,0.2691643238067627,1.6082419157028198,0.08384199440479279,0.09146399796009064,41.10000228881836,-174.90000915527344,-32.70000076293945
421607,0.5407212376594543,-0.09211401641368866,0.05622543767094612,0.8612859845161438,-1.067080020904541,-0.457319974899292,41.10000228881836,-177.3000030517578,-29.700000762939453
421711,1.140060544013977,1.9128612279891968,-0.7769877314567566,0.19817200303077698,-0.967993974685669,2.6600780487060547,43.5,-172.5,-32.10000228881836
421731,1.8261305093765259,5.524448394775391,-1.0963960886001587,0.3125019967556,-1.0975680351257324,4.085391998291016,38.70000076293945,-172.5,-29.700000762939453
421772,4.597925186157227,15.634261131286621,-3.815553903579712,0.09146399796009064,2.5533699989318848,10.686043739318848,33.900001525878906,-170.10000610351562,-31.500001907348633
421792,8.505593299865723,19.599349975585938,-3.082230806350708,-4.085391998291016,-0.15243999660015106,7.1418137550354,19.5,-172.5,-32.70000076293945
421832,13.881103515625,19.599349975585938,-6.171041011810303,-0.6936019659042358,4.992409706115723,5.762231826782227,9.90000057220459,-170.10000610351562,-33.30000305175781
421852,13.836841583251953,19.599349975585938,-6.188387393951416,1.2042759656906128,0.26677000522613525,1.1356779336929321,5.100000381469727,-167.70001220703125,-33.900001525878906
421875,11.572870254516602,19.599349975585938,-5.556748390197754,1.471045970916748,-1.6158639192581177,-1.3186060190200806,7.500000476837158,-165.3000030517578,-32.70000076293945
421895,8.290860176086426,19.331981658935547,-4.517175674438477,1.3872039318084717,-2.949713945388794,-2.850627899169922,9.90000057220459,-167.70001220703125,-33.30000305175781
421917,3.4530794620513916,11.251069068908691,-2.646782636642456,2.1036720275878906,-4.054903984069824,-12.362883567810059,21.900001525878906,-170.10000610351562,-32.70000076293945
421937,0.02691643312573433,3.9872210025787354,-0.8984107375144958,1.4100699424743652,-5.571681976318359,-18.147981643676758,33.900001525878906,-172.5,-30.900001525878906
421957,-2.3560850620269775,-1.7178666591644287,0.21413518488407135,1.2804960012435913,-3.407033920288086,-13.95588207244873,53.10000228881836,-174.90000915527344,-29.100000381469727
421981,-1.7693068981170654,-1.7794753313064575,0.2428460419178009,-0.9984819889068604,-0.7317119836807251,-4.771371841430664,55.500003814697266,-167.70001220703125,-29.100000381469727
422001,-1.0323947668075562,0.11663787811994553,-0.09390844404697418,-0.18292799592018127,0.228659987449646,-2.3628199100494385,65.10000610351562,-174.90000915527344,-28.500001907348633
422021,-0.3971669375896454,0.8798683285713196,-0.46236452460289,1.3948259353637695,0.2134159952402115,-2.126538038253784,67.5,-170.10000610351562,-29.100000381469727
422041,-0.17047074437141418,0.6250594258308411,-0.13338588178157806,1.0365920066833496,-0.33536797761917114,-1.9969639778137207,67.5,-167.70001220703125,-30.900001525878906
422101,-0.07476787269115448,-0.4001576602458954,0.23865903913974762,-0.20579399168491364,0.4039659798145294,0.8917739987373352,69.9000015258789,-162.90000915527344,-27.900001525878906
422127,-0.07716044038534164,-0.3678579330444336,0.04306629300117493,-1.0975680351257324,0.5335400104522705,1.3338500261306763,72.30000305175781,-167.70001220703125,-30.30000114440918
422189,1.9110667705535889,4.4878668785095215,-0.7207622528076172,-0.5259180068969727,0.8612859845161438,5.807963848114014,57.900001525878906,-167.70001220703125,-28.500001907348633
422246,7.687333583831787,19.599349975585938,-4.407715320587158,-6.410101890563965,2.8734939098358154,10.968057632446289,26.700000762939453,-170.10000610351562,-30.30000114440918
422266,7.066461086273193,17.224124908447266,-2.874077081680298,0.5792719721794128,0.8917739987373352,-1.6692179441452026,19.5,-170.10000610351562,-30.900001525878906
422307,16.740825653076172,19.588584899902344,-6.961187839508057,-4.268320083618164,7.416205883026123,9.832379341125488,0.30000001192092896,-167.70001220703125,-32.10000228881836
422389,3.4770050048828125,8.69640064239502,-1.3888880014419556,1.0289700031280518,-2.5762360095977783,-11.920807838439941,14.700000762939453,-174.90000915527344,-32.70000076293945
422492,1.0407687425613403,0.9719823002815247,0.22908875346183777,0.33536797761917114,-1.2652519941329956,0.33536797761917114,36.30000305175781,-174.90000915527344,-30.30000114440918
422512,1.0718722343444824,1.0629000663757324,0.1782466024160385,0.038109999150037766,-1.2652519941329956,0.26677000522613525,41.10000228881836,-174.90000915527344,-30.900001525878906
422532,0.712986409664154,0.3899892270565033,0.2984733283519745,-0.6554920077323914,-1.417691946029663,-0.3887220025062561,41.10000228881836,-172.5,-30.30000114440918
422552,0.4342517852783203,-0.6166853904724121,0.596946656703949,-1.0594580173492432,-1.524399995803833,-0.8917739987373352,43.5,-172.5,-30.30000114440918
422572,0.14893759787082672,-0.9618139266967773,0.6729108691215515,-0.9222619533538818,-1.1356779336929321,-0.7469559907913208,45.900001525878906,-177.3000030517578,-31.500001907348633
422592,-0.022131290286779404,-0.8912330269813538,0.6956402659416199,-0.7545779943466187,-0.2896359860897064,-0.02286599949002266,43.5,-170.10000610351562,-31.500001907348633
422632,1.1950896978378296,2.0187325477600098,-0.22849062085151672,0.228659987449646,1.0823240280151367,3.239349842071533,45.900001525878906,-167.70001220703125,-30.30000114440918
422730,9.807750701904297,19.599349975585938,-4.820434093475342,3.8948419094085693,-0.060975998640060425,-5.952781677246094,2.700000047683716,-170.10000610351562,-32.10000228881836
422750,13.422327995300293,19.598154067993164,-5.067467212677002,1.1814099550247192,3.8491098880767822,5.0533857345581055,7.500000476837158,-174.90000915527344,-32.10000228881836
422793,9.409985542297363,19.51620864868164,-5.327659606933594,2.134160041809082,-1.8140360116958618,-4.207344055175781,2.700000047683716,-167.70001220703125,-30.900001525878906
422813,6.266744136810303,15.276571273803711,-3.8951070308685303,1.6387299299240112,-3.1326420307159424,-5.846074104309082,5.100000381469727,-172.5,-30.900001525878906
422834,3.3842928409576416,10.037437438964844,-2.226288080215454,2.736297845840454,-3.445143938064575,-11.760746002197266,9.90000057220459,-170.10000610351562,-29.100000381469727
422858,0.7105938792228699,3.657644271850586,-1.0473483800888062,2.187514066696167,-4.634175777435303,-15.09918212890625,29.100000381469727,-167.70001220703125,-27.900001525878906
422878,-1.2273893356323242,-0.15252645313739777,0.052038438618183136,-0.41158798336982727,-2.0503180027008057,-9.28359603881836,41.10000228881836,-170.10000610351562,-29.100000381469727
422898,-0.35529693961143494,0.6232649683952332,-0.02691643312573433,-2.5000159740448,0.3582339882850647,-2.1722700595855713,48.30000305175781,-162.90000915527344,-27.30000114440918
422918,-0.5592637062072754,0.16987259685993195,0.04426258057355881,-1.8369019031524658,-0.04573199898004532,-2.9116039276123047,48.30000305175781,-170.10000610351562,-29.100000381469727
422938,-0.2326776087284088,-0.4635607898235321,0.022131290286779404,-0.6173819899559021,-0.3277460038661957,-1.7225719690322876,57.900001525878906,-170.10000610351562,-29.700000762939453
422978,0.06878644227981567,0.10826388001441956,0.4521960914134979,-0.9603719711303711,-1.1737879514694214,-0.114329993724823,57.900001525878906,-177.3000030517578,-29.100000381469727
423042,-0.16748003661632538,-0.9175513386726379,0.5167955160140991,-0.7469559907913208,-0.3125019967556,0.9756159782409668,50.70000076293945,-179.70001220703125,-29.700000762939453
423062,0.16688188910484314,-0.21951846778392792,0.44681280851364136,-0.5640279650688171,-0.3887220025062561,1.7606819868087769,45.900001525878906,-170.10000610351562,-31.500001907348633
423102,2.0558173656463623,4.897594451904297,-0.7775858640670776,0.3582339882850647,0.17530599236488342,5.236313819885254,36.30000305175781,-172.5,-28.500001907348633
423149,7.830887794494629,19.599349975585938,-4.641589641571045,-3.9253299236297607,4.611310005187988,12.385749816894531,14.700000762939453,-170.10000610351562,-30.900001525878906
423169,6.995880126953125,19.185436248779297,-5.072850704193115,2.027451992034912,1.9740979671478271,-1.707327961921692,14.700000762939453,-167.70001220703125,-30.900001525878906
423209,17.137393951416016,19.597557067871094,-7.003057956695557,-3.650938034057617,1.875011920928955,9.61134147644043,2.700000047683716,-165.3000030517578,-32.70000076293945
423232,13.29851245880127,19.599349975585938,-6.328950881958008,-0.8841519951820374,-2.7744078636169434,-0.23628199100494385,-2.1000001430511475,-165.3000030517578,-32.10000228881836
423272,8.016311645507812,17.01238250732422,-4.187598705291748,-2.225623846054077,-3.4298999309539795,-1.6768399477005005,0.30000001192092896,-162.90000915527344,-31.500001907348633
423292,4.783349514007568,10.458529472351074,-1.7035112380981445,-2.03507399559021,-7.301876068115234,-7.5915117263793945,2.700000047683716,-174.90000915527344,-29.700000762939453
423312,2.1706607341766357,4.776769638061523,0.05801986902952194,-0.26677000522613525,-4.862835884094238,-12.225687980651855,9.90000057220459,-174.90000915527344,-30.30000114440918
423332,-0.17106889188289642,0.008374001830816269,0.4844958186149597,-1.577754020690918,-1.5396440029144287,-10.99854564666748,21.900001525878906,-170.10000610351562,-32.10000228881836
423352,-0.4384388029575348,-1.3350551128387451,0.4665515124797821,-2.0655620098114014,-0.26677000522613525,-4.7027740478515625,24.30000114440918,-172.5,-31.500001907348633
423372,0.3768300712108612,-0.406139075756073,0.5915634036064148,-1.3262280225753784,0.3201240003108978,-1.5091559886932373,29.100000381469727,-170.10000610351562,-32.70000076293945
423392,0.6011337041854858,-0.3941762149333954,0.4707385301589966,0.030487999320030212,0.48018598556518555,-1.0594580173492432,33.900001525878906,-174.90000915527344,-31.500001907348633
423412,0.8194558620452881,-0.029907148331403732,0.5574692487716675,0.510673999786377,0.38109999895095825,0.16768398880958557,31.500001907348633,-172.5,-31.500001907348633
423432,0.5700302720069885,0.04964586719870567,0.5191881060600281,0.457319974899292,0.6250039935112,0.3125019967556,36.30000305175781,-170.10000610351562,-31.500001907348633
423453,0.23028504848480225,-0.12680630385875702,0.4928697943687439,0.39634400606155396,0.6173819899559021,-0.18292799592018127,26.700000762939453,-174.90000915527344,-31.500001907348633
423473,0.08732887357473373,-0.14355431497097015,0.5335435271263123,0.13719600439071655,0.35061198472976685,-0.8155539631843567,31.500001907348633,-170.10000610351562,-29.700000762939453
423494,-0.0352904349565506,-0.5646469593048096,0.5269639492034912,-0.5564059615135193,0.4039659798145294,-1.3643379211425781,31.500001907348633,-170.10000610351562,-32.10000228881836
423514,0.08493629842996597,-0.7399028539657593,0.29787519574165344,-0.5030519962310791,0.7012239694595337,-0.8384199738502502,31.500001907348633,-174.90000915527344,-31.500001907348633
423536,1.0455539226531982,1.8656079769134521,-0.12142302095890045,0.5945159792900085,0.853663980960846,2.088428020477295,31.500001907348633,-177.3000030517578,-31.500001907348633
423556,1.8380934000015259,5.103953838348389,-0.5801987051963806,0.6250039935112,1.5472660064697266,4.4436259269714355,29.100000381469727,-177.3000030517578,-29.700000762939453
423578,5.074645042419434,13.944506645202637,-3.066679000854492,-0.2134159952402115,5.564059734344482,11.71501350402832,19.5,-172.5,-31.500001907348633
423598,8.119193077087402,19.599349975585938,-4.68585205078125,-2.0960500240325928,5.099117755889893,11.547329902648926,2.700000047683716,-174.90000915527344,-29.700000762939453
423618,11.457428932189941,19.557479858398438,-4.584765911102295,-1.1661659479141235,1.9436099529266357,3.955817937850952,-4.5,-172.5,-33.30000305175781
423638,11.496906280517578,19.599349975585938,-5.13206672668457,1.0747020244598389,1.14329993724823,-1.1661659479141235,-9.300000190734863,-167.70001220703125,-31.500001907348633
423658,15.378255844116211,19.599349975585938,-5.884530544281006,-2.0122079849243164,4.420759677886963,8.475664138793945,-4.5,-167.70001220703125,-31.500001907348633
423681,13.40916919708252,19.599349975585938,-5.877352714538574,-0.3201240003108978,0.2896359860897064,-0.8612859845161438,-14.100000381469727,-172.5,-33.900001525878906
423701,9.076221466064453,19.376243591308594,-5.022606372833252,0.914639949798584,-2.7286758422851562,-5.4573516845703125,-14.100000381469727,-172.5,-33.30000305175781
423721,6.288875102996826,14.210680961608887,-3.1073527336120605,0.6783579587936401,-5.403997898101807,-7.157057762145996,-2.1000001430511475,-172.5,-30.30000114440918
423741,3.702504873275757,8.82799243927002,-1.4361412525177002,2.545747995376587,-4.862835884094238,-12.309529304504395,9.90000057220459,-174.90000915527344,-30.900001525878906
423761,0.7135845422744751,2.0725653171539307,-0.2577996253967285,1.5320219993591309,-4.885701656341553,-14.588507652282715,19.5,-172.5,-31.500001907348633
423785,-0.799717128276825,-1.639509916305542,0.406139075756073,-0.7164679765701294,-1.4558019638061523,-7.621999740600586,36.30000305175781,-174.90000915527344,-28.500001907348633
423805,0.05682358145713806,-0.5891708135604858,-0.06639386713504791,-2.088428020477295,0.9222619533538818,-0.114329993724823,33.900001525878906,-174.90000915527344,-30.30000114440918
423827,0.712986409664154,0.20336860418319702,0.041870009154081345,-0.6707359552383423,0.2972579896450043,0.05335399881005287,36.30000305175781,-172.5,-28.500001907348633
423847,1.099984884262085,0.5550766587257385,-0.07775858789682388,-0.7774440050125122,0.12195199728012085,0.967993974685669,31.500001907348633,-170.10000610351562,-29.700000762939453
423867,0.7829691767692566,0.2075556069612503,0.1561153084039688,-0.7698220014572144,-0.3048799932003021,0.571649968624115,31.500001907348633,-174.90000915527344,-30.900001525878906
423930,0.09211401641368866,-0.48210322856903076,0.6675275564193726,-1.3033620119094849,-0.15243999660015106,-1.3109840154647827,31.500001907348633,-167.70001220703125,-33.30000305175781
423990,1.8159620761871338,3.583474636077881,-0.29966962337493896,0.28201398253440857,1.8369019031524658,3.3231918811798096,31.500001907348633,-172.5,-30.900001525878906
424010,1.134079098701477,4.4310431480407715,-0.6776959896087646,0.09146399796009064,2.126538038253784,2.652456045150757,29.100000381469727,-174.90000915527344,-32.70000076293945
424030,2.5199763774871826,8.77415943145752,-1.743586778640747,2.385685920715332,4.336917877197266,9.207375526428223,24.30000114440918,-170.10000610351562,-32.70000076293945
424052,8.692214012145996,19.599349975585938,-3.7342066764831543,-3.5213639736175537,6.006135940551758,21.090072631835938,7.500000476837158,-170.10000610351562,-31.500001907348633
424072,11.907232284545898,19.515012741088867,-3.8789572715759277,-4.512223720550537,3.2698378562927246,6.509187698364258,0.30000001192092896,-167.70001220703125,-33.30000305175781
424092,10.887996673583984,19.599349975585938,-4.983129024505615,3.955817937850952,2.225623846054077,-6.303393840789795,5.100000381469727,-167.70001220703125,-32.10000228881836
424112,15.405770301818848,19.598752975463867,-6.062777042388916,-0.457319974899292,3.5747179985046387,8.475664138793945,-9.300000190734863,-162.90000915527344,-34.5
424132,15.804731369018555,19.599349975585938,-4.853332042694092,-2.9802019596099854,0.6783579587936401,0.17530599236488342,-18.900001525878906,-162.90000915527344,-33.30000305175781
424152,10.286264419555664,19.595163345336914,-4.639196872711182,0.6250039935112,-1.2195199728012085,-7.019861698150635,-6.900000095367432,-165.3000030517578,-34.5
424172,7.137042045593262,16.197113037109375,-3.481192111968994,-0.030487999320030212,-2.995445966720581,-6.913153648376465,2.700000047683716,-174.90000915527344,-33.900001525878906
424192,3.9513325691223145,10.235422134399414,-1.61737859249115,1.5548880100250244,-3.902463912963867,-13.36136531829834,7.500000476837158,-170.10000610351562,-32.10000228881836
424212,0.46415895223617554,3.052323579788208,-0.5425156950950623,2.28659987449646,-4.672286033630371,-17.81261444091797,24.30000114440918,-177.3000030517578,-29.100000381469727
424234,-1.7663161754608154,-2.0815374851226807,-0.3433340787887573,0.5487840175628662,-0.1448179930448532,-6.585407733917236,41.10000228881836,-174.90000915527344,-31.500001907348633
424255,-0.16867631673812866,0.2960807681083679,-0.10946016013622284,-0.04573199898004532,-1.478667974472046,-1.4862899780273438,43.5,-172.5,-29.100000381469727
424275,0.5490952730178833,0.14295616745948792,0.17764846980571747,1.0594580173492432,-1.295740008354187,-1.3795819282531738,45.900001525878906,-170.10000610351562,-30.900001525878906
424295,1.0646945238113403,0.4683459401130676,0.5520859360694885,0.07621999830007553,-0.8307979702949524,0.6021379828453064,48.30000305175781,-170.10000610351562,-28.500001907348633
424315,0.9175513386726379,0.48928093910217285,0.5502915382385254,-1.0518360137939453,-0.23628199100494385,1.3795819282531738,43.5,-172.5,-29.100000381469727
424335,0.5323472619056702,-0.42288708686828613,0.5078234076499939,-1.6615959405899048,0,1.2728739976882935,45.900001525878906,-172.5,-30.900001525878906
424357,0.1280025988817215,-0.8876441717147827,0.6292464137077332,-1.2576299905776978,-0.15243999660015106,1.2728739976882935,41.10000228881836,-177.3000030517578,-32.10000228881836
424377,0.00239257188513875,-0.9438695907592773,0.7698100209236145,-1.2347639799118042,-0.3201240003108978,1.3490939140319824,41.10000228881836,-174.90000915527344,-29.100000381469727
424399,0.26856619119644165,-0.5915634036064148,0.9785618782043457,-1.3567159175872803,-0.18292799592018127,1.7683039903640747,36.30000305175781,-174.90000915527344,-32.10000228881836
424419,0.5263658165931702,-0.06400129944086075,0.8266335725784302,-1.3262280225753784,0.7850660085678101,2.1036720275878906,43.5,-172.5,-30.900001525878906
424439,2.572014808654785,4.785143852233887,-0.7644267082214355,0.800309956073761,2.782029867172241,7.35522985458374,33.900001525878906,-174.90000915527344,-30.30000114440918
424462,5.168553352355957,15.607344627380371,-2.5415093898773193,0.3048799932003021,6.775958061218262,14.016858100891113,21.900001525878906,-170.10000610351562,-30.900001525878906
424482,10.611654281616211,19.599349975585938,-5.941354274749756,-3.4375219345092773,7.515291690826416,14.260761260986328,0.30000001192092896,-167.70001220703125,-32.10000228881836
424504,7.506096363067627,16.076887130737305,-2.905778646469116,1.1128119230270386,-5.701255798339844,-8.841519355773926,2.700000047683716,-174.90000915527344,-33.900001525878906
424524,7.333830833435059,14.708335876464844,-3.830507516860962,2.789651870727539,2.439039945602417,-2.431417942047119,12.300000190734863,-165.3000030517578,-31.500001907348633
424544,11.239106178283691,19.599349975585938,-5.854025363922119,-1.417691946029663,3.5442299842834473,8.742433547973633,5.100000381469727,-170.10000610351562,-31.500001907348633
424564,7.18967866897583,17.432279586791992,-3.8400778770446777,-0.9222619533538818,-4.672286033630371,-6.417723655700684,2.700000047683716,-170.10000610351562,-32.10000228881836
424584,3.0953898429870605,11.185872077941895,-2.1449406147003174,0.7545779943466187,-4.512223720550537,-8.68145751953125,0.30000001192092896,-174.90000915527344,-30.900001525878906
424605,2.9135544300079346,10.018895149230957,-2.43503999710083,0.8841519951820374,-1.0061039924621582,-6.570163726806641,19.5,-172.5,-31.500001907348633
424625,2.7024099826812744,8.41946029663086,-1.6263507604599,0.15243999660015106,-3.1326420307159424,-5.8689398765563965,24.30000114440918,-177.3000030517578,-30.900001525878906
424645,1.9894235134124756,6.190779685974121,-0.6352278590202332,-0.2896359860897064,-2.7210538387298584,-5.175337791442871,26.700000762939453,-177.3000030517578,-29.100000381469727
424668,1.5079184770584106,4.599719524383545,-0.358885794878006,-0.8307979702949524,-0.9222619533538818,-2.28659987449646,31.500001907348633,-172.5,-32.70000076293945
424688,1.6562578678131104,5.162571907043457,-0.4695422351360321,-0.8689079880714417,0.44969800114631653,1.2576299905776978,33.900001525878906,-172.5,-31.500001907348633
424708,2.155109167098999,6.355867385864258,-0.7261455655097961,-0.6783579587936401,0.6707359552383423,2.0122079849243164,33.900001525878906,-172.5,-30.30000114440918
424728,2.22090482711792,5.833090305328369,-0.4970568120479584,-0.7317119836807251,0.4192099869251251,1.600619912147522,29.100000381469727,-167.70001220703125,-32.10000228881836
424748,2.40513277053833,6.178816795349121,-0.5514878034591675,-0.5564059615135193,0.3201240003108978,1.707327961921692,29.100000381469727,-174.90000915527344,-31.500001907348633
424768,2.7317190170288086,6.986310005187988,-0.5987411141395569,-0.2896359860897064,0.510673999786377,1.5015339851379395,26.700000762939453,-177.3000030517578,-32.10000228881836
424792,2.9021897315979004,8.677858352661133,-1.2106413841247559,0.5030519962310791,0.6783579587936401,0.46494197845458984,29.100000381469727,-165.3000030517578,-30.30000114440918
424832,3.174344778060913,9.122876167297363,-1.345821738243103,0.8917739987373352,-0.6021379828453064,-1.0289700031280518,26.700000762939453,-172.5,-30.900001525878906
424852,3.580483913421631,10.006932258605957,-1.4421226978302002,0.6021379828453064,-0.5487840175628662,-0.48018598556518555,29.100000381469727,-174.90000915527344,-28.500001907348633
424872,4.37601375579834,11.478961944580078,-1.6006306409835815,0.17530599236488342,-0.3582339882850647,0.16768398880958557,29.100000381469727,-172.5,-29.700000762939453
424892,4.0673723220825195,9.51824951171875,-1.2495206594467163,-0.571649968624115,-0.5487840175628662,-1.9893419742584229,29.100000381469727,-174.90000915527344,-30.900001525878906
424912,3.6163723468780518,7.839262008666992,-1.1651824712753296,-0.3048799932003021,0.2134159952402115,-1.021347999572754,26.700000762939453,-177.3000030517578,-30.30000114440918
424932,3.344217300415039,7.595219612121582,-1.5450032949447632,-0.23628199100494385,0.853663980960846,0.06859800219535828,31.500001907348633,-170.10000610351562,-29.700000762939453
424953,3.4124057292938232,7.973844051361084,-1.8943188190460205,0.2743920087814331,1.067080020904541,0.16768398880958557,29.100000381469727,-172.5,-29.700000762939453
424973,3.9004902839660645,9.183887481689453,-2.348309278488159,1.0747020244598389,1.3490939140319824,0.05335399881005287,29.100000381469727,-167.70001220703125,-30.900001525878906
425014,4.54349422454834,9.818516731262207,-3.079240083694458,1.3414719104766846,0.6478700041770935,-2.0503180027008057,24.30000114440918,-165.3000030517578,-29.100000381469727
425034,4.674487113952637,9.381274223327637,-3.1223063468933105,1.3567159175872803,0.6021379828453064,-1.9436099529266357,29.100000381469727,-167.70001220703125,-28.500001907348633
425054,4.70977783203125,9.224560737609863,-3.201261281967163,0.800309956073761,0.3048799932003021,-1.3033620119094849,29.100000381469727,-174.90000915527344,-29.100000381469727
425077,4.855724811553955,8.71733570098877,-2.8686935901641846,0.09908600151538849,0.038109999150037766,-0.44969800114631653,31.500001907348633,-172.5,-29.100000381469727
425097,4.789330959320068,8.664100646972656,-2.5086116790771484,-0.914639949798584,0.060975998640060425,0.5640279650688171,36.30000305175781,-165.3000030517578,-29.700000762939453
425117,4.444202423095703,8.184988021850586,-2.41111421585083,-1.7835479974746704,0.2972579896450043,0.510673999786377,33.900001525878906,-170.10000610351562,-27.900001525878906
425137,4.17085075378418,7.7070722579956055,-2.316009521484375,-1.8369019031524658,0.038109999150037766,0.25152599811553955,31.500001907348633,-167.70001220703125,-29.700000762939453
425161,4.261768817901611,7.31708288192749,-1.9032909870147705,-1.753059983253479,-0.5640279650688171,0.06859800219535828,33.900001525878906,-172.5,-28.500001907348633
425181,4.360462188720703,7.261455535888672,-1.716670274734497,-2.0198299884796143,-0.7621999979019165,0.038109999150037766,26.700000762939453,-174.90000915527344,-30.30000114440918
425201,4.468128204345703,6.922906875610352,-1.6885576248168945,-2.1646480560302734,-0.685979962348938,0.04573199898004532,33.900001525878906,-177.3000030517578,-31.500001907348633
425245,4.733105182647705,7.404411792755127,-1.7932326793670654,-1.1509219408035278,-0.7698220014572144,0.38109999895095825,26.700000762939453,-174.90000915527344,-30.30000114440918
425305,4.888622283935547,8.213101387023926,-1.9170482158660889,-0.22103799879550934,-0.2591480016708374,-0.7240899801254272,31.500001907348633,-172.5,-29.700000762939453
425345,4.761218070983887,8.553444862365723,-1.9535349607467651,0.09146399796009064,-0.7926880121231079,-1.2195199728012085,33.900001525878906,-170.10000610351562,-30.30000114440918
425369,4.618860244750977,9.539782524108887,-1.9535349607467651,0.6402480006217957,-0.8689079880714417,0.26677000522613525,33.900001525878906,-172.5,-31.500001907348633
425389,3.788039445877075,9.33880615234375,-1.5432088375091553,-0.09146399796009064,-0.9984819889068604,-0.2972579896450043,29.100000381469727,-172.5,-31.500001907348633
425432,1.9589182138442993,9.732982635498047,-1.8853466510772705,0.6936019659042358,-1.6844619512557983,-0.7088459730148315,33.900001525878906,-172.5,-30.900001525878906
425452,1.0987886190414429,9.84064769744873,-1.733418345451355,0.015243999660015106,-1.8445239067077637,-1.7835479974746704,36.30000305175781,-170.10000610351562,-30.30000114440918
425472,0.9462621808052063,10.14450454711914,-1.6544634103775024,-0.19054999947547913,-1.8978779315948486,-2.134160041809082,38.70000076293945,-167.70001220703125,-30.900001525878906
425512,0.5018419623374939,9.908238410949707,-1.7752883434295654,-0.9070180058479309,-1.0823240280151367,-2.5152599811553955,48.30000305175781,-170.10000610351562,-32.10000228881836
425549,-0.1381710320711136,10.915511131286621,-2.4727230072021484,0.25152599811553955,-1.2500079870224,-2.7286758422851562,45.900001525878906,-172.5,-30.900001525878906
425569,-0.20037789642810822,10.246787071228027,-2.214325189590454,0.6326259970664978,-1.806414008140564,-3.60520601272583,53.10000228881836,-174.90000915527344,-31.500001907348633
425609,0.1896113157272339,9.688719749450684,-1.8973095417022705,0.25152599811553955,-1.2347639799118042,-2.1722700595855713,48.30000305175781,-167.70001220703125,-30.900001525878906
425629,0.3367545008659363,9.10373592376709,-1.928412914276123,0.08384199440479279,-0.9070180058479309,-1.2652519941329956,60.30000305175781,-172.5,-30.30000114440918
425650,0.41451308131217957,9.09895133972168,-1.9469553232192993,0.6783579587936401,-0.8612859845161438,-0.7240899801254272,60.30000305175781,-170.10000610351562,-30.30000114440918
425670,0.4163075089454651,8.605483055114746,-1.8727856874465942,0.9984819889068604,-0.9222619533538818,-1.0365920066833496,55.500003814697266,-170.10000610351562,-29.700000762939453
425692,0.8786720037460327,8.77296257019043,-1.649678349494934,1.478667974472046,-1.0289700031280518,-0.9527499675750732,48.30000305175781,-172.5,-30.900001525878906
425712,1.2746427059173584,8.77116870880127,-1.5958454608917236,1.3567159175872803,-0.6173819899559021,-1.2042759656906128,62.70000076293945,-170.10000610351562,-29.100000381469727
425734,1.1956877708435059,8.512770652770996,-1.5605549812316895,1.021347999572754,-0.20579399168491364,-1.1356779336929321,62.70000076293945,-172.5,-30.30000114440918
425754,1.1909027099609375,8.84892749786377,-1.741194248199463,0.9070180058479309,0.06859800219535828,-0.6402480006217957,65.10000610351562,-167.70001220703125,-28.500001907348633
425774,1.2435392141342163,8.98709774017334,-1.7399978637695312,0.5945159792900085,0.3277460038661957,-0.7621999979019165,62.70000076293945,-167.70001220703125,-27.900001525878906
425834,1.6119953393936157,9.512866020202637,-2.155707359313965,0.6326259970664978,0.22103799879550934,-1.4481799602508545,67.5,-167.70001220703125,-26.700000762939453
425854,1.7950270175933838,9.387853622436523,-2.181427478790283,1.013725996017456,-0.18292799592018127,-2.332331895828247,67.5,-162.90000915527344,-27.900001525878906
425874,1.6419024467468262,8.567201614379883,-2.2280826568603516,1.2195199728012085,-0.2743920087814331,-3.003067970275879,62.70000076293945,-170.10000610351562,-28.500001907348633
425914,1.931403636932373,8.32076644897461,-2.483489513397217,1.425313949584961,-0.3887220025062561,-1.7378159761428833,72.30000305175781,-170.10000610351562,-27.900001525878906
425934,2.140155553817749,8.737074851989746,-2.7018117904663086,0.9908599853515625,0.030487999320030212,-2.027451992034912,74.70000457763672,-167.70001220703125,-26.700000762939453
425954,1.8931225538253784,8.399123191833496,-2.9697799682617188,0.7545779943466187,0.510673999786377,-2.1646480560302734,74.70000457763672,-170.10000610351562,-27.30000114440918
425974,1.9888253211975098,8.643165588378906,-3.356180191040039,0.7164679765701294,0.4039659798145294,-1.7835479974746704,79.5,-165.3000030517578,-24.900001525878906
425998,2.771794557571411,10.131345748901367,-3.171952247619629,0.9908599853515625,-0.2591480016708374,-0.9298839569091797,79.5,-172.5,-27.900001525878906
426018,2.8184497356414795,10.27609634399414,-3.1587929725646973,-0.07621999830007553,0.1295740008354187,-2.0655620098114014,77.10000610351562,-167.70001220703125,-26.700000762939453
426038,2.7317190170288086,10.22226333618164,-3.4177889823913574,0,-0.06859800219535828,-2.431417942047119,81.9000015258789,-167.70001220703125,-25.500001907348633
426058,2.9859297275543213,10.128952980041504,-3.031388521194458,0.02286599949002266,-0.8460419774055481,-2.995445966720581,81.9000015258789,-167.70001220703125,-28.500001907348633
426081,2.8782639503479004,9.947715759277344,-2.9165451526641846,-0.5030519962310791,0.2896359860897064,-3.8338658809661865,89.10000610351562,-162.90000915527344,-25.500001907348633
426101,2.852543830871582,9.66658878326416,-3.2855992317199707,-0.5335400104522705,1.196653962135315,-4.169233798980713,89.10000610351562,-160.5,-26.700000762939453
426121,2.5349299907684326,9.06605339050293,-3.2174110412597656,-0.4192099869251251,1.2576299905776978,-4.153989791870117,93.9000015258789,-167.70001220703125,-26.700000762939453
426141,2.351898193359375,8.82679557800293,-3.2407386302948,-0.12195199728012085,1.0365920066833496,-3.810999870300293,93.9000015258789,-160.5,-24.900001525878906
426163,2.277130365371704,8.378188133239746,-2.9883222579956055,0.8231759667396545,0.060975998640060425,-3.5289859771728516,108.30000305175781,-162.90000915527344,-26.100000381469727
426183,2.131183385848999,8.004947662353516,-2.4996395111083984,1.1509219408035278,-0.7469559907913208,-3.0106899738311768,103.50000762939453,-155.70001220703125,-26.700000762939453
426203,2.3207948207855225,8.33691692352295,-2.0612006187438965,1.0518360137939453,-1.1814099550247192,-2.080806016921997,103.50000762939453,-160.5,-24.30000114440918
426224,2.6043145656585693,8.74305534362793,-1.7178666591644287,0.457319974899292,-0.9832379817962646,-2.0503180027008057,110.70000457763672,-158.10000610351562,-25.500001907348633
426244,2.6431937217712402,8.447572708129883,-1.7088944911956787,-0.5030519962310791,-0.2591480016708374,-2.240867853164673,108.30000305175781,-162.90000915527344,-24.900001525878906
426264,2.6336236000061035,8.206521987915039,-1.9804513454437256,-0.8460419774055481,0.1295740008354187,-1.9969639778137207,113.10000610351562,-158.10000610351562,-25.500001907348633
426284,2.7054007053375244,8.2741117477417,-2.045050859451294,-0.571649968624115,0.2439039945602417,-1.4862899780273438,110.70000457763672,-153.3000030517578,-26.100000381469727
426304,2.6126885414123535,7.927188873291016,-1.9535349607467651,-0.2134159952402115,0.5259180068969727,-1.4481799602508545,115.50000762939453,-158.10000610351562,-26.700000762939453
426324,2.6760916709899902,7.862589359283447,-1.7824660539627075,0.36585599184036255,0.1600620001554489,-0.6402480006217957,117.9000015258789,-155.70001220703125,-24.900001525878906
426344,3.2742345333099365,10.3257417678833,-2.1509220600128174,1.189031958580017,0.060975998640060425,0.800309956073761,117.9000015258789,-160.5,-24.900001525878906
426364,2.315411329269409,8.51815414428711,-2.277130365371704,-0.007621999830007553,0.33536797761917114,-1.8673899173736572,115.50000762939453,-158.10000610351562,-25.500001907348633
426384,2.3297669887542725,7.949918270111084,-2.5971367359161377,1.4862899780273438,-0.4878079891204834,-1.2728739976882935,117.9000015258789,-160.5,-24.900001525878906
426404,2.578594446182251,9.007434844970703,-2.5767998695373535,1.8369019031524658,-1.5548880100250244,-0.3125019967556,115.50000762939453,-153.3000030517578,-24.30000114440918
426424,2.4613583087921143,9.029566764831543,-2.8692917823791504,1.3262280225753784,-1.4862899780273438,-0.9222619533538818,120.30000305175781,-153.3000030517578,-22.5
426447,2.4362363815307617,8.70836353302002,-3.058903217315674,1.3795819282531738,-1.7835479974746704,-0.9375059604644775,122.70000457763672,-155.70001220703125,-22.5
426467,2.065985918045044,8.511574745178223,-2.877067804336548,1.4481799602508545,-1.7378159761428833,-0.7926880121231079,122.70000457763672,-153.3000030517578,-24.900001525878906
426489,1.445711612701416,9.40460205078125,-3.082230806350708,1.3567159175872803,-1.2347639799118042,-0.457319974899292,122.70000457763672,-153.3000030517578,-23.700000762939453
426509,0.7273418307304382,9.43630313873291,-3.22578501701355,0.426831990480423,-0.5945159792900085,-1.577754020690918,127.50000762939453,-150.90000915527344,-23.100000381469727
426529,-0.9737767577171326,9.634288787841797,-3.8406760692596436,0.5640279650688171,0.1448179930448532,-2.233245849609375,125.10000610351562,-153.3000030517578,-23.100000381469727
426550,-1.6006306409835815,9.417760848999023,-3.937575101852417,0.5868939757347107,0.09908600151538849,-2.949713945388794,125.10000610351562,-155.70001220703125,-23.700000762939453
426570,-2.5086116790771484,8.884217262268066,-3.887331247329712,0.800309956073761,-0.3125019967556,-3.5289859771728516,129.90000915527344,-153.3000030517578,-22.5
426590,-2.8627121448516846,9.70845890045166,-3.817946672439575,0.8841519951820374,-0.9070180058479309,-2.7134318351745605,134.70001220703125,-148.5,-21.900001525878906
426630,-3.6714015007019043,8.782533645629883,-4.079933166503906,0.13719600439071655,-0.8993960022926331,-3.0259339809417725,134.70001220703125,-148.5,-23.700000762939453
426652,-3.0008833408355713,9.465014457702637,-4.0135393142700195,0.8079319596290588,-2.0579400062561035,-2.4009299278259277,141.90000915527344,-150.90000915527344,-22.5
426672,-2.41410493850708,9.584044456481934,-3.737795352935791,0.6478700041770935,-2.0960500240325928,-2.324709892272949,144.3000030517578,-146.10000610351562,-20.700000762939453
426692,-1.9882272481918335,8.78911304473877,-3.3095250129699707,-0.09146399796009064,-1.600619912147522,-2.484771966934204,146.70001220703125,-143.70001220703125,-21.30000114440918
426714,-1.5743123292922974,8.179605484008789,-2.7646167278289795,-0.48018598556518555,-0.8307979702949524,-2.0122079849243164,149.10000610351562,-146.10000610351562,-22.5
426734,-0.9265234470367432,9.100147247314453,-2.9548263549804688,-0.3277460038661957,0.7621999979019165,-1.3186060190200806,153.90000915527344,-148.5,-23.700000762939453
426754,-1.0963960886001587,8.458937644958496,-3.1049602031707764,-0.426831990480423,1.471045970916748,-2.187514066696167,149.10000610351562,-143.70001220703125,-22.5
426774,-0.9731786251068115,8.487051010131836,-3.359170913696289,0.4344539940357208,1.3948259353637695,-1.829279899597168,149.10000610351562,-138.90000915527344,-21.900001525878906
426794,-1.021030068397522,8.030069351196289,-3.24372935295105,1.1509219408035278,0.9908599853515625,-1.8216580152511597,153.90000915527344,-136.5,-23.700000762939453
426814,-1.0317965745925903,8.189175605773926,-3.3603672981262207,1.3262280225753784,0.8384199738502502,-1.0747020244598389,144.3000030517578,-146.10000610351562,-21.30000114440918
426834,-0.8942237496376038,9.232934951782227,-3.4650421142578125,1.5320219993591309,0.4878079891204834,-0.6173819899559021,153.90000915527344,-143.70001220703125,-20.100000381469727
426854,-0.4521960914134979,9.409985542297363,-3.4740142822265625,0.8307979702949524,0.25152599811553955,-0.7469559907913208,149.10000610351562,-138.90000915527344,-20.700000762939453
426874,-0.1561153084039688,9.64744758605957,-3.591848611831665,0.3734779953956604,0.26677000522613525,-0.5792719721794128,151.5,-141.3000030517578,-21.30000114440918
426894,-0.3313712179660797,9.05887508392334,-3.791628360748291,0.04573199898004532,0.36585599184036255,-0.9832379817962646,156.3000030517578,-136.5,-20.100000381469727
426916,-0.2709587514400482,9.45723819732666,-3.968080520629883,0.6554920077323914,0,-0.7240899801254272,156.3000030517578,-134.10000610351562,-20.100000381469727
426936,-0.2895011901855469,9.380078315734863,-4.0021748542785645,0.3125019967556,-0.114329993724823,-0.914639949798584,153.90000915527344,-138.90000915527344,-19.5
426960,-0.49346795678138733,8.587538719177246,-4.198963642120361,-0.114329993724823,0.12195199728012085,-0.5182960033416748,156.3000030517578,-138.90000915527344,-20.700000762939453
426981,-0.3606802225112915,9.165345191955566,-4.086512565612793,0.28201398253440857,-0.38109999895095825,0.09146399796009064,161.10000610351562,-138.90000915527344,-21.900001525878906
427001,-0.26437920331954956,9.529613494873047,-3.8436667919158936,0.06859800219535828,-0.26677000522613525,-0.05335399881005287,156.3000030517578,-138.90000915527344,-20.700000762939453
427023,-0.34512850642204285,8.927882194519043,-3.591848611831665,-0.7545779943466187,0.19054999947547913,-0.5868939757347107,151.5,-143.70001220703125,-21.30000114440918
427043,-0.23507018387317657,8.601295471191406,-3.4142000675201416,-0.8765299916267395,0.46494197845458984,-0.39634400606155396,153.90000915527344,-146.10000610351562,-21.30000114440918
427063,-0.18901318311691284,8.56002426147461,-3.2861974239349365,-0.8765299916267395,0.7012239694595337,-0.20579399168491364,161.10000610351562,-136.5,-20.700000762939453
427086,-0.17047074437141418,8.417067527770996,-3.0206220149993896,-0.8231759667396545,0.7850660085678101,-0.04573199898004532,161.10000610351562,-136.5,-21.30000114440918
427106,-0.23925718665122986,8.327346801757812,-2.9099655151367188,-0.7545779943466187,0.9984819889068604,-0.1295740008354187,161.10000610351562,-138.90000915527344,-21.900001525878906
427126,-0.20815375447273254,8.269925117492676,-2.8896286487579346,-0.4725639820098877,1.189031958580017,-0.28201398253440857,156.3000030517578,-138.90000915527344,-20.700000762939453
427149,-0.3959706425666809,8.39074993133545,-3.061893939971924,0.15243999660015106,1.189031958580017,-0.510673999786377,153.90000915527344,-138.90000915527344,-20.100000381469727
427169,-0.41152235865592957,8.77415943145752,-3.1229045391082764,0.4344539940357208,0.9756159782409668,-0.38109999895095825,153.90000915527344,-141.3000030517578,-21.30000114440918
427189,-0.7955301403999329,9.02597713470459,-3.2885899543762207,0.36585599184036255,0.9527499675750732,-0.5945159792900085,153.90000915527344,-136.5,-20.100000381469727
427209,-0.9905247688293457,9.42254638671875,-3.47580885887146,0.20579399168491364,0.510673999786377,-0.7317119836807251,156.3000030517578,-143.70001220703125,-18.30000114440918
427233,-1.0784517526626587,8.80406665802002,-3.1336710453033447,-0.12195199728012085,0.007621999830007553,-1.2271419763565063,158.70001220703125,-134.10000610351562,-21.900001525878906
427254,-1.4887778759002686,9.1982421875,-3.1139323711395264,-0.23628199100494385,0.06859800219535828,-0.5868939757347107,161.10000610351562,-136.5,-20.100000381469727
427275,-2.071369171142578,10.004539489746094,-3.201261281967163,-0.3582339882850647,-0.3048799932003021,-0.510673999786377,161.10000610351562,-141.3000030517578,-19.5
427299,-2.3028504848480225,10.614645004272461,-2.1796329021453857,-1.2271419763565063,-1.1280559301376343,-1.3262280225753784,161.10000610351562,-138.90000915527344,-20.700000762939453
427339,-4.334742069244385,9.27301025390625,-3.0068647861480713,-2.2484898567199707,-0.08384199440479279,-0.9908599853515625,168.3000030517578,-136.5,-20.700000762939453
427359,-4.96578311920166,9.83586311340332,-3.036771774291992,-1.9969639778137207,-1.600619912147522,0.3277460038661957,158.70001220703125,-131.70001220703125,-21.30000114440918
427379,-5.052513599395752,9.26523494720459,-3.407022476196289,-2.2103798389434814,-2.6067240238189697,0,168.3000030517578,-138.90000915527344,-22.5
427400,-4.457361221313477,8.91950798034668,-3.7635154724121094,-0.6783579587936401,-4.611310005187988,1.5472660064697266,161.10000610351562,-131.70001220703125,-21.900001525878906
427420,-3.6522610187530518,8.99606990814209,-3.440518379211426,0.07621999830007553,-6.852177619934082,2.7286758422851562,161.10000610351562,-143.70001220703125,-22.5
427480,-1.0383762121200562,7.369121551513672,-3.0654826164245605,2.179892063140869,-10.96043586730957,3.3231918811798096,161.10000610351562,-141.3000030517578,-25.500001907348633
427500,-0.6884625554084778,5.812753200531006,-2.748466968536377,2.652456045150757,-11.699769973754883,2.4542839527130127,158.70001220703125,-146.10000610351562,-25.500001907348633
427520,-0.16987259685993195,5.569907188415527,-2.4158995151519775,3.917707920074463,-13.003131866455078,3.5747179985046387,156.3000030517578,-148.5,-25.500001907348633
427540,0.596946656703949,6.124385833740234,-1.7310258150100708,3.96343994140625,-13.628135681152344,3.85673189163208,158.70001220703125,-143.70001220703125,-24.30000114440918
427602,1.8871411085128784,5.941952228546143,-1.9367868900299072,3.3308138847351074,-10.518360137939453,2.3094658851623535,156.3000030517578,-143.70001220703125,-26.700000762939453
427648,0.9271215796470642,7.321867942810059,-5.523850440979004,4.657042026519775,-3.8948419094085693,2.6600780487060547,153.90000915527344,-148.5,-27.30000114440918
427668,1.2644742727279663,10.103233337402344,-7.164556503295898,4.100636005401611,-0.6707359552383423,4.649419784545898,146.70001220703125,-143.70001220703125,-23.700000762939453
427710,1.939179539680481,14.512145042419434,-10.670870780944824,2.9344699382781982,4.740883827209473,0.3887220025062561,139.5,-148.5,-23.700000762939453
427730,1.3350551128387451,13.9169921875,-11.578851699829102,0.7850660085678101,2.545747995376587,-2.278977870941162,139.5,-141.3000030517578,-24.30000114440918
427752,0.9348974823951721,12.223052024841309,-10.586532592773438,-1.9436099529266357,-0.7469559907913208,-2.3628199100494385,139.5,-143.70001220703125,-24.30000114440918
427773,1.2596890926361084,11.739751815795898,-8.673670768737793,-3.147886037826538,-0.7774440050125122,-1.2500079870224,141.90000915527344,-148.5,-24.900001525878906
427835,-0.8499611616134644,7.321867942810059,-6.417476177215576,-5.114361763000488,6.326260089874268,-3.910085916519165,151.5,-148.5,-26.100000381469727
427855,-1.2578946352005005,7.050311088562012,-5.535813331604004,-4.489357948303223,6.821690082550049,-1.8902559280395508,158.70001220703125,-141.3000030517578,-25.500001907348633
427875,-0.9414770603179932,7.11191987991333,-4.629626750946045,-4.07014799118042,5.823207855224609,-1.371959924697876,156.3000030517578,-143.70001220703125,-25.500001907348633
427895,-0.6447980999946594,6.809259414672852,-3.45786452293396,-3.696669816970825,5.4573516845703125,-1.8369019031524658,146.70001220703125,-146.10000610351562,-26.100000381469727
427915,-0.7865580320358276,6.363643169403076,-2.664726972579956,-3.5442299842834473,6.265284061431885,-2.195136070251465,156.3000030517578,-146.10000610351562,-26.700000762939453
427935,-0.6334334015846252,6.340315341949463,-2.730522632598877,-2.75154185295105,7.4466938972473145,-2.492393970489502,158.70001220703125,-148.5,-26.100000381469727
427955,-0.7082012891769409,6.394148349761963,-2.527752161026001,-1.5929979085922241,6.562541961669922,-2.942091941833496,156.3000030517578,-146.10000610351562,-24.900001525878906
427975,-0.6424055695533752,7.025787353515625,-2.0588080883026123,-1.2500079870224,6.112843990325928,-3.003067970275879,163.5,-143.70001220703125,-27.30000114440918
427996,-0.7823709845542908,6.753632068634033,-2.4374325275421143,-1.6234859228134155,6.593029975891113,-3.7271578311920166,163.5,-141.3000030517578,-26.100000381469727
428016,-0.7333232760429382,6.656135082244873,-2.450591802597046,-0.7698220014572144,5.586925983428955,-3.300325870513916,165.90000915527344,-146.10000610351562,-26.100000381469727
428038,-0.806296706199646,7.5312180519104,-2.4188902378082275,-0.2591480016708374,5.091495990753174,-2.3170878887176514,161.10000610351562,-146.10000610351562,-24.30000114440918
428059,-1.4642540216445923,8.199941635131836,-2.641399383544922,-1.1280559301376343,5.510705947875977,-2.7667858600616455,165.90000915527344,-136.5,-25.500001907348633
428079,-1.1394623517990112,8.74126148223877,-2.5941460132598877,-0.8993960022926331,5.282045841217041,-2.9192259311676025,170.70001220703125,-136.5,-24.900001525878906
428099,-1.5659383535385132,9.137829780578613,-2.2723450660705566,-1.0061039924621582,5.655523777008057,-2.789651870727539,168.3000030517578,-134.10000610351562,-23.700000762939453
428119,-1.7591384649276733,9.701878547668457,-2.6180717945098877,-1.6920839548110962,6.455833911895752,-2.278977870941162,170.70001220703125,-138.90000915527344,-24.30000114440918
428139,-1.752558946609497,10.960371971130371,-2.3477110862731934,-1.0594580173492432,5.091495990753174,-1.5701320171356201,170.70001220703125,-141.3000030517578,-21.30000114440918
428159,-2.6222589015960693,9.735973358154297,-1.7136796712875366,-1.478667974472046,5.160093784332275,-3.2622158527374268,170.70001220703125,-136.5,-22.5
428180,-3.3675448894500732,8.275906562805176,-2.229278802871704,-1.7225719690322876,5.777475833892822,-3.7195358276367188,173.10000610351562,-134.10000610351562,-22.5
428200,-3.565530300140381,8.87584400177002,-2.9099655151367188,-0.5182960033416748,4.984787940979004,-2.179892063140869,175.5,-134.10000610351562,-20.700000762939453
428220,-3.508108615875244,9.2640380859375,-3.1845130920410156,0.06859800219535828,3.8491098880767822,-1.7378159761428833,175.5,-131.70001220703125,-20.700000762939453
428240,-3.1916909217834473,8.990687370300293,-3.4124057292938232,0.2439039945602417,2.7667858600616455,-0.9298839569091797,173.10000610351562,-131.70001220703125,-21.30000114440918
428261,-2.6222589015960693,8.725111961364746,-3.4207797050476074,0.5259180068969727,1.6311079263687134,0.48018598556518555,180.3000030517578,-122.10000610351562,-21.30000114440918
428281,-1.5958454608917236,9.100147247314453,-3.0840251445770264,0.44969800114631653,0.7164679765701294,1.7911700010299683,177.90000915527344,-134.10000610351562,-21.30000114440918
428301,-1.2854092121124268,9.257458686828613,-3.0840251445770264,0.2896359860897064,0.7012239694595337,1.8445239067077637,168.3000030517578,-136.5,-21.30000114440918
428321,-0.9354956150054932,8.758607864379883,-3.0894083976745605,-0.1295740008354187,0.6250039935112,0.8612859845161438,163.5,-122.10000610351562,-19.5
428341,-0.824241042137146,8.76698112487793,-3.2299721240997314,-0.060975998640060425,0.685979962348938,0.7240899801254272,170.70001220703125,-131.70001220703125,-20.700000762939453
428361,-0.7566508650779724,8.731093406677246,-3.371133804321289,0.18292799592018127,0.007621999830007553,0.10670799762010574,168.3000030517578,-134.10000610351562,-21.30000114440918
428381,-0.6633405685424805,9.20721435546875,-3.3819003105163574,0.20579399168491364,-0.2591480016708374,0.06859800219535828,163.5,-131.70001220703125,-21.30000114440918
428401,-0.7632304430007935,9.285571098327637,-3.3460118770599365,-0.015243999660015106,-0.19817200303077698,-0.4878079891204834,168.3000030517578,-131.70001220703125,-21.30000114440918
428421,-0.8679054379463196,9.04212760925293,-3.3406283855438232,-0.39634400606155396,-0.030487999320030212,-0.6402480006217957,161.10000610351562,-126.9000015258789,-20.700000762939453
428441,-1.1478363275527954,8.653932571411133,-3.3484044075012207,-0.5335400104522705,0.06859800219535828,-0.510673999786377,165.90000915527344,-126.9000015258789,-23.100000381469727
428461,-1.1645843982696533,8.75322437286377,-3.5194733142852783,-0.342989981174469,0.007621999830007553,-0.02286599949002266,163.5,-131.70001220703125,-21.30000114440918
428482,-1.0832369327545166,8.77415943145752,-3.5810818672180176,-0.20579399168491364,-0.060975998640060425,0.04573199898004532,168.3000030517578,-134.10000610351562,-20.700000762939453
428505,-1.015048623085022,8.76698112487793,-3.541006326675415,0.04573199898004532,-0.1600620001554489,0.15243999660015106,175.5,-136.5,-21.30000114440918
428526,-0.9420751929283142,8.722719192504883,-3.505117893218994,-0.06859800219535828,-0.114329993724823,0.1295740008354187,170.70001220703125,-129.3000030517578,-21.900001525878906
428547,-0.7733988761901855,9.039734840393066,-3.6295316219329834,-0.030487999320030212,-0.038109999150037766,0.3277460038661957,170.70001220703125,-131.70001220703125,-19.5
428567,-0.7763895988464355,8.980518341064453,-3.708486318588257,-0.1448179930448532,0.05335399881005287,0.20579399168491364,165.90000915527344,-136.5,-21.900001525878906
428587,-0.7267436981201172,8.75501823425293,-3.6492702960968018,-0.114329993724823,-0.1295740008354187,0.28201398253440857,168.3000030517578,-136.5,-22.5
428610,-0.6047225594520569,8.763392448425293,-3.270047664642334,-0.4039659798145294,0.08384199440479279,0.15243999660015106,165.90000915527344,-131.70001220703125,-19.5
428630,-0.5718246698379517,8.818421363830566,-3.1581947803497314,-0.6250039935112,0.426831990480423,0.015243999660015106,168.3000030517578,-138.90000915527344,-21.30000114440918
428651,-0.48748651146888733,9.159363746643066,-3.0684733390808105,-0.853663980960846,0.8155539631843567,-0.3125019967556,168.3000030517578,-131.70001220703125,-22.5
428671,-0.6256575584411621,8.899768829345703,-3.040360689163208,-1.2271419763565063,1.1737879514694214,-0.8307979702949524,170.70001220703125,-134.10000610351562,-20.100000381469727
428691,-0.8415871858596802,8.750831604003906,-3.1049602031707764,-1.021347999572754,1.1814099550247192,-0.7469559907913208,163.5,-138.90000915527344,-21.900001525878906
428712,-0.8972144722938538,8.424843788146973,-2.971574306488037,-0.7317119836807251,1.0594580173492432,-0.7698220014572144,168.3000030517578,-134.10000610351562,-19.5
428732,-0.9199438691139221,8.689223289489746,-2.9913129806518555,-0.2743920087814331,1.1128119230270386,-0.33536797761917114,168.3000030517578,-131.70001220703125,-19.5
428754,-0.9773656129837036,8.95539665222168,-3.0098555088043213,-0.007621999830007553,1.1204339265823364,-0.5030519962310791,173.10000610351562,-138.90000915527344,-21.30000114440918
428774,-0.9163550138473511,8.78791618347168,-2.9853315353393555,0.15243999660015106,1.1051899194717407,-0.6936019659042358,165.90000915527344,-136.5,-20.100000381469727
428794,-1.015048623085022,8.620436668395996,-2.9853315353393555,0.12195199728012085,1.2347639799118042,-0.5564059615135193,170.70001220703125,-131.70001220703125,-20.700000762939453
428814,-1.0844331979751587,9.042725563049316,-3.051725387573242,-0.07621999830007553,1.2195199728012085,-0.4192099869251251,170.70001220703125,-131.70001220703125,-22.5
428834,-1.2393522262573242,9.039734840393066,-3.1163249015808105,-0.5487840175628662,1.1585439443588257,-0.7088459730148315,175.5,-134.10000610351562,-22.5
428854,-1.2931851148605347,9.00922966003418,-3.1492228507995605,-0.6707359552383423,1.021347999572754,-0.7317119836807251,165.90000915527344,-134.10000610351562,-19.5
428874,-1.435543179512024,9.131848335266113,-3.162381887435913,-0.5640279650688171,0.7850660085678101,-0.6021379828453064,170.70001220703125,-131.70001220703125,-18.900001525878906
428894,-1.9337961673736572,9.778441429138184,-3.3047399520874023,-0.3582339882850647,0.6478700041770935,-0.2439039945602417,168.3000030517578,-131.70001220703125,-20.100000381469727
428914,-2.539715051651001,10.739058494567871,-3.49375319480896,-0.3887220025062561,0.13719600439071655,0.18292799592018127,165.90000915527344,-134.10000610351562,-18.900001525878906
428934,-3.064884662628174,10.14570140838623,-3.3370397090911865,-1.0442140102386475,-0.44969800114631653,-0.1600620001554489,163.5,-134.10000610351562,-20.700000762939453
428974,-4.559643745422363,10.021286964416504,-3.6438870429992676,-1.4405579566955566,-1.1356779336929321,2.4085519313812256,165.90000915527344,-134.10000610351562,-21.30000114440918
429038,-4.704394340515137,7.606584072113037,-4.256983757019043,-0.8155539631843567,-7.545779705047607,3.7195358276367188,165.90000915527344,-141.3000030517578,-24.900001525878906
429171,2.40812349319458,6.857708930969238,-1.618574857711792,2.591480016708374,-13.224169731140137,3.60520601272583,144.3000030517578,-148.5,-27.30000114440918
429207,2.512798547744751,5.729611396789551,-1.945160984992981,2.484771966934204,-8.917739868164062,0.9070180058479309,149.10000610351562,-150.90000915527344,-27.900001525878906
429227,2.5708184242248535,5.751144886016846,-2.7143728733062744,2.3628199100494385,-6.875043869018555,1.653973937034607,141.90000915527344,-148.5,-27.30000114440918
429267,2.2526063919067383,9.280786514282227,-5.542990684509277,1.7683039903640747,-0.13719600439071655,3.3384358882904053,134.70001220703125,-150.90000915527344,-28.500001907348633
429329,1.2052581310272217,13.415748596191406,-9.783226013183594,0.09908600151538849,1.7454379796981812,-0.853663980960846,139.5,-155.70001220703125,-26.100000381469727
429349,1.137069821357727,11.449054718017578,-9.646251678466797,0.48018598556518555,0.35061198472976685,-1.371959924697876,129.90000915527344,-155.70001220703125,-24.900001525878906
429373,2.074359893798828,12.509562492370605,-8.276504516601562,-1.1356779336929321,-0.9451279640197754,0.1448179930448532,129.90000915527344,-158.10000610351562,-24.30000114440918
429393,1.9660959243774414,11.891081809997559,-6.842157363891602,-3.2241058349609375,2.7210538387298584,-1.7759259939193726,137.10000610351562,-148.5,-27.900001525878906
429413,1.3362513780593872,10.255759239196777,-7.009637355804443,-4.00154972076416,6.417723655700684,-3.147886037826538,132.3000030517578,-158.10000610351562,-24.30000114440918
429436,0.08374001830816269,8.536696434020996,-5.8707733154296875,-3.513741970062256,7.111325740814209,-3.4832539558410645,137.10000610351562,-153.3000030517578,-24.30000114440918
429458,-0.362474650144577,7.911038875579834,-5.404221534729004,-2.835383892059326,7.621999740600586,-3.147886037826538,146.70001220703125,-153.3000030517578,-24.900001525878906
429478,-0.5299546718597412,7.402019500732422,-4.38199520111084,-2.39330792427063,6.493943691253662,-3.246971845626831,144.3000030517578,-150.90000915527344,-26.700000762939453
429498,-0.6412092447280884,7.020403861999512,-3.42795729637146,-2.126538038253784,6.379613876342773,-3.4680099487304688,146.70001220703125,-146.10000610351562,-26.700000762939453
429518,-0.61249840259552,6.82899808883667,-3.016434907913208,-2.1112940311431885,6.958885669708252,-3.955817937850952,146.70001220703125,-148.5,-26.700000762939453
429538,-0.6627424359321594,6.002963066101074,-2.6551566123962402,-1.7149499654769897,6.882665634155273,-4.588443756103516,149.10000610351562,-148.5,-25.500001907348633
429578,-0.821848452091217,6.559834003448486,-1.8853466510772705,-0.7164679765701294,6.303393840789795,-4.512223720550537,153.90000915527344,-148.5,-23.700000762939453
429620,-1.0784517526626587,6.798492908477783,-1.7830642461776733,0.571649968624115,5.099117755889893,-3.757645845413208,158.70001220703125,-138.90000915527344,-24.30000114440918
429641,-0.7847635746002197,8.390151023864746,-1.2752407789230347,0.02286599949002266,3.711913824081421,-2.782029867172241,165.90000915527344,-143.70001220703125,-22.5
429661,-0.6950421333312988,9.159363746643066,-1.1831268072128296,-1.1737879514694214,5.2134480476379395,-3.4222779273986816,161.10000610351562,-146.10000610351562,-22.5
429681,-0.7901468873023987,9.21439266204834,-1.7830642461776733,-1.4558019638061523,6.303393840789795,-3.871975898742676,170.70001220703125,-136.5,-23.100000381469727
429701,-1.1442475318908691,10.4752779006958,-2.580986976623535,-1.0975680351257324,6.349125862121582,-3.003067970275879,170.70001220703125,-136.5,-21.30000114440918
429741,-3.2538976669311523,9.40639591217041,-3.311917543411255,0.35061198472976685,5.701255798339844,-2.743919849395752,177.90000915527344,-136.5,-23.100000381469727
429761,-3.734804630279541,10.826986312866211,-3.520669460296631,-0.12195199728012085,5.411619663238525,-2.987823963165283,175.5,-136.5,-21.30000114440918
429781,-4.16786003112793,10.51415729522705,-4.102064609527588,-0.457319974899292,5.701255798339844,-3.955817937850952,175.5,-131.70001220703125,-21.30000114440918
429801,-3.991408109664917,9.724010467529297,-4.234852313995361,-0.19054999947547913,3.711913824081421,-2.324709892272949,175.5,-129.3000030517578,-20.100000381469727
429822,-3.746169328689575,9.616344451904297,-4.078736782073975,-0.4039659798145294,2.9649579524993896,-1.5472660064697266,180.3000030517578,-126.9000015258789,-19.5
429843,-2.810673713684082,8.747840881347656,-3.6618313789367676,-0.8993960022926331,1.0899460315704346,0.35061198472976685,177.90000915527344,-131.70001220703125,-21.900001525878906
429863,-1.8596265316009521,8.858497619628906,-3.3872835636138916,-0.8841519951820374,-0.060975998640060425,1.4939119815826416,177.90000915527344,-134.10000610351562,-20.700000762939453
429926,-0.6268538236618042,8.274709701538086,-2.6120903491973877,-0.46494197845458984,-0.8384199738502502,0.7621999979019165,180.3000030517578,-126.9000015258789,-20.100000381469727
429946,-0.715378999710083,8.76399040222168,-2.674297332763672,-0.18292799592018127,-0.8155539631843567,0.10670799762010574,168.3000030517578,-131.70001220703125,-21.900001525878906
429970,-0.8798683285713196,8.579164505004883,-2.875871419906616,-0.35061198472976685,-0.5945159792900085,-0.5182960033416748,170.70001220703125,-131.70001220703125,-21.30000114440918
429991,-0.9917210340499878,8.964966773986816,-3.1348674297332764,-0.015243999660015106,-0.5640279650688171,-0.6021379828453064,175.5,-129.3000030517578,-20.100000381469727
430011,-1.1095552444458008,9.03913688659668,-3.323282241821289,0.06859800219535828,-0.4039659798145294,-0.6326259970664978,177.90000915527344,-134.10000610351562,-20.100000381469727
430031,-1.1454437971115112,8.828590393066406,-3.4118075370788574,-0.19054999947547913,-0.23628199100494385,-0.4725639820098877,175.5,-134.10000610351562,-20.700000762939453
430051,-1.1891082525253296,8.893189430236816,-3.5284454822540283,-0.07621999830007553,0.038109999150037766,-0.007621999830007553,177.90000915527344,-131.70001220703125,-21.30000114440918
430075,-1.0479464530944824,9.1922607421875,-3.7306177616119385,-0.3048799932003021,0.4039659798145294,-0.19054999947547913,173.10000610351562,-126.9000015258789,-21.30000114440918
430095,-0.9755712151527405,8.472097396850586,-3.63012957572937,0.007621999830007553,0.38109999895095825,-0.6250039935112,177.90000915527344,-131.70001220703125,-19.5
430115,-1.0652925968170166,8.4236478805542,-3.517080783843994,-0.18292799592018127,0.342989981174469,0.08384199440479279,177.90000915527344,-131.70001220703125,-18.900001525878906
430135,-0.9857395887374878,9.09895133972168,-3.568521022796631,-0.5335400104522705,0.5487840175628662,0.44969800114631653,175.5,-126.9000015258789,-20.700000762939453
430175,-1.0569186210632324,8.526528358459473,-3.567922830581665,-0.09908600151538849,0.22103799879550934,0.06859800219535828,173.10000610351562,-131.70001220703125,-21.30000114440918
430195,-0.9337011575698853,8.96616268157959,-3.5541656017303467,-0.33536797761917114,0.3125019967556,0.5640279650688171,175.5,-134.10000610351562,-21.30000114440918
430215,-0.8930274844169617,9.018799781799316,-3.4112093448638916,-0.2972579896450043,0.3734779953956604,0.3582339882850647,177.90000915527344,-131.70001220703125,-20.700000762939453
430235,-0.721360445022583,9.041528701782227,-3.258084774017334,-0.4039659798145294,0.5182960033416748,0.18292799592018127,177.90000915527344,-131.70001220703125,-20.100000381469727
430255,-0.6806867122650146,8.84174919128418,-3.2048499584198,-0.6631140112876892,0.8307979702949524,-0.08384199440479279,168.3000030517578,-126.9000015258789,-20.100000381469727
430275,-0.7494731545448303,8.701186180114746,-3.2048499584198,-0.5411620140075684,1.1204339265823364,-0.22103799879550934,173.10000610351562,-129.3000030517578,-20.100000381469727
430295,-0.8547462821006775,8.499611854553223,-3.263468027114868,-0.3734779953956604,1.2118979692459106,-0.3201240003108978,173.10000610351562,-134.10000610351562,-19.5
430315,-0.6543684005737305,8.81902027130127,-3.2509069442749023,-0.038109999150037766,1.196653962135315,-0.2134159952402115,177.90000915527344,-129.3000030517578,-22.5
430339,-0.6537702679634094,8.747840881347656,-3.257486581802368,-0.13719600439071655,1.3795819282531738,-0.5182960033416748,173.10000610351562,-134.10000610351562,-19.5
430359,-0.6932476758956909,8.784327507019043,-3.272440195083618,-0.08384199440479279,1.5015339851379395,-0.5640279650688171,170.70001220703125,-126.9000015258789,-21.900001525878906
430379,-0.7602397203445435,8.849525451660156,-3.350796937942505,-0.1600620001554489,1.6311079263687134,-0.7469559907913208,175.5,-131.70001220703125,-18.900001525878906
430399,-0.7775858640670776,8.736475944519043,-3.437527656555176,-0.3125019967556,1.7225719690322876,-0.8231759667396545,173.10000610351562,-131.70001220703125,-20.700000762939453
430419,-0.7082012891769409,8.82380485534668,-3.5840725898742676,-0.10670799762010574,1.5929979085922241,-0.6021379828453064,180.3000030517578,-126.9000015258789,-20.700000762939453
430459,-0.7422954440116882,8.755617141723633,-3.6295316219329834,0.07621999830007553,1.1814099550247192,-0.2743920087814331,173.10000610351562,-134.10000610351562,-21.900001525878906
430522,-1.7764846086502075,9.354955673217773,-3.9214253425598145,0.07621999830007553,0.6173819899559021,0.739333987236023,165.90000915527344,-131.70001220703125,-18.900001525878906
430562,-2.346514940261841,9.649242401123047,-3.1498208045959473,-0.7621999979019165,-1.2118979692459106,1.3109840154647827,168.3000030517578,-131.70001220703125,-17.700000762939453
430593,-3.3962557315826416,9.59780216217041,-3.0864176750183105,-2.134160041809082,-0.9832379817962646,1.8140360116958618,165.90000915527344,-134.10000610351562,-21.30000114440918
430613,-4.234253883361816,10.049400329589844,-3.314908266067505,-2.0655620098114014,-1.7378159761428833,1.8216580152511597,163.5,-131.70001220703125,-21.30000114440918
430658,-5.168553352355957,9.31906795501709,-3.48179030418396,-1.295740008354187,-4.4436259269714355,1.9131219387054443,165.90000915527344,-136.5,-21.30000114440918
430678,-5.113524436950684,8.912928581237793,-3.749758243560791,-0.7088459730148315,-6.4253458976745605,3.567095994949341,158.70001220703125,-134.10000610351562,-21.900001525878906
430698,-3.7485620975494385,9.587634086608887,-3.1881020069122314,0.19817200303077698,-8.628104209899902,5.007653713226318,161.10000610351562,-138.90000915527344,-22.5
430720,-3.564333915710449,8.270523071289062,-3.872377634048462,-0.49542999267578125,-8.85676383972168,4.451247692108154,158.70001220703125,-143.70001220703125,-22.5
430740,-2.5265560150146484,7.510881423950195,-4.0195207595825195,1.2576299905776978,-11.829343795776367,4.596065998077393,156.3000030517578,-146.10000610351562,-26.100000381469727
430762,-1.211837649345398,6.932476997375488,-3.2646644115448,2.294221878051758,-14.230273246765137,4.687530040740967,156.3000030517578,-136.5,-23.700000762939453
430782,-0.8858497142791748,5.866586208343506,-2.647380828857422,2.0122079849243164,-15.266865730285645,4.367405891418457,151.5,-141.3000030517578,-27.30000114440918
430803,-0.2165277600288391,5.130272388458252,-2.1957828998565674,2.484771966934204,-15.3507080078125,4.611310005187988,149.10000610351562,-150.90000915527344,-26.700000762939453
430823,0.2308831810951233,5.726620674133301,-2.047443389892578,2.789651870727539,-14.618995666503906,5.6097917556762695,149.10000610351562,-146.10000610351562,-26.100000381469727
430843,0.8487648963928223,6.031673908233643,-2.161688804626465,3.2774598598480225,-14.062589645385742,6.333881855010986,137.10000610351562,-146.10000610351562,-27.30000114440918
430863,2.1000800132751465,6.1836018562316895,-2.131781578063965,3.5213639736175537,-11.882698059082031,6.6387619972229,137.10000610351562,-150.90000915527344,-27.900001525878906
430926,3.67499041557312,9.050500869750977,-4.547680854797363,3.5899620056152344,-5.564059734344482,7.10370397567749,122.70000457763672,-148.5,-25.500001907348633
430951,4.17384147644043,12.722500801086426,-7.496525764465332,2.644834041595459,-0.2743920087814331,3.910085916519165,113.10000610351562,-160.5,-25.500001907348633
430971,3.7216455936431885,13.20879077911377,-8.388357162475586,1.3567159175872803,-0.26677000522613525,0.2439039945602417,117.9000015258789,-162.90000915527344,-26.100000381469727
431011,2.7640187740325928,11.595001220703125,-8.403908729553223,-1.471045970916748,2.682943820953369,-2.75154185295105,110.70000457763672,-158.10000610351562,-26.700000762939453
431031,2.265167474746704,11.098543167114258,-8.2980375289917,-1.0594580173492432,4.00154972076416,-2.6143460273742676,117.9000015258789,-150.90000915527344,-24.900001525878906
431051,1.9577219486236572,11.078804016113281,-7.160369396209717,-1.6387299299240112,4.7027740478515625,-3.0335559844970703,120.30000305175781,-155.70001220703125,-25.500001907348633
431071,1.4714317321777344,9.81791877746582,-6.579572677612305,-2.8277618885040283,7.67535400390625,-4.527467727661133,125.10000610351562,-155.70001220703125,-24.900001525878906
431094,0.6459944248199463,8.86089038848877,-6.616059303283691,-3.0259339809417725,10.32018756866455,-5.091495990753174,127.50000762939453,-153.3000030517578,-24.900001525878906
431114,-0.2649773359298706,8.046817779541016,-6.46652364730835,-2.6677000522613525,11.227205276489258,-5.5030837059021,134.70001220703125,-153.3000030517578,-25.500001907348633
431134,-1.0204318761825562,6.87684965133667,-6.366035461425781,-2.073184013366699,11.394889831542969,-5.670767784118652,134.70001220703125,-146.10000610351562,-26.700000762939453
431154,-0.9540380239486694,6.951019287109375,-5.599814414978027,-1.6082419157028198,9.878111839294434,-4.032037734985352,132.3000030517578,-146.10000610351562,-24.900001525878906
431174,-0.8385964632034302,7.008440971374512,-4.44779109954834,-2.0579400062561035,8.948227882385254,-3.5975840091705322,137.10000610351562,-148.5,-24.900001525878906
431194,-0.9582250118255615,6.226070404052734,-4.018324375152588,-2.3094658851623535,9.756159782409668,-3.7957558631896973,141.90000915527344,-153.3000030517578,-24.30000114440918
431214,-0.6818829774856567,6.4521684646606445,-3.6522610187530518,-1.6158639192581177,8.9329833984375,-3.3231918811798096,141.90000915527344,-148.5,-24.900001525878906
431234,-0.7865580320358276,6.351081848144531,-2.7849535942077637,-1.3567159175872803,7.873525619506836,-3.6814258098602295,144.3000030517578,-150.90000915527344,-23.100000381469727
431254,-0.6447980999946594,6.983917236328125,-1.8859448432922363,-1.2576299905776978,7.286632061004639,-4.07014799118042,151.5,-143.70001220703125,-24.30000114440918
431275,-0.6747052669525146,6.862494468688965,-1.7573440074920654,-1.2500079870224,7.317119598388672,-4.496979713439941,144.3000030517578,-146.10000610351562,-23.100000381469727
431295,-0.9510473012924194,7.089788436889648,-1.6736040115356445,-0.8917739987373352,6.5320539474487305,-4.2911858558654785,149.10000610351562,-146.10000610351562,-22.5
431315,-0.9037940502166748,8.254971504211426,-1.2949795722961426,-0.48018598556518555,4.67990779876709,-3.407033920288086,151.5,-138.90000915527344,-21.900001525878906
431335,0.176452174782753,11.269013404846191,-0.9791600704193115,-0.6326259970664978,3.460387945175171,-2.225623846054077,156.3000030517578,-141.3000030517578,-20.700000762939453
431355,-1.928412914276123,8.588136672973633,-1.1741546392440796,-3.307947874069214,5.434485912322998,-6.432967662811279,153.90000915527344,-138.90000915527344,-20.700000762939453
431377,-2.40812349319458,7.2536797523498535,-1.9822458028793335,-1.9588539600372314,5.076251983642578,-3.9253299236297607,165.90000915527344,-134.10000610351562,-21.900001525878906
431397,-2.328570604324341,10.749825477600098,-2.047443389892578,-0.5411620140075684,4.222588062286377,-1.7835479974746704,165.90000915527344,-138.90000915527344,-20.100000381469727
431417,-3.1007730960845947,10.303610801696777,-2.7341115474700928,-2.2561118602752686,5.6174139976501465,-3.3841679096221924,163.5,-138.90000915527344,-23.100000381469727
431439,-3.5128936767578125,9.805357933044434,-3.5481841564178467,-1.7987920045852661,5.091495990753174,-2.957335948944092,163.5,-136.5,-21.900001525878906
431459,-3.419583320617676,9.18149471282959,-3.6498684883117676,-0.7012239694595337,3.3917899131774902,-2.2561118602752686,168.3000030517578,-138.90000915527344,-20.700000762939453
431480,-2.881852865219116,8.97932243347168,-3.5332305431365967,-0.36585599184036255,2.0503180027008057,-1.0289700031280518,165.90000915527344,-138.90000915527344,-19.5
431500,-2.310626268386841,8.686232566833496,-3.5398101806640625,-0.23628199100494385,1.4024479389190674,-0.2134159952402115,173.10000610351562,-131.70001220703125,-21.30000114440918
431520,-1.8638135194778442,8.992481231689453,-3.6582424640655518,0.04573199898004532,0.39634400606155396,0.7088459730148315,165.90000915527344,-141.3000030517578,-23.700000762939453
431540,-1.0036839246749878,9.369311332702637,-3.4153964519500732,0.05335399881005287,-0.5868939757347107,0.6707359552383423,165.90000915527344,-136.5,-19.5
431561,-0.9869359135627747,9.081604957580566,-3.3615634441375732,-0.3201240003108978,-0.5182960033416748,0.39634400606155396,163.5,-134.10000610351562,-19.5
431581,-0.9600194692611694,8.57079029083252,-3.547585964202881,-0.800309956073761,-0.20579399168491364,0.228659987449646,163.5,-136.5,-21.900001525878906
431601,-0.7482768297195435,9.09775447845459,-3.4985382556915283,-0.1600620001554489,-0.3734779953956604,0.6707359552383423,161.10000610351562,-134.10000610351562,-21.30000114440918
431623,-0.6603498458862305,9.218579292297363,-3.4979400634765625,-0.26677000522613525,-0.2896359860897064,0.48018598556518555,163.5,-136.5,-20.700000762939453
431643,-0.6753033995628357,8.99427604675293,-3.440518379211426,-0.36585599184036255,0,0.13719600439071655,161.10000610351562,-136.5,-21.900001525878906
431665,-0.7596415877342224,8.56600570678711,-3.3334507942199707,-0.4878079891204834,0.36585599184036255,0.06859800219535828,163.5,-131.70001220703125,-21.900001525878906
431685,-0.6286482810974121,8.88361930847168,-3.2209999561309814,-0.2439039945602417,0.36585599184036255,0.4192099869251251,163.5,-129.3000030517578,-20.700000762939453
431705,-0.6268538236618042,8.884217262268066,-3.2706458568573,-0.4420759975910187,0.5182960033416748,0.23628199100494385,168.3000030517578,-136.5,-19.5
431725,-0.727940022945404,8.54806137084961,-3.3974521160125732,-0.2134159952402115,0.49542999267578125,0.12195199728012085,161.10000610351562,-136.5,-21.30000114440918
431745,-0.6914532780647278,8.638978958129883,-3.517678737640381,0.3125019967556,0.19054999947547913,0.41158798336982727,161.10000610351562,-131.70001220703125,-20.100000381469727
431765,-0.6370222568511963,8.58095932006836,-3.556558132171631,0.2439039945602417,0.060975998640060425,0.6707359552383423,158.70001220703125,-134.10000610351562,-20.700000762939453
431785,-0.47313109040260315,8.89857292175293,-3.6504664421081543,0.3125019967556,0.08384199440479279,0.8231759667396545,161.10000610351562,-134.10000610351562,-20.100000381469727
431807,-0.403148353099823,8.998462677001953,-3.696523666381836,0.39634400606155396,0.114329993724823,0.5487840175628662,161.10000610351562,-138.90000915527344,-21.900001525878906
431827,-0.5323472619056702,9.147998809814453,-3.7808616161346436,0.25152599811553955,0.18292799592018127,0.41158798336982727,161.10000610351562,-136.5,-21.30000114440918
431847,-0.5855819582939148,9.01102352142334,-3.803591251373291,-0.114329993724823,0.1295740008354187,0.2896359860897064,156.3000030517578,-141.3000030517578,-20.700000762939453
431867,-0.6304426789283752,8.88062858581543,-3.5661284923553467,-0.4192099869251251,-0.04573199898004532,0.2134159952402115,156.3000030517578,-136.5,-20.700000762939453
431887,-0.4910753667354584,8.905750274658203,-3.2897863388061523,-0.7317119836807251,-0.04573199898004532,0.25152599811553955,156.3000030517578,-136.5,-19.5
431907,-0.4043446481227875,8.801673889160156,-3.2742345333099365,-1.1585439443588257,0.33536797761917114,0.1448179930448532,153.90000915527344,-141.3000030517578,-19.5
431927,-0.503038227558136,9.038537979125977,-3.4028353691101074,-1.021347999572754,0.4192099869251251,-0.06859800219535828,156.3000030517578,-136.5,-21.30000114440918
431950,-0.3852040767669678,9.106128692626953,-3.3645541667938232,-0.8460419774055481,0.3125019967556,-0.3734779953956604,161.10000610351562,-134.10000610351562,-20.100000381469727
431970,-0.2930900454521179,8.789710998535156,-3.0828287601470947,-0.6402480006217957,0.2591480016708374,-0.5030519962310791,158.70001220703125,-134.10000610351562,-22.5
431990,-0.3822133541107178,8.99307918548584,-3.069669723510742,-0.5868939757347107,0.7088459730148315,-0.4420759975910187,161.10000610351562,-134.10000610351562,-21.900001525878906
432010,-0.5383286476135254,8.767580032348633,-3.2688512802124023,-0.6631140112876892,0.9603719711303711,-0.5868939757347107,153.90000915527344,-141.3000030517578,-21.30000114440918
432032,-0.5455064177513123,8.848328590393066,-3.2682530879974365,-0.2134159952402115,0.7926880121231079,-0.5182960033416748,158.70001220703125,-136.5,-20.100000381469727
432052,-0.5221788287162781,8.920105934143066,-3.1426432132720947,-0.1295740008354187,0.6326259970664978,-0.49542999267578125,158.70001220703125,-129.3000030517578,-19.5
432072,-0.5048326849937439,8.81782341003418,-3.151017189025879,-0.20579399168491364,0.6783579587936401,-0.5640279650688171,161.10000610351562,-136.5,-21.30000114440918
432092,-0.4856920838356018,8.757411003112793,-3.100174903869629,-0.26677000522613525,0.6326259970664978,-0.5792719721794128,158.70001220703125,-138.90000915527344,-21.900001525878906
432113,-0.49047723412513733,8.745448112487793,-2.8782639503479004,-0.06859800219535828,0.4878079891204834,-0.457319974899292,158.70001220703125,-138.90000915527344,-20.700000762939453
432133,-0.6788922548294067,8.706568717956543,-2.6013238430023193,0,0.2896359860897064,-0.3887220025062561,158.70001220703125,-138.90000915527344,-20.100000381469727
432153,-0.8302224278450012,8.635988235473633,-2.1024725437164307,0.7469559907913208,-0.18292799592018127,-0.2134159952402115,161.10000610351562,-138.90000915527344,-20.100000381469727
432173,-1.2662686109542847,8.58395004272461,-2.0516304969787598,1.2652519941329956,-0.2896359860897064,0.342989981174469,163.5,-134.10000610351562,-21.30000114440918
432194,-1.726240634918213,8.466713905334473,-2.107855796813965,1.5320219993591309,-1.067080020904541,1.1509219408035278,156.3000030517578,-136.5,-20.100000381469727
432214,-2.2131290435791016,8.57677173614502,-2.23286771774292,1.6234859228134155,-2.0045859813690186,2.1494040489196777,158.70001220703125,-134.10000610351562,-21.30000114440918
432236,-2.8100757598876953,9.521240234375,-2.4158995151519775,1.4405579566955566,-2.782029867172241,2.949713945388794,153.90000915527344,-141.3000030517578,-18.900001525878906
432256,-3.3603672981262207,10.573372840881348,-2.9440596103668213,0.9756159782409668,-2.797273874282837,2.5228819847106934,153.90000915527344,-138.90000915527344,-18.900001525878906
432276,-3.8496482372283936,10.782723426818848,-3.7778708934783936,0.8765299916267395,-3.513741970062256,1.8369019031524658,153.90000915527344,-143.70001220703125,-18.30000114440918
432296,-4.238440990447998,10.38077163696289,-4.37302303314209,0.9984819889068604,-5.426863670349121,2.2103798389434814,151.5,-138.90000915527344,-20.700000762939453
432316,-4.575793743133545,10.24319839477539,-4.990904808044434,0.9451279640197754,-7.271388053894043,3.6738038063049316,156.3000030517578,-138.90000915527344,-21.30000114440918
432339,-4.103858947753906,10.278489112854004,-5.501718997955322,0.6554920077323914,-9.649452209472656,4.794238090515137,151.5,-141.3000030517578,-20.700000762939453
432359,-2.9338912963867188,9.87175178527832,-5.181712627410889,0.4192099869251251,-12.340017318725586,5.160093784332275,151.5,-143.70001220703125,-20.700000762939453
432419,0.2691643238067627,5.117711067199707,-3.9040791988372803,2.942091941833496,-15.907114028930664,5.411619663238525,144.3000030517578,-150.90000915527344,-24.30000114440918
432447,0.8649147152900696,6.104049205780029,-3.076249361038208,3.1326420307159424,-15.114425659179688,6.417723655700684,139.5,-148.5,-23.700000762939453
432470,1.1490325927734375,6.269136428833008,-2.2406435012817383,2.4695279598236084,-14.359848022460938,4.687530040740967,137.10000610351562,-143.70001220703125,-25.500001907348633
432510,2.6725027561187744,4.874267101287842,-2.060004472732544,2.3018438816070557,-11.326292037963867,4.8018598556518555,127.50000762939453,-150.90000915527344,-26.700000762939453
432530,2.7951221466064453,5.252293586730957,-2.2992615699768066,2.1036720275878906,-8.307979583740234,5.4573516845703125,127.50000762939453,-150.90000915527344,-26.700000762939453
432551,3.4919586181640625,8.251980781555176,-3.7599267959594727,3.0716660022735596,-3.971061944961548,5.960403919219971,120.30000305175781,-160.5,-26.700000762939453
432572,2.6312308311462402,10.839547157287598,-5.8049774169921875,2.896359920501709,0.09908600151538849,3.818621873855591,117.9000015258789,-162.90000915527344,-26.100000381469727
432656,2.4248716831207275,12.105815887451172,-9.985398292541504,0.007621999830007553,2.484771966934204,-0.9527499675750732,110.70000457763672,-153.3000030517578,-24.30000114440918
432694,2.3895812034606934,10.922090530395508,-7.543779373168945,-2.6143460273742676,6.99699592590332,-3.0259339809417725,117.9000015258789,-158.10000610351562,-24.30000114440918
432715,1.320699691772461,9.247888565063477,-7.563518047332764,-3.704291820526123,9.626585960388184,-4.611310005187988,125.10000610351562,-153.3000030517578,-24.30000114440918
432755,-0.026318291202187538,7.139434337615967,-5.409605026245117,-3.9863059520721436,10.28207778930664,-4.847591876983643,125.10000610351562,-153.3000030517578,-23.100000381469727
432777,-0.35529693961143494,6.7231268882751465,-4.074550151824951,-4.230209827423096,11.455865859985352,-4.565577983856201,127.50000762939453,-150.90000915527344,-26.700000762939453
432797,-0.4324573576450348,6.325960159301758,-3.8101706504821777,-4.1387457847595215,11.692148208618164,-4.664663791656494,125.10000610351562,-150.90000915527344,-24.900001525878906
432817,-0.5012438297271729,5.934176445007324,-3.3884799480438232,-3.5975840091705322,11.372023582458496,-4.382649898529053,137.10000610351562,-148.5,-21.900001525878906
432841,-0.6142928600311279,6.226070404052734,-2.724541187286377,-2.2180018424987793,9.840002059936523,-4.17685604095459,137.10000610351562,-153.3000030517578,-22.5
432905,-0.9145606160163879,6.3744096755981445,-2.2735414505004883,-0.44969800114631653,7.317119598388672,-5.1067399978637695,139.5,-146.10000610351562,-21.900001525878906
432929,-0.5604599714279175,8.42843246459961,-2.2017643451690674,-0.1295740008354187,5.541193962097168,-4.169233798980713,151.5,-146.10000610351562,-21.30000114440918
432949,-0.9642064571380615,9.05109977722168,-2.554668664932251,-1.1661659479141235,6.3719916343688965,-4.649419784545898,146.70001220703125,-143.70001220703125,-21.30000114440918
432991,-2.048041582107544,9.85978889465332,-3.974061965942383,-0.8079319596290588,5.099117755889893,-3.1250200271606445,151.5,-136.5,-21.900001525878906
433011,-1.117929220199585,11.603375434875488,-3.4082186222076416,-0.9375059604644775,3.4908759593963623,-2.187514066696167,153.90000915527344,-136.5,-21.30000114440918
433034,-1.7992140054702759,10.13971996307373,-3.1737465858459473,-1.7683039903640747,4.359784126281738,-4.352161884307861,158.70001220703125,-134.10000610351562,-21.900001525878906
433054,-2.086920738220215,9.314282417297363,-3.624746322631836,-1.242385983467102,4.367405891418457,-4.054903984069824,161.10000610351562,-138.90000915527344,-22.5
433074,-2.46793794631958,9.555334091186523,-3.6552517414093018,0.060975998640060425,4.054903984069824,-3.85673189163208,163.5,-138.90000915527344,-20.700000762939453
433097,-3.216214656829834,9.342992782592773,-4.228870868682861,0.8841519951820374,3.147886037826538,-3.414655923843384,168.3000030517578,-134.10000610351562,-20.700000762939453
433118,-2.974565029144287,9.619335174560547,-4.148719787597656,0.9832379817962646,1.7454379796981812,-1.9969639778137207,165.90000915527344,-136.5,-19.5
433138,-2.6162774562835693,9.271814346313477,-3.970473051071167,-0.030487999320030212,1.1128119230270386,-0.9756159782409668,165.90000915527344,-131.70001220703125,-18.30000114440918
433158,-1.9750680923461914,8.74126148223877,-3.8203392028808594,-0.6402480006217957,0.5411620140075684,0.10670799762010574,170.70001220703125,-136.5,-18.30000114440918
433180,-1.4983481168746948,8.298635482788086,-3.451284885406494,-0.739333987236023,0.12195199728012085,0.7698220014572144,170.70001220703125,-129.3000030517578,-20.100000381469727
433200,-0.9079810380935669,8.257962226867676,-3.1366617679595947,-0.853663980960846,-0.09908600151538849,1.14329993724823,161.10000610351562,-131.70001220703125,-18.30000114440918
433220,-0.5263658165931702,8.256765365600586,-2.9015915393829346,-0.6631140112876892,-0.2591480016708374,0.8765299916267395,163.5,-129.3000030517578,-21.30000114440918
433280,-0.6172835230827332,8.963770866394043,-3.4094150066375732,-0.228659987449646,-0.33536797761917114,0.7164679765701294,165.90000915527344,-126.9000015258789,-20.700000762939453
433343,-0.5395249724388123,8.643165588378906,-3.3513951301574707,-0.5487840175628662,0.3125019967556,-0.46494197845458984,163.5,-136.5,-21.30000114440918
433363,-0.8702980279922485,8.838160514831543,-3.6552517414093018,-0.1600620001554489,0.49542999267578125,-0.114329993724823,163.5,-124.50000762939453,-19.5
433383,-0.9606176018714905,8.825599670410156,-3.7479639053344727,-0.05335399881005287,0.13719600439071655,-0.02286599949002266,161.10000610351562,-134.10000610351562,-20.100000381469727
433406,-0.6495832800865173,8.950611114501953,-3.4357333183288574,0.09146399796009064,-0.09908600151538849,0.114329993724823,168.3000030517578,-136.5,-20.100000381469727
433426,-0.608909547328949,8.774757385253906,-3.5984280109405518,-0.2591480016708374,0.09146399796009064,-0.030487999320030212,161.10000610351562,-134.10000610351562,-19.5
433446,-0.5801987051963806,8.677858352661133,-3.6953272819519043,-0.07621999830007553,0.038109999150037766,0.1295740008354187,163.5,-131.70001220703125,-17.100000381469727
433466,-0.4868883788585663,8.739466667175293,-3.71087908744812,0.12195199728012085,0,0.16768398880958557,161.10000610351562,-129.3000030517578,-19.5
433486,-0.42468151450157166,9.014613151550293,-3.65106463432312,0.3048799932003021,-0.02286599949002266,0.19817200303077698,165.90000915527344,-126.9000015258789,-17.700000762939453
433526,-0.5957503914833069,8.984705924987793,-3.7575340270996094,-0.07621999830007553,0.1448179930448532,0.007621999830007553,170.70001220703125,-131.70001220703125,-17.700000762939453
433591,-0.6495832800865173,9.056482315063477,-3.5960354804992676,-0.4344539940357208,0.4420759975910187,-0.46494197845458984,163.5,-134.10000610351562,-20.700000762939453
433612,-0.6436018347740173,8.938648223876953,-3.478201389312744,-0.5945159792900085,0.685979962348938,-0.571649968624115,165.90000915527344,-131.70001220703125,-18.30000114440918
433632,-0.714780867099762,8.726905822753906,-3.3645541667938232,-0.8460419774055481,1.013725996017456,-0.5030519962310791,161.10000610351562,-131.70001220703125,-19.5
433652,-0.707004964351654,8.627016067504883,-3.3789095878601074,-0.800309956073761,1.196653962135315,-0.3734779953956604,165.90000915527344,-134.10000610351562,-20.100000381469727
433675,-0.6424055695533752,8.716737747192383,-3.338834047317505,-0.46494197845458984,1.2271419763565063,-0.2134159952402115,165.90000915527344,-134.10000610351562,-20.700000762939453
433695,-0.4163075089454651,8.80286979675293,-3.258084774017334,-0.2439039945602417,1.0747020244598389,-0.114329993724823,163.5,-136.5,-20.700000762939453
433717,-0.19678904116153717,8.980518341064453,-3.135465383529663,-0.08384199440479279,1.0594580173492432,-0.1295740008354187,163.5,-129.3000030517578,-20.100000381469727
433737,-0.17166703939437866,8.83098316192627,-3.1575968265533447,-0.2134159952402115,1.4024479389190674,-0.3887220025062561,168.3000030517578,-136.5,-19.5
433778,-0.3152213394641876,8.519350051879883,-3.1462321281433105,0.09146399796009064,1.653973937034607,-0.6631140112876892,161.10000610351562,-131.70001220703125,-18.900001525878906
433798,-0.5873764157295227,8.772364616394043,-3.3304600715637207,0.13719600439071655,1.6920839548110962,-0.6707359552383423,158.70001220703125,-136.5,-18.30000114440918
433818,-0.9815526008605957,8.811244010925293,-3.416592597961426,0.16768398880958557,1.4862899780273438,-0.853663980960846,165.90000915527344,-129.3000030517578,-18.900001525878906
433838,-1.4690390825271606,9.107324600219727,-3.422574043273926,0.19054999947547913,1.1128119230270386,-0.5868939757347107,165.90000915527344,-129.3000030517578,-17.700000762939453
433878,-3.445303440093994,10.33591079711914,-3.341226577758789,-1.4862899780273438,-0.9451279640197754,0.46494197845458984,165.90000915527344,-129.3000030517578,-18.900001525878906
433898,-3.8293113708496094,9.769469261169434,-3.020023822784424,-1.935987949371338,-1.3338500261306763,0.457319974899292,163.5,-131.70001220703125,-18.900001525878906
433940,-5.09019660949707,9.322656631469727,-4.329957008361816,-3.1707520484924316,-2.7286758422851562,3.4375219345092773,163.5,-138.90000915527344,-20.100000381469727
433960,-4.32935905456543,10.4274263381958,-4.740283012390137,-2.14178204536438,-6.5244317054748535,4.207344055175781,156.3000030517578,-134.10000610351562,-21.900001525878906
433983,-2.838188409805298,9.75212287902832,-4.18281364440918,-2.1494040489196777,-11.737879753112793,4.878079891204834,158.70001220703125,-143.70001220703125,-22.5
434003,-2.143744468688965,8.891993522644043,-3.9692766666412354,-1.3795819282531738,-14.093077659606934,5.175337791442871,151.5,-138.90000915527344,-26.100000381469727
434024,-1.22499680519104,7.884122371673584,-3.3705356121063232,-0.18292799592018127,-16.303457260131836,5.548815727233887,156.3000030517578,-146.10000610351562,-24.900001525878906
434044,-0.7692118883132935,7.687333583831787,-2.587566375732422,0.5487840175628662,-17.728771209716797,5.701255798339844,144.3000030517578,-146.10000610351562,-26.700000762939453
434064,-0.9235327243804932,6.434822082519531,-2.519378185272217,0.9451279640197754,-17.62206268310547,4.5427117347717285,149.10000610351562,-150.90000915527344,-27.30000114440918
434084,-1.0611056089401245,5.455662250518799,-2.49186372756958,2.4771499633789062,-18.46048355102539,4.17685604095459,144.3000030517578,-150.90000915527344,-29.700000762939453
434104,-0.6723126769065857,4.930492401123047,-1.9631052017211914,4.169233798980713,-19.199817657470703,4.519845962524414,144.3000030517578,-143.70001220703125,-29.700000762939453
434125,0.28052905201911926,5.461045265197754,-1.4893759489059448,4.824726104736328,-18.81871795654297,5.198204040527344,141.90000915527344,-150.90000915527344,-29.700000762939453
434145,1.324886679649353,5.777462959289551,-1.217819094657898,4.474113941192627,-16.494007110595703,5.480217933654785,134.70001220703125,-153.3000030517578,-28.500001907348633
434165,1.336849570274353,4.3353400230407715,-1.712483286857605,2.9268479347229004,-12.484835624694824,4.306429862976074,134.70001220703125,-153.3000030517578,-30.30000114440918
434185,2.2197086811065674,5.045934200286865,-3.2748327255249023,4.489357948303223,-8.460419654846191,5.990891933441162,127.50000762939453,-155.70001220703125,-29.700000762939453
434205,2.45298433303833,8.689821243286133,-4.932286739349365,5.25155782699585,-4.67990779876709,7.362851619720459,122.70000457763672,-150.90000915527344,-29.100000381469727
434229,2.837590217590332,12.108806610107422,-6.92171049118042,4.077769756317139,0.44969800114631653,6.493943691253662,110.70000457763672,-165.3000030517578,-28.500001907348633
434249,3.2114295959472656,13.544947624206543,-8.906349182128906,3.6814258098602295,1.9131219387054443,2.278977870941162,105.9000015258789,-160.5,-27.900001525878906
434269,3.033781051635742,12.788296699523926,-9.58882999420166,1.9588539600372314,-0.426831990480423,-0.7240899801254272,113.10000610351562,-160.5,-27.30000114440918
434289,2.7592334747314453,11.813323974609375,-8.944629669189453,0.7545779943466187,0.6021379828453064,-1.0594580173492432,110.70000457763672,-155.70001220703125,-26.700000762939453
