time,sensor_accX,sensor_accY,sensor_accZ,sensor_gyroX,sensor_gyroY,sensor_gyroZ,sensor_magX,sensor_magY,sensor_magZ,label_Boxing_slip_left,label_Boxing_slip_right,label_Boxing_pullback,label_Boxing_roll_left,label_Boxing_roll_right,label_Boxing_recording_cut
433298,0.39058736,8.360245,-2.6545584,0.23628199,1.478668,-1.532022,105.9,-155.70001,-23.7,,,,,,
433322,0.6310408,8.647353,-2.8471606,0.57164997,1.3490939,-1.25763,108.3,-170.1,-22.5,,,,,,
433342,0.954038,9.020595,-3.0182295,0.640248,1.326228,-1.196654,110.700005,-160.5,-18.900002,,,,,,
433362,1.0652926,9.531408,-3.852639,1.516778,2.164648,-0.92988396,105.9,-165.3,-21.300001,,,,,,
433382,1.3266811,10.031456,-4.138551,1.5929979,2.111294,-0.632626,110.700005,-158.1,-19.5,,,,,,
433402,2.1730535,11.144002,-4.452576,1.3567159,1.036592,-0.625004,105.9,-177.3,-19.5,,,,,,
433462,1.317709,8.938648,-4.339527,0.579272,0.754578,-1.8673899,110.700005,-160.5,-14.1,,,,,,
433635,1.8123732,8.50978,-2.8262255,-1.3490939,0.434454,-0.19055,127.50001,-158.1,-25.500002,,,,,,
433670,1.8596265,8.703578,-2.5720148,-0.884152,0.297258,-0.449698,120.3,-160.5,-21.300001,,,,,,
433690,1.7974197,8.435012,-2.6043146,-0.47256398,0.33536798,-0.777444,125.100006,-158.1,-23.1,,,,,,
433733,1.8751782,8.969752,-2.7185597,-0.274392,0.41921,-0.746956,129.90001,-165.3,-19.5,,,,,,
433753,2.6085014,10.469894,-3.1647744,0.15244,0.746956,0.64787,115.50001,-162.90001,-17.1,,,,,,
433773,2.0336862,9.149793,-2.627044,-1.3490939,-0.891774,-2.461906,110.700005,-167.70001,-21.300001,,,,,,
433793,1.673604,8.039639,-2.5098078,0.07622,-0.45731997,-1.501534,129.90001,-155.70001,-24.300001,,,,,,
433857,0.8415872,9.076819,-2.4667416,0.091464,-1.059458,-1.288118,134.70001,-153.3,-20.1,,,,,,
433877,0.669322,9.948314,-2.3536925,-0.49543,-1.166166,-0.99086,125.100006,-158.1,-22.5,,,,,,
433897,0.13159145,10.1558695,-2.5343318,-0.480186,-0.358234,-1.417692,127.50001,-160.5,-12.3,,,,,,
433917,-0.5209825,9.805358,-2.8208423,-0.45731997,-0.72409,-1.8521459,137.1,-153.3,-24.900002,,,,,,
433977,-1.0987886,10.2097025,-2.8477588,-0.060976,-0.503052,-1.806414,141.90001,-158.1,-24.300001,,,,,,
434033,-2.3249817,8.628811,-2.7311208,0.82317597,-1.432936,-1.745438,144.3,-153.3,-20.1,,,,,,
434053,-2.6431937,8.228055,-3.0301924,1.3414719,-0.884152,-1.539644,141.90001,-153.3,-26.1,,,,,,
434096,-2.8052905,8.148501,-2.9422653,0.891774,-2.164648,-0.289636,137.1,-155.70001,-27.300001,,,,,,
434116,-2.8657029,8.515761,-3.033183,1.082324,-1.775926,0.11432999,141.90001,-148.5,-18.900002,,,,,,
434138,-2.6144829,9.249683,-3.4453034,1.044214,-1.310984,0.121952,144.3,-141.3,-20.1,,,,,,
434158,-2.6306329,9.254468,-3.6253445,0.983238,-1.501534,-0.41158798,149.1,-146.1,-21.900002,,,,,,
434178,-2.3776183,9.206616,-3.275431,0.617382,-2.05794,-0.548784,156.3,-153.3,-19.5,,,,,,
434198,-2.3614686,9.418958,-3.1904945,0.503052,-1.821658,-0.41158798,146.70001,-148.5,-14.1,,,,,,
434218,-2.6754935,9.476379,-3.1605875,-0.022866,-0.91463995,-0.68597996,146.70001,-153.3,-25.500002,,,,,,
434278,-2.1862125,9.290955,-2.723943,-0.396344,-1.1051899,-0.068598,137.1,-155.70001,-14.1,,,,,,
434452,-1.2321745,8.888405,-2.9602096,0.67835796,1.722572,0.28201398,137.1,-143.70001,-21.900002,,,,,,
434472,-1.0503391,8.798683,-3.0002851,0.655492,1.455802,-0.030488,134.70001,-155.70001,-21.300001,,,,,,
434512,-0.9043922,8.808851,-3.1851113,0.56402797,1.8826339,-0.274392,151.5,-155.70001,-25.500002,,,,,,
434552,-0.8756813,8.671877,-3.757534,1.021348,1.798792,-0.594516,141.90001,-153.3,-22.5,,,,,,
434809,1.564742,8.373404,-3.535623,-1.463424,0.55640596,-0.960372,156.3,-148.5,-17.1,,,,,,
434829,1.5808918,8.363833,-3.2903845,-1.18141,0.388722,-0.617382,156.3,-158.1,-15.900001,,,,,,
434870,1.3960657,7.9612827,-3.0068648,-1.196654,0.80793196,-1.288118,149.1,-153.3,-21.900002,,,,,,
434890,1.4235803,8.324954,-3.2138221,-0.67835796,0.830798,-0.967994,146.70001,-138.90001,-21.300001,,,,,,
434910,1.4672447,8.886012,-3.3358433,-0.40396598,0.3811,-0.7622,146.70001,-158.1,-21.300001,,,,,,
434933,1.4116174,8.580959,-3.0882123,-0.67073596,-0.434454,-1.089946,151.5,-155.70001,-13.500001,,,,,,
435016,-1.4205896,8.280691,-3.062492,-0.358234,0.69360197,-1.082324,158.70001,-158.1,-18.900002,,,,,,
435135,-2.0528266,9.286768,-3.0493329,-0.586894,0.754578,-1.02897,156.3,-148.5,-18.900002,,,,,,
435173,-2.1975772,9.380078,-3.6235502,-0.396344,1.6158639,-1.18141,156.3,-141.3,-17.1,,,,,,
435193,-2.167072,9.0540905,-3.8059838,-0.34298998,0.49543,-1.021348,151.5,-148.5,-16.5,,,,,,
435236,-1.8105788,9.28258,-3.1976724,-0.655492,-0.388722,-0.160062,156.3,-146.1,-21.900002,,,,,,
435256,-1.7471756,9.02837,-3.3184972,-0.83842,-0.015244,-0.708846,168.3,-143.70001,-16.5,,,,,,
435276,-1.6658282,8.821412,-3.301151,-0.579272,-0.40396598,-0.503052,158.70001,-143.70001,-23.1,,,,,,
435297,-1.5671346,8.807655,-2.8854418,-0.716468,-0.746956,-0.34298998,153.90001,-146.1,-24.900002,,,,,,
435317,-1.4582726,9.181495,-2.7478688,-0.53354,0.099086,-0.289636,153.90001,-141.3,-21.900002,,,,,,
435337,-1.409823,9.350769,-3.0565107,-0.541162,1.1280559,-0.777444,156.3,-141.3,-19.5,,,,,,
435357,-1.4277673,8.953602,-3.0008833,-0.365856,0.899396,-1.074702,161.1,-155.70001,-19.5,,,,,,
435378,-1.4325525,8.932069,-2.7586353,-0.160062,0.82317597,-0.81555396,175.5,-138.90001,-18.900002,,,,,,
435398,-1.5073203,9.147999,-2.7490652,-0.243904,1.455802,-0.846042,168.3,-146.1,-14.1,,,,,,
435418,-1.6335285,8.804067,-2.9093673,-0.07622,1.730194,-1.06708,156.3,-143.70001,-19.5,,,,,,
435480,-2.0665839,9.046912,-2.9105637,0.137196,1.272874,-0.861286,158.70001,-143.70001,-18.900002,,x,,,,
435500,-2.246625,8.985304,-3.0612957,0.541162,0.739334,-0.640248,165.90001,-131.70001,-20.1,,x,,,,
435520,-2.3315613,9.11211,-2.996098,0.373478,0.015244,-0.015244,161.1,-141.3,-15.3,,x,,,,
435592,-3.4536774,10.287461,-2.690447,0.053354,-1.6234859,0.998482,156.3,-138.90001,-18.900002,,x,,,,
435612,-3.8329,10.603879,-2.568426,-0.41158798,-3.422278,1.3948259,153.90001,-150.90001,-21.900002,,x,,,,
435655,-4.029091,8.284879,-0.79553014,-1.1432999,-6.661628,2.461906,158.70001,-155.70001,-20.7,,x,,,,
435676,-2.9398727,9.098352,-1.4175988,-0.213416,-5.5945477,2.980202,151.5,-143.70001,-17.1,,x,,,,
435696,-2.948845,7.6119676,-2.0289009,1.48629,-6.4786997,1.3643379,151.5,-150.90001,-23.7,,x,,,,
435717,-2.597735,6.013131,-2.6742973,4.138746,-9.588476,1.928366,156.3,-150.90001,-22.5,,x,,,,
435781,-0.72435117,6.614863,-1.3272792,3.902464,-10.952814,2.370442,151.5,-165.3,-21.300001,,x,,,,
435801,-0.025122005,7.183697,-2.0881171,2.7058098,-9.878112,2.157026,146.70001,-153.3,-24.900002,,x,,,,
435821,0.17047074,6.5036087,-2.6677177,2.2180018,-6.150954,0.82317597,146.70001,-153.3,-25.500002,,x,,,,
435841,1.5174887,6.1907797,-5.3988385,5.160094,-4.809482,4.207344,141.90001,-148.5,-17.7,,x,,,,
435902,2.656353,10.435203,-6.3349323,3.7728899,2.911604,4.123502,120.3,-153.3,-22.5,,x,,,,
435952,1.3416346,9.652831,-9.539185,2.126538,4.085392,-4.024416,134.70001,-153.3,-24.300001,,x,,,,
435972,0.76323044,10.162449,-9.779039,0.251526,1.9054999,-1.1280559,137.1,-155.70001,-21.900002,,x,,,,
436015,0.4551868,11.359931,-8.571987,-0.907018,4.969544,-3.460388,134.70001,-148.5,-22.5,,x,,,,
436075,-1.2626798,9.581054,-8.6114645,-3.018312,9.275973,-3.01069,144.3,-148.5,-20.7,,x,,,,
436095,-1.4487023,9.080408,-8.187979,-4.199722,6.13571,-2.2789779,139.5,-143.70001,-20.7,,x,,,,
436135,-1.5055258,8.6652975,-5.003466,-5.929916,1.806414,-1.5929979,144.3,-146.1,-22.5,,x,,,,
436158,-1.3565882,8.083902,-4.1397476,-5.6097918,3.003068,-2.2561119,149.1,-141.3,-16.5,,x,,,,
436178,-1.1370698,7.4026175,-3.6420925,-4.9466777,3.155508,-2.43904,151.5,-146.1,-16.5,,x,,,,
436198,-0.88704604,6.906159,-2.656353,-4.108258,1.67684,-2.2865999,158.70001,-150.90001,-20.1,,x,,,,
436260,0.26677176,7.538396,-0.71896785,-2.042696,2.187514,-0.891774,156.3,-141.3,-18.300001,,x,,,,
436300,0.1824336,8.514565,-1.116733,-1.6463519,5.327778,-1.089946,153.90001,-160.5,-29.1,,x,,,,
436340,-0.75844526,8.252579,-0.6513777,-2.980202,7.134192,-2.103672,168.3,-148.5,-23.1,,,,,,
436434,-2.3034487,9.232337,-1.4229821,-1.775926,4.5731997,-0.663114,163.5,-150.90001,-27.900002,,,,,,
436454,-2.60252,9.52782,-2.0235176,-1.8673899,4.664664,-1.3948259,168.3,-153.3,-20.1,,,,,,
436494,-2.606109,9.622326,-2.1222112,-0.754578,2.469528,-0.35061198,170.70001,-141.3,-18.900002,,,,,,
436518,-2.1054633,10.213889,-2.6384087,-0.160062,2.6905658,-0.22865999,175.5,-143.70001,-26.1,,,,,,
436539,-1.8488599,10.125364,-2.3710387,-0.388722,1.3643379,-0.320124,156.3,-134.1,-19.5,,,,,,
436559,-1.9601145,9.523034,-2.26756,-0.144818,1.951232,-0.617382,165.90001,-141.3,-22.5,,,,,,
436581,-2.1622868,9.170728,-2.5612483,0.35061198,2.111294,-0.365856,153.90001,-143.70001,-22.5,,,,,,
436601,-1.7166703,9.665392,-2.8848436,0.663114,1.1204339,0.20579399,153.90001,-155.70001,-25.500002,,,,,,
436621,-1.4427209,9.944127,-2.4368346,0.426832,-0.289636,-0.28201398,146.70001,-143.70001,-22.5,,,,,,
436641,-1.5874715,9.244898,-2.3501036,0.34298998,0.56402797,-0.998482,158.70001,-148.5,-13.500001,,,,,,
436662,-1.5121055,8.728103,-2.606109,0.47256398,0.708846,-1.06708,163.5,-143.70001,-21.300001,,,,,,
436682,-1.367953,8.504396,-2.43504,0.434454,-0.11432999,-0.579272,158.70001,-129.3,-23.1,,,,,,
436702,-1.2064544,9.278992,-2.329767,0.30488,0.015244,-0.03811,156.3,-138.90001,-15.900001,,,,,,
436722,-1.3577845,8.913527,-2.4697323,0.19055,0.81555396,-0.716468,175.5,-138.90001,-15.3,,,,,,
436742,-1.2178191,8.649147,-2.5092099,0.358234,0.28201398,-0.617382,156.3,-146.1,-18.900002,,,,,,
436762,-1.1771454,8.727504,-2.1772404,0.358234,0.015244,-0.28201398,158.70001,-150.90001,-17.7,,,,,,
436783,-1.4953574,8.7191305,-2.3315613,0.510674,1.189032,-0.22865999,165.90001,-143.70001,-12.3,,,,,,
436803,-1.585677,9.377088,-2.727532,0.83842,0.655492,0.129574,173.1,-143.70001,-10.5,,,,,,
436823,-1.5587605,9.701879,-2.4063292,0.632626,-0.846042,-0.068598,165.90001,-143.70001,-17.1,,,,,,
436843,-1.9888253,9.826293,-2.0139475,0.40396598,-0.525918,-0.221038,161.1,-141.3,-15.900001,,,,,,
436863,-2.506817,10.085289,-2.3154113,0.57164997,-0.320124,-0.015244,180.3,-146.1,-19.5,,,,,,
436885,-3.0660808,10.178599,-1.8512524,0.22865999,-1.6463519,0.19055,163.5,-136.5,-14.700001,,x,,,,
436906,-4.140944,9.462024,-1.7035112,0.251526,-1.25763,1.29574,161.1,-141.3,-17.7,,x,,,,
436928,-4.3825936,10.020689,-1.9128612,0.40396598,-2.149404,3.0488,168.3,-141.3,-22.5,,x,,,,
436948,-4.0841203,10.262938,-1.7435868,0.106708,-3.96344,3.323192,161.1,-141.3,-27.300001,,x,,,,
436968,-3.824526,9.368115,-1.1915008,-0.259148,-6.311016,2.949714,156.3,-146.1,-15.900001,,x,,,,
437031,-2.414105,6.513777,-1.5802938,3.559474,-11.036655,3.155508,156.3,-150.90001,-20.7,,x,,,,
437091,-1.2309783,6.250594,0.58259124,5.160094,-9.253108,3.08691,153.90001,-155.70001,-20.1,,x,,,,
437134,-0.59036714,5.297154,-2.8854418,4.984788,-4.26832,2.195136,137.1,-148.5,-21.300001,,x,,,,
437174,0.94087887,5.380894,-5.4831767,8.353712,-4.428382,5.3963757,139.5,-150.90001,-18.900002,,x,,,,
437275,2.820244,10.826986,-10.993868,3.041178,-0.503052,1.478668,125.100006,-148.5,-15.900001,,x,,,,
437296,2.6641288,11.390436,-11.641059,2.09605,1.1356779,-0.17530599,120.3,-143.70001,-19.5,,x,,,,
437337,1.4839927,9.744348,-10.365818,-1.585376,-0.182928,-4.565578,122.700005,-146.1,-11.700001,,x,,,,
437358,0.38939106,10.369407,-10.042222,-1.471046,3.384168,-2.843006,125.100006,-150.90001,-8.700001,,x,,,,
437418,-0.9671972,9.366919,-9.514062,-5.0228977,2.385686,-3.460388,129.90001,-146.1,-17.1,,x,,,,
437455,-0.7434917,8.221476,-4.745068,-8.673836,-1.8369019,-2.2027578,122.700005,-148.5,-14.1,,x,,,,
437475,-0.8481667,7.287774,-3.911855,-7.08846,3.978684,-1.996964,134.70001,-150.90001,-12.3,,x,,,,
437519,-0.24464047,7.055096,-3.6761868,-5.403998,2.812518,-0.739334,141.90001,-148.5,-20.1,,x,,,,
437539,-0.47552365,6.699201,-2.3231874,-4.908568,2.873494,-1.966476,137.1,-160.5,-18.300001,,x,,,,
437560,-0.3188102,6.3486896,-2.5815852,-2.2713559,7.256144,-2.347576,132.3,-150.90001,-21.300001,,x,,,,
437582,-0.1740596,7.3858695,-3.359171,-1.463424,5.9222937,-1.189032,137.1,-150.90001,-20.7,,x,,,,
437602,-0.20217232,8.404507,-2.9057786,-2.2332458,5.5183277,-0.967994,141.90001,-150.90001,-22.5,,x,,,,
437622,-0.6794904,8.259158,-3.0008833,-2.6829438,7.881148,-2.309466,149.1,-158.1,-20.1,,x,,,,
437642,-0.9277198,7.644267,-3.6456814,-2.370442,8.04121,-2.903982,134.70001,-162.90001,-16.5,,x,,,,
437684,-0.3702505,8.486452,-2.1138372,-3.147886,2.378064,-2.560992,127.50001,-141.3,-15.900001,,x,,,,
437704,-1.1280977,6.777558,-1.518685,-2.675322,3.7347798,-3.2927039,151.5,-150.90001,-25.500002,,x,,,,
437724,-1.3882898,6.569404,-1.5569662,-1.493912,3.7195358,-1.8521459,144.3,-146.1,-10.5,,x,,,,
437745,-0.5801987,8.27471,-0.8571389,-1.745438,0.92226195,-0.884152,141.90001,-153.3,-18.300001,,x,,,,
437769,-0.035290435,10.791098,-0.20217232,-2.2484899,3.650938,-0.541162,139.5,-162.90001,-14.1,,x,,,,
437789,-0.9283179,10.462717,-1.405636,-2.583858,8.292736,-3.2545938,149.1,-150.90001,-17.7,,x,,,,
437810,-2.0342844,6.840961,-2.2693543,-1.044214,7.0046177,-4.474114,144.3,-150.90001,-11.700001,,x,,,,
437831,-1.9517405,10.137327,-1.6879594,-1.051836,1.3643379,1.006104,139.5,-148.5,-20.7,,x,,,,
437851,-2.308832,10.746237,-1.873982,-1.1128119,4.5884438,-1.6006199,153.90001,-143.70001,-21.900002,,x,,,,
437871,-2.5116024,8.764589,-3.3035436,0.129574,5.4725957,-2.881116,153.90001,-153.3,-16.5,,x,,,,
437891,-2.4380307,8.271121,-3.7910302,0.320124,1.44818,-0.731712,151.5,-148.5,-8.700001,,x,,,,
437911,-1.464254,9.966258,-3.016435,0.030488,-2.408552,1.3719599,156.3,-148.5,-24.300001,,x,,,,
437933,-0.94087887,10.540476,-2.3315613,-0.251526,-1.71495,0.56402797,168.3,-148.5,-16.5,,x,,,,
437953,-0.832615,9.877135,-2.7030082,-0.69360197,0.731712,-0.548784,139.5,-162.90001,-13.500001,,x,,,,
438033,-0.5843857,8.607277,-2.3668518,-1.150922,0.70122397,-0.777444,158.70001,-141.3,-26.1,,,,,,
438073,-0.42228892,8.815431,-2.2777283,-0.373478,0.95274997,-1.303362,158.70001,-155.70001,-21.300001,,,,,,
438109,-0.62266684,8.650344,-2.6079032,0.053354,2.103672,-1.1051899,156.3,-126.9,-18.900002,,,,,,
438169,-1.1603974,8.618044,-2.7454762,-0.221038,1.326228,-1.006104,161.1,-143.70001,-12.900001,,,,,,
438235,-1.4564781,9.371106,-2.948845,-0.198172,0.57164997,-0.754578,161.1,-136.5,-19.5,,,,,,
438255,-1.6341265,9.187476,-2.5241632,-0.40396598,-0.022866,-0.28201398,168.3,-134.1,-19.5,,,,,,
438295,-2.53493,9.578662,-2.2663636,-0.320124,-0.23628199,0.16768399,161.1,-138.90001,-16.5,,x,,,,
438315,-3.4961457,9.698888,-1.991816,-0.144818,-1.021348,0.60976,175.5,-150.90001,-21.900002,,x,,,,
438335,-3.928603,10.622421,-1.8524488,-0.03811,-1.928366,1.577754,158.70001,-146.1,-17.1,,x,,,,
438355,-4.208534,10.969942,-1.5964435,0.137196,-3.452766,2.431418,158.70001,-148.5,-18.900002,,x,,,,
438378,-4.4071174,9.719225,-0.94327146,0.213416,-5.137228,3.567096,161.1,-146.1,-24.300001,,x,,,,
438398,-4.0476336,8.778944,-0.58558196,0.80793196,-6.623518,4.5427117,146.70001,-150.90001,-15.3,,x,,,,
438438,-3.1659708,7.3529716,-0.9636083,3.376546,-7.256144,3.384168,146.70001,-155.70001,-14.1,,x,,,,
438476,-2.0576117,6.7835393,-1.4947593,4.847592,-11.570196,3.6661818,151.5,-158.1,-20.7,,x,,,,
438516,-1.3159145,5.7212377,-1.1143403,4.03966,-12.69063,4.30643,144.3,-153.3,-19.5,,x,,,,
438536,-0.8798683,5.706882,-1.7178667,3.1936178,-10.571713,3.574718,132.3,-146.1,-18.900002,,x,,,,
438556,-0.8487649,3.6582425,-2.8094776,4.23021,-5.632658,1.074702,137.1,-155.70001,-19.5,,x,,,,
438596,2.3895812,7.6951094,-5.832492,5.076252,-9.763782,7.3933396,115.50001,-158.1,-15.900001,,x,,,,
438616,2.5127985,8.193362,-5.7541356,5.343022,-8.04121,5.838452,127.50001,-158.1,-18.300001,,x,,,,
438637,2.531341,9.213196,-8.408095,6.951264,-0.30488,3.399412,129.90001,-150.90001,-12.3,,x,,,,
438657,2.4649472,10.846127,-10.020091,5.0838737,1.1051899,3.140264,108.3,-150.90001,-16.5,,x,,,,
438718,2.5385187,11.048897,-9.72102,-1.5244,-5.86894,0.960372,115.50001,-146.1,-18.300001,,x,,,,
438769,1.3799158,9.771263,-9.476977,-1.41007,2.8048959,-1.6234859,110.700005,-150.90001,-14.700001,,x,,,,
438789,1.6855669,10.925081,-8.826796,-2.995446,1.303362,-0.830798,105.9,-155.70001,-18.300001,,x,,,,
438831,0.34991363,9.994969,-7.8859167,-3.7347798,6.59303,-3.7805119,120.3,-162.90001,-14.1,,x,,,,
438851,0.051440295,9.532604,-7.5982103,-4.870458,5.152472,-2.995446,122.700005,-155.70001,-14.700001,,x,,,,
438911,-1.1388642,8.059977,-5.066271,-5.10674,5.434486,-2.149404,125.100006,-153.3,-15.900001,,x,,,,
438973,-1.5432088,6.811054,-4.015932,-3.018312,5.243936,-1.280496,134.70001,-153.3,-23.7,,x,,,,
439037,-1.0353855,7.3816824,-2.0629952,-3.955818,7.3476076,-1.455802,134.70001,-158.1,-15.900001,,x,,,,
439371,0.652574,8.605483,-2.0097604,-1.554888,2.157026,-0.586894,141.90001,-143.70001,-20.1,,x,,,,
439391,0.4761218,8.079117,-2.5953424,-1.1432999,1.6387299,-0.022866,141.90001,-158.1,-26.7,,x,,,,
439431,0.9390845,9.75631,-2.317804,-0.068598,-1.044214,1.455802,144.3,-155.70001,-18.900002,,x,,,,
439454,0.6753034,8.650344,-2.0546212,-0.594516,-0.69360197,0.030488,132.3,-165.3,-23.1,,x,,,,
439474,0.5484971,8.789711,-1.8482618,-0.396344,-1.6006199,0.830798,146.70001,-160.5,-28.500002,,x,,,,
439494,0.5790024,9.786816,-1.6855669,-0.17530599,-1.303362,1.1128119,134.70001,-150.90001,-25.500002,,,,,,
439514,0.1794429,10.541672,-1.9463573,-0.35061198,0.007622,0.3811,129.90001,-146.1,-25.500002,,,,,,
439536,0.080151156,10.495615,-2.3877866,0.243904,0.53354,-0.64787,137.1,-165.3,-24.300001,,,,,,
439556,-0.3786245,9.894481,-2.5092099,0.632626,-0.426832,-1.006104,127.50001,-138.90001,-20.7,,,,,,
439616,-1.6765947,8.6652975,-2.393768,0.891774,-0.884152,-0.731712,144.3,-150.90001,-26.1,,,,,,
439637,-1.8901318,8.294449,-2.5014338,0.33536798,-0.35061198,-0.35061198,149.1,-165.3,-21.300001,,,,,,
439657,-1.7776809,8.463723,-2.9823408,0.518296,0.182928,0.053354,137.1,-160.5,-21.300001,,,,,,
439677,-1.5958455,8.865077,-2.932097,0.45731997,-1.06708,0.19055,129.90001,-165.3,-24.300001,,,,,,
439697,-1.4427209,9.325048,-2.5833795,0.221038,-1.318606,0.045732,134.70001,-148.5,-20.7,,,,,,
439717,-1.5653402,8.806459,-2.6168754,-0.07622,-0.251526,-0.60976,149.1,-141.3,-29.1,,,,,,
439739,-1.6347247,8.207718,-2.6850638,-0.160062,-0.45731997,-0.373478,151.5,-158.1,-16.5,,,,,,
439760,-1.7202592,8.306412,-2.2735415,-0.373478,-0.30488,0.541162,134.70001,-150.90001,-20.1,,,,,,
439781,-1.8069899,8.81603,-2.8262255,-0.22865999,1.1280559,0.358234,144.3,-153.3,-17.7,,,,,,
439801,-1.940974,8.537892,-3.3376377,0.221038,1.250008,-0.221038,151.5,-155.70001,-20.7,,,,,,
439823,-1.6287433,8.547463,-3.4351351,0.480186,-0.045732,0.015244,139.5,-170.1,-26.7,,,,,,
439844,-1.3434291,9.048707,-3.0983806,0.525918,-0.57164997,0.251526,151.5,-150.90001,-14.1,,,,,,
439864,-1.4666466,9.206018,-3.2592812,0.426832,0.754578,-0.106708,132.3,-158.1,-22.5,,,,,,
439924,-0.68128484,9.072633,-3.3645542,-0.15244,-0.625004,-0.594516,139.5,-150.90001,-27.300001,,,,,,
439944,-0.26138848,9.283179,-3.1492229,-0.274392,0.30488,-0.480186,137.1,-150.90001,-21.300001,,,,,,
439967,0.12740445,9.80476,-3.2186074,-0.53354,1.303362,-0.716468,139.5,-153.3,-21.300001,,,,,,
439987,0.31223062,9.93336,-3.4799957,-0.297258,2.461906,-1.1128119,139.5,-141.3,-24.900002,,,,,,
440010,-0.031103434,8.937452,-3.4494905,-0.327746,2.004586,-1.509156,137.1,-155.70001,-16.5,,,,,,
440030,-0.11544159,8.675466,-3.381302,-0.11432999,2.157026,-1.06708,139.5,-153.3,-26.7,,,,,,
440052,-0.18482618,8.888405,-3.4506867,-0.068598,2.141782,-0.92226195,141.90001,-155.70001,-23.1,,,,,,
440072,-0.22011662,9.01222,-3.4034336,-0.198172,1.8292799,-0.967994,149.1,-150.90001,-12.900001,,,,,,
440094,-0.34752107,8.947022,-3.2198036,-0.396344,1.806414,-1.158544,144.3,-153.3,-20.1,,,,,,
440154,-0.7201641,9.210205,-2.639605,-0.449698,2.17227,-1.1280559,146.70001,-150.90001,-13.500001,,,,,,
440174,-0.91994387,8.922499,-2.6348197,-0.3811,2.32471,-1.25763,146.70001,-146.1,-16.5,,,,,,
440194,-1.183725,8.56122,-2.723345,0.160062,1.570132,-0.7622,151.5,-146.1,-21.300001,,,,,,
440216,-1.317709,9.080408,-2.2268863,0.731712,-0.510674,0.182928,137.1,-148.5,-15.900001,,,,,,
440236,-1.4008509,10.593112,-1.4672447,0.28201398,-1.29574,0.525918,151.5,-150.90001,-18.900002,,,,,,
440256,-2.7030082,9.912425,-1.2854092,-0.312502,1.189032,-1.006104,151.5,-141.3,-21.300001,,,,,,
440276,-3.8508444,9.003846,-1.8721875,-0.442076,1.21952,-0.480186,158.70001,-167.70001,-18.300001,,x,,,,
440341,-4.472315,9.285571,-1.5976399,0.3811,-6.265284,2.080806,146.70001,-148.5,-18.300001,,x,,,,
440361,-4.243226,8.595314,-1.6873614,1.234764,-10.17537,2.09605,144.3,-158.1,-22.5,,x,,,,
440381,-3.016435,8.778944,-1.8650098,2.888738,-13.056486,3.025934,149.1,-143.70001,-14.700001,,x,,,,
440402,-2.715569,8.376992,-1.786653,3.635694,-15.457416,2.827762,149.1,-153.3,-15.900001,,x,,,,
440422,-2.2956727,6.9522157,-1.8422804,3.96344,-16.829376,2.431418,149.1,-141.3,-24.900002,,x,,,,
440482,-0.3493155,3.7706933,-2.8968065,4.984788,-12.743983,3.8262439,132.3,-150.90001,-20.7,,x,,,,
440518,1.4666466,5.740378,-2.1652775,5.22107,-9.900978,5.746988,127.50001,-158.1,-19.5,,x,,,,
440538,0.79553014,6.2565756,-4.472315,6.51681,-0.632626,4.428382,127.50001,-153.3,-17.7,,x,,,,
440575,1.9654979,9.559521,-8.048612,5.29729,-1.8673899,3.155508,120.3,-155.70001,-19.5,,x,,,,
440596,1.5204794,9.535595,-6.9264956,2.599102,-5.9375377,1.41007,125.100006,-148.5,-16.5,,x,,,,
440636,2.3285706,12.301409,-9.776049,3.2393498,2.7820299,1.669218,117.9,-162.90001,-15.900001,,x,,,,
440656,2.6617362,11.425727,-10.040428,1.25763,-1.189032,-0.373478,113.100006,-160.5,-15.3,,x,,,,
440678,2.4206846,11.483747,-8.881825,0.068598,-2.576236,0.35061198,110.700005,-158.1,-20.1,,x,,,,
440698,2.1443427,11.950298,-8.739467,-0.015244,0.960372,-0.297258,91.5,-153.3,-15.900001,,x,,,,
440758,0.8643166,10.0799055,-8.726906,-2.500016,6.219552,-3.2698379,105.9,-148.5,-17.7,,x,,,,
440778,0.6830793,10.216282,-8.131156,-3.589962,6.6006517,-3.39179,105.9,-158.1,-11.1,,x,,,,
440798,0.07775859,10.157664,-7.3601494,-5.015276,8.658592,-3.955818,108.3,-162.90001,-18.300001,,x,,,,
440818,-0.48629025,9.037342,-7.2566705,-5.4878397,10.503116,-4.093014,132.3,-165.3,-23.7,,x,,,,
440838,-1.225595,7.815934,-6.8248115,-6.311016,8.247004,-3.2164838,122.700005,-162.90001,-21.900002,,x,,,,
440858,-1.0072727,7.1938653,-5.360557,-6.905532,3.6661818,-1.730194,120.3,-160.5,-17.7,,x,,,,
440878,0.09689916,7.571892,-3.0738568,-7.522914,0.861286,-0.792688,125.100006,-158.1,-22.5,,x,,,,
440939,0.013159146,6.450972,-3.5248566,-3.368924,10.998546,-0.891774,117.9,-153.3,-18.900002,,x,,,,
440959,0.55986184,7.170538,-2.526556,-2.2865999,6.32626,-0.754578,103.50001,-155.70001,-22.5,,x,,,,
440979,0.80749303,7.325457,-1.1472383,-2.7515419,6.5701637,-1.737816,129.90001,-148.5,-16.5,,x,,,,
440999,0.6059188,7.204034,-1.8799634,-2.347576,11.859832,-2.568614,132.3,-155.70001,-21.900002,,x,,,,
441060,0.96420646,8.652138,-2.3883848,-0.663114,3.7728899,-2.980202,132.3,-155.70001,-23.7,,x,,,,
441082,0.73990285,7.9002724,-1.4050379,-1.6311079,4.596066,-4.352162,132.3,-155.70001,-14.1,,x,,,,
441102,-0.025720147,7.1669493,-1.9397776,-1.585376,7.759196,-4.161612,137.1,-148.5,-18.900002,,x,,,,
441123,-1.2566984,7.4684134,-2.6629324,-1.021348,5.64028,-3.1783738,149.1,-148.5,-16.5,,x,,,,
441163,-1.6251545,8.817225,-1.6981279,-2.2027578,4.1921,-1.669218,156.3,-160.5,-18.900002,,x,,,,
441184,-1.7220536,9.000855,-2.627044,-1.417692,5.5335717,-1.554888,125.100006,-146.1,-17.1,,x,,,,
441204,-2.162885,8.378787,-2.3225892,-1.326228,2.7744079,-1.989342,156.3,-141.3,-23.1,,x,,,,
441224,-2.354889,8.813637,-1.602425,-1.189032,1.189032,-1.722572,151.5,-146.1,-16.5,,x,,,,
441244,-2.091706,10.780331,-1.9989938,-0.57164997,2.903982,-1.227142,141.90001,-150.90001,-25.500002,,x,,,,
441264,-2.3800108,11.324641,-2.5624444,-0.53354,2.964958,-2.378064,144.3,-153.3,-17.7,,x,,,,
441285,-2.5014338,10.667282,-2.782561,-0.198172,0.891774,-2.47715,139.5,-134.1,-18.300001,,,,,,
441305,-2.6719046,10.497409,-2.2221012,-0.30488,-0.525918,-1.8292799,151.5,-141.3,-20.7,,,,,,
441345,-2.7849536,9.560119,-2.2526064,-0.708846,0.099086,-1.318606,156.3,-136.5,-15.900001,,,,,,
441365,-2.5163875,9.228748,-2.4464047,-0.480186,0.182928,-0.94512796,165.90001,-146.1,-24.900002,,,,,,
441385,-1.9672922,8.72571,-2.3285706,-0.091464,-0.777444,-0.213416,173.1,-148.5,-19.5,,,,,,
441405,-1.0880221,9.281384,-1.6161823,-0.327746,-1.3490939,0.7622,153.90001,-153.3,-20.7,,,,,,
441425,-0.26796806,10.041026,-1.443319,-0.34298998,0.35061198,0.487808,151.5,-153.3,-21.900002,,,,,,
441445,-0.3451285,9.217383,-1.7609329,-0.41158798,2.614346,-0.907018,161.1,-150.90001,-8.700001,,,,,,
441465,-0.4874865,8.321963,-2.242438,0.106708,2.606724,-0.92988396,144.3,-146.1,-12.900001,,,,,,
441486,-0.47492552,8.33572,-2.4153013,0.64787,1.417692,-0.213416,144.3,-143.70001,-15.900001,,,,,,
441506,-0.41391495,8.932667,-2.577398,0.92988396,0.861286,0.144818,156.3,-146.1,-16.5,,,,,,
441526,-0.39417621,9.116895,-2.9608078,1.1356779,0.625004,-0.19055,163.5,-148.5,-14.700001,,,,,,
441586,-0.3702505,9.206018,-2.9769576,0.442076,-0.586894,-0.449698,153.90001,-153.3,-12.3,,,,,,
441607,-0.5861801,9.095961,-3.0553143,0.320124,-0.221038,-0.602138,163.5,-150.90001,-20.1,,,,,,
441628,-0.62565756,9.080408,-3.0678754,0.19055,-0.388722,-0.49543,161.1,-141.3,-12.3,,,,,,
441648,-0.36008206,9.3890505,-2.7951221,0.160062,-0.868908,-0.19055,156.3,-148.5,-25.500002,,,,,,
441668,-0.124413736,9.557128,-2.129389,-0.289636,-1.059458,0.030488,170.70001,-148.5,-20.7,,x,,,,
441688,-0.8415872,9.543371,-1.326083,-1.3567159,0.144818,-0.106708,151.5,-146.1,-15.900001,,x,,,,
441708,-1.987629,8.787916,-1.7986159,-1.318606,4.4207597,-0.41921,146.70001,-153.3,-15.900001,,x,,,,
441728,-2.6449883,9.56969,-2.6509697,-0.83842,3.498498,0.70122397,151.5,-146.1,-17.1,,x,,,,
441750,-3.6426907,10.063157,-1.66523,-0.868908,0.083841994,0.69360197,161.1,-146.1,-19.5,,x,,,,
441770,-3.8053856,10.630197,-1.7938308,-0.388722,0.373478,1.1432999,156.3,-134.1,-15.900001,,x,,,,
441790,-4.042848,10.008128,-1.7047075,-0.45731997,-1.006104,1.3414719,151.5,-148.5,-13.500001,,x,,,,
441810,-4.865893,8.934462,-1.0425632,-1.21952,-2.370442,2.126538,158.70001,-153.3,-19.5,,x,,,,
441830,-4.4184823,9.844835,-1.5456015,-0.35061198,-1.3414719,3.62045,151.5,-155.70001,-17.7,,x,,,,
441850,-3.9764545,10.0799055,-2.0241158,0.053354,-3.574718,3.033556,134.70001,-138.90001,-18.300001,,x,,,,
441890,-4.1026626,7.1430235,-1.9475535,1.089946,-7.5610237,2.408552,151.5,-155.70001,-20.7,,x,,,,
441910,-3.3878818,6.2924643,-2.2328677,2.103672,-10.762263,3.407034,141.90001,-167.70001,-20.7,,x,,,,
441995,-0.12979703,4.9699697,-2.0534248,3.856732,-10.221102,5.94516,122.700005,-162.90001,-14.700001,,x,,,,
442015,1.5623494,5.454466,-3.1408486,4.9619217,-10.548848,6.0976,125.100006,-155.70001,-16.5,,x,,,,
442036,1.7005205,5.785837,-2.6138847,4.5122237,-12.477214,5.94516,120.3,-155.70001,-14.1,,x,,,,
442076,3.0511272,8.047416,-4.861108,7.149436,-4.710396,6.760714,110.700005,-160.5,-20.1,,x,,,,
442097,2.8345995,9.052296,-5.9335785,5.5335717,-4.397894,4.61131,91.5,-155.70001,-18.300001,,x,,,,
442137,2.8214405,10.889193,-8.239419,4.756128,-0.53354,4.969544,89.100006,-158.1,-19.5,,x,,,,
442157,3.1534097,11.27021,-8.932667,4.298808,0.41921,4.413138,103.50001,-155.70001,-10.5,,x,,,,
442177,3.7246363,10.649338,-9.884313,4.329296,-0.106708,2.423796,96.3,-155.70001,-17.7,,x,,,,
442199,3.7365992,12.489823,-9.968053,1.3719599,-2.2865999,2.2789779,79.5,-160.5,-15.900001,,x,,,,
442239,2.8459642,11.587824,-10.578756,1.501534,3.7119138,-2.652456,93.9,-150.90001,-11.700001,,x,,,,
442262,2.9189377,11.477765,-11.332417,0.442076,3.597584,-2.32471,98.700005,-155.70001,-8.1,,x,,,,
442282,2.8722825,11.581244,-10.187572,-2.141782,0.56402797,-2.500016,98.700005,-162.90001,-12.900001,,x,,,,
442304,2.1389592,10.54526,-8.597707,-3.955818,0.785066,-3.2088618,96.3,-153.3,-20.1,,x,,,,
442324,1.7280351,9.298731,-7.736381,-4.352162,5.853696,-2.987824,101.100006,-155.70001,-15.900001,,x,,,,
442348,1.878169,9.817321,-8.3423,-5.617414,8.826276,-2.32471,105.9,-150.90001,-17.7,,x,,,,
442368,1.083835,8.205923,-7.6532393,-6.280528,5.960404,-3.147886,98.700005,-162.90001,-21.300001,,x,,,,
442388,1.07905,7.455852,-6.0938807,-6.8598,0.594516,-2.7896519,96.3,-165.3,-12.3,,x,,,,
442408,1.5342367,7.008441,-3.8376853,-6.9741297,-2.8048959,-2.461906,105.9,-162.90001,-20.1,,x,,,,
442429,1.4756187,6.479683,-1.7035112,-7.256144,-0.34298998,-2.911604,96.3,-158.1,-20.7,,x,,,,
442489,0.0765623,5.886325,-3.1569986,-3.079288,5.5793037,-2.919226,115.50001,-165.3,-17.7,,x,,,,
442509,0.046655152,6.307418,-1.6939409,-3.064044,2.7058098,-2.995446,113.100006,-155.70001,-17.7,,x,,,,
442532,-0.1740596,6.5562453,-0.9450659,-2.484772,5.14485,-3.437522,117.9,-158.1,-23.7,,x,,,,
442592,0.13817103,8.435012,0.36247465,-4.108258,5.0381417,-3.2088618,120.3,-162.90001,-19.5,,x,,,,
442755,-1.753157,9.549951,-1.5115073,-1.41007,3.96344,-2.484772,141.90001,-150.90001,-21.300001,,x,,,,
442854,-2.7927296,9.548156,-1.9373851,-0.19055,-0.221038,-1.074702,151.5,-153.3,-27.300001,,x,,,,
442874,-2.6665213,9.585839,-1.6389117,-0.518296,-0.57164997,-0.22865999,139.5,-150.90001,-27.300001,,x,,,,
442915,-2.3405335,9.165943,-2.1820257,-0.289636,-0.47256398,0.69360197,153.90001,-148.5,-21.900002,,x,,,,
442935,-1.908076,9.067847,-2.0324898,0.297258,-2.004586,1.3872039,134.70001,-155.70001,-20.1,,x,,,,
442977,-1.4241784,8.906947,-1.8991039,0.87653,-1.48629,1.79117,137.1,-148.5,-17.1,,x,,,,
443017,-1.602425,8.914722,-2.250812,1.318606,-1.3414719,1.6158639,149.1,-155.70001,-19.5,,x,,,,
443081,-1.2208098,9.440491,-2.6713066,1.996964,-2.538126,1.547266,129.90001,-153.3,-24.900002,,x,,,,
443101,-1.0186375,9.211402,-2.7030082,1.8978779,-2.416174,1.211898,137.1,-158.1,-11.1,,x,,,,
443121,-0.6597517,9.086988,-2.883049,1.935988,-1.56251,1.211898,120.3,-158.1,-19.5,,x,,,,
443161,0.5933578,10.170823,-3.4494905,1.3948259,-2.7210538,1.501534,127.50001,-155.70001,-18.300001,,x,,,,
443181,1.1221162,9.486547,-2.8351977,0.541162,-2.355198,1.173788,134.70001,-172.5,-23.1,,x,,,,
443245,2.1180243,9.340601,-3.183317,0.007622,-0.388722,0.510674,129.90001,-160.5,-23.1,,,,,,
443271,2.339337,9.465014,-2.8686936,-0.121952,-0.518296,0.289636,117.9,-167.70001,-18.900002,,,,,,
443291,2.3058412,9.38606,-2.7975147,-0.137196,-0.26677,0.106708,129.90001,-160.5,-19.5,,,,,,
443335,1.8811597,9.012818,-2.994902,-0.396344,0.754578,-0.19055,125.100006,-155.70001,-13.500001,,,,,,
443355,1.7298294,8.547463,-2.8441699,-0.510674,0.769822,-0.22865999,117.9,-160.5,-19.5,,,,,,
443375,1.9176464,8.591725,-2.7670095,-0.41158798,1.082324,0.160062,113.100006,-158.1,-20.7,,,,,,
443399,1.8452711,8.41946,-2.7329152,-0.53354,1.3719599,0.03811,108.3,-155.70001,-14.1,,,,,,
443419,1.908076,8.598305,-2.6982229,-0.26677,1.036592,-0.007622,134.70001,-160.5,-21.900002,,,,,,
443459,1.8506544,8.28428,-2.551678,-0.41921,0.792688,-0.297258,122.700005,-158.1,-16.5,,,,,,
443479,1.5659384,8.123978,-2.5050228,-0.358234,0.853664,-0.28201398,120.3,-148.5,-14.1,,,,,,
443499,1.6753985,9.31189,-2.7879443,0.022866,0.899396,0.015244,115.50001,-165.3,-18.900002,,,,,,
443523,1.4110193,8.933266,-2.789739,-0.160062,0.449698,-1.089946,115.50001,-162.90001,-17.1,,,,,,
443543,1.0718722,9.107325,-2.6742973,-0.15244,0.045732,-0.632626,122.700005,-158.1,-15.900001,,,,,,
443563,0.76981,9.304712,-2.70241,-0.259148,0.442076,-0.320124,127.50001,-165.3,-17.7,,,,,,
443624,-0.34453034,8.746046,-2.7670095,0.015244,0.663114,-1.272874,115.50001,-158.1,-21.300001,,,,,,
443644,-0.78655803,9.542773,-3.032585,0.594516,0.541162,-0.289636,120.3,-150.90001,-17.1,,,,,,
443704,-2.179035,8.095267,-3.9351826,0.632626,0.731712,0.007622,125.100006,-146.1,-15.900001,,,,,,
443724,-1.6389117,8.824403,-3.8957052,0.503052,-2.042696,1.3795819,129.90001,-158.1,-18.900002,,,,,,
443744,-0.9492529,10.042821,-3.1581948,-0.060976,-3.2241058,1.1432999,132.3,-162.90001,-19.5,,,,,,
443767,-0.732127,9.986595,-3.1019695,-0.55640596,-1.33385,-0.541162,134.70001,-150.90001,-18.300001,,,,,,
443787,-0.5778061,9.269422,-3.0804362,-1.089946,-1.478668,-1.204276,129.90001,-146.1,-16.5,,,,,,
443807,-0.4761218,8.922499,-2.6886528,-1.3643379,-1.67684,-1.29574,129.90001,-162.90001,-18.300001,,,,,,
443827,-0.38221335,8.469705,-1.9595164,-1.8673899,-1.158544,-0.975616,129.90001,-158.1,-18.900002,,,,,,
443849,-0.5126085,7.978629,-1.631136,-1.684462,1.6539739,-1.280496,139.5,-162.90001,-15.3,,,,,,
443869,-0.4982531,8.38716,-2.3961608,-0.274392,2.47715,-0.94512796,132.3,-160.5,-23.7,,,,,,
443931,-0.13338588,8.723915,-2.246625,0.289636,1.06708,-0.983238,127.50001,-148.5,-17.7,,,,,,
443951,0.09749731,9.550549,-2.597735,0.55640596,1.242386,-0.640248,137.1,-146.1,-15.3,,,,,,
443971,0.30266035,10.2204685,-2.8022997,0.41921,1.6311079,-1.051836,149.1,-150.90001,-23.1,,,,,,
443994,0.117834166,9.641466,-2.7921314,-0.160062,1.288118,-1.9054999,132.3,-150.90001,-15.3,,,,,,
444055,-0.17645217,9.409387,-3.0188277,0.60976,2.2332458,-1.051836,127.50001,-146.1,-14.700001,,x,,,,
444079,-0.5778061,9.292151,-3.091203,0.625004,1.532022,-1.6539739,129.90001,-155.70001,-12.3,,x,,,,
444099,-0.85235375,9.301722,-2.8328052,0.83842,1.310984,-1.6082419,139.5,-162.90001,-19.5,,x,,,,
444121,-1.5952473,9.201832,-2.5217707,0.625004,1.3719599,-1.326228,134.70001,-153.3,-10.5,,x,,,,
444161,-2.60252,10.444175,-2.4703305,0.297258,-0.846042,0.746956,146.70001,-138.90001,-9.900001,,x,,,,
444181,-3.2748327,10.194749,-0.9558325,-1.310984,-3.1783738,0.53354,144.3,-146.1,-14.700001,,x,,,,
444205,-4.3108163,8.906349,-0.6053207,-0.960372,-0.95274997,0.846042,137.1,-146.1,-11.700001,,x,,,,
444225,-4.1068497,9.116895,-1.527059,0.434454,-4.024416,3.170752,132.3,-160.5,-17.1,,x,,,,
444245,-3.7270288,9.220972,-1.2806242,0.785066,-5.975648,3.6585598,125.100006,-141.3,-22.5,,x,,,,
444285,-2.0175362,8.612062,-1.0168431,1.3490939,-10.266833,3.88722,120.3,-146.1,-18.900002,,x,,,,
444307,-1.827925,5.06986,-1.1280977,2.423796,-11.20434,3.35368,120.3,-174.90001,-14.1,,x,,,,
444387,-0.62805015,6.0089445,-3.3496006,1.44818,-9.939088,1.493912,125.100006,-162.90001,-18.300001,,x,,,,
444552,4.3610606,12.415653,-11.298921,2.2637339,1.1432999,2.454284,98.700005,-158.1,-13.500001,,x,,,,
444592,3.790432,11.869549,-8.5360985,-1.250008,-1.8445239,0.15244,96.3,-160.5,-21.300001,,x,,,,
444612,3.1360636,11.252864,-8.933266,-0.015244,5.9527817,-0.868908,91.5,-162.90001,-13.500001,,x,,,,
444653,2.5785944,11.403596,-9.136036,-2.835384,5.3658876,-3.650938,89.100006,-158.1,-12.900001,,x,,,,
444695,0.47851437,9.061268,-7.6335006,-4.291186,9.283596,-3.16313,98.700005,-170.1,-20.1,,x,,,,
444715,-0.057421725,8.496023,-7.0604796,-4.771372,6.44059,-2.89636,105.9,-158.1,-24.900002,,x,,,,
444735,0.04426258,7.644267,-5.3234725,-5.304912,2.2408679,-2.423796,105.9,-158.1,-15.3,,x,,,,
444775,0.062206868,7.092779,-3.0606976,-3.16313,7.3628516,-1.6158639,110.700005,-165.3,-16.5,,x,,,,
444799,0.27215505,6.937262,-3.1910927,-2.652456,7.5915117,-2.461906,115.50001,-165.3,-22.5,,x,,,,
444819,0.59933925,7.3081107,-2.7018118,-2.6905658,5.9375377,-2.614346,113.100006,-160.5,-14.700001,,x,,,,
444839,0.15551718,7.297942,-1.8674023,-3.056422,7.225656,-3.323192,120.3,-158.1,-21.300001,,x,,,,
444859,-0.21174261,6.3163896,-2.385394,-2.126538,10.228724,-3.932952,122.700005,-167.70001,-20.7,,x,,,,
444879,-0.14534874,6.9964786,-2.3142152,-1.71495,6.234796,-2.583858,113.100006,-150.90001,-23.1,,x,,,,
444899,0.09031959,7.1184993,-1.6478839,-1.8445239,5.541194,-2.6905658,117.9,-167.70001,-15.900001,,x,,,,
444919,0.16927446,7.3039236,-1.5671346,-1.745438,5.846074,-2.492394,120.3,-170.1,-20.1,,x,,,,
444939,0.4940661,8.04921,-1.5731161,-2.149404,5.9375377,-1.8521459,113.100006,-153.3,-14.700001,,x,,,,
445023,-0.20695747,8.444583,-2.1054633,-1.9054999,6.204308,-2.843006,122.700005,-150.90001,-19.5,,x,,,,
445047,-0.2129389,8.64496,-1.4325525,-1.775926,3.12502,-2.6829438,137.1,-160.5,-20.7,,x,,,,
445067,-0.48569208,8.522939,-0.8589333,-1.974098,2.995446,-2.530504,129.90001,-143.70001,-19.5,,x,,,,
445087,-0.64659256,8.953004,-1.4714317,-1.463424,5.160094,-2.32471,139.5,-165.3,-16.5,,x,,,,
445127,-1.0886202,10.067943,-2.949443,0.53354,2.7896519,-1.745438,129.90001,-141.3,-20.7,,x,,,,
445147,-1.0240208,10.722909,-2.3315613,-0.045732,0.23628199,-2.103672,149.1,-167.70001,-16.5,,x,,,,
445170,-1.3541957,10.017698,-1.7435868,-0.7622,1.06708,-3.2469718,137.1,-155.70001,-16.5,,,,,,
445190,-1.27225,10.061363,-2.0606024,-0.92988396,2.027452,-2.850628,129.90001,-155.70001,-10.5,,,,,,
445210,-1.2985684,10.21688,-1.8524488,-1.204276,1.577754,-2.7820299,139.5,-155.70001,-15.900001,,,,,,
445250,-1.3111295,9.122278,-1.8668042,-0.861286,2.560992,-2.301844,139.5,-158.1,-21.900002,,,,,,
445272,-1.510311,8.851319,-2.0821357,0.35061198,2.7210538,-1.242386,137.1,-155.70001,-21.300001,,,,,,
445335,-0.8272317,8.966762,-2.681475,1.318606,0.34298998,0.792688,146.70001,-141.3,-18.300001,,,,,,
445373,-0.25301448,9.253272,-2.8340013,0.83842,-0.777444,0.57164997,146.70001,-146.1,-11.700001,,,,,,
445393,-0.2601922,9.093568,-2.9859297,0.586894,-0.91463995,0.11432999,129.90001,-153.3,-16.5,,,,,,
445433,-0.14654502,9.110315,-2.705999,0.297258,-1.5929979,0.0,141.90001,-153.3,-20.1,,x,,,,
445457,-0.4163075,8.993678,-2.895012,0.091464,-0.92226195,-0.221038,141.90001,-148.5,-17.7,,x,,,,
445478,-0.50842154,9.165943,-2.920732,0.213416,-1.44818,-0.137196,153.90001,-141.3,-14.700001,,x,,,,
445500,-0.84457785,9.108521,-2.3818054,-0.091464,-1.6234859,0.17530599,137.1,-138.90001,-14.1,,x,,,,
445556,-1.8578321,9.661205,-1.9439646,-0.312502,-0.998482,0.274392,144.3,-153.3,-28.500002,,x,,,,
445576,-2.5971367,10.236021,-2.213129,-0.198172,-0.785066,0.716468,146.70001,-148.5,-18.900002,,x,,,,
445616,-4.30005,9.289759,-0.8463723,-1.310984,-3.7881339,0.83842,139.5,-155.70001,-10.5,,x,,,,
445636,-5.2612658,9.133045,-0.8852516,-0.602138,-0.87653,2.027452,139.5,-146.1,-16.5,,x,,,,
445680,-3.509903,8.988295,-2.6742973,1.455802,-10.02293,4.146368,144.3,-162.90001,-14.1,,x,,,,
445854,0.9145606,3.3089268,-4.572205,6.0137577,-4.222588,3.6738038,129.90001,-170.1,-15.3,,x,,,,
445874,2.857927,7.8105507,-6.3415117,6.798824,-6.760714,8.704324,105.9,-158.1,-18.900002,,x,,,,
445917,2.4942563,8.686233,-6.2117147,3.7957559,-4.45887,3.4299,101.100006,-150.90001,-18.300001,,x,,,,
445937,2.9763594,9.753918,-7.483965,4.908568,-1.082324,4.786616,115.50001,-165.3,-14.700001,,x,,,,
445957,4.632019,12.336699,-10.244394,4.4969797,-0.22865999,4.070148,101.100006,-148.5,-11.1,,x,,,,
445977,4.7935176,12.3043995,-9.999754,2.035074,-4.5274677,1.1356779,105.9,-160.5,-13.500001,,x,,,,
445998,4.2952647,11.7858095,-8.804665,0.70122397,-4.61131,0.449698,96.3,-150.90001,-12.3,,x,,,,
446018,3.8861349,11.874932,-8.8579,-0.007622,1.661596,0.17530599,93.9,-150.90001,-11.700001,,x,,,,
446038,4.096681,12.396513,-9.851415,-0.731712,4.83997,-1.173788,93.9,-155.70001,-12.900001,,x,,,,
446058,3.2329628,11.153572,-9.285571,-2.7134318,3.879598,-3.6890478,91.5,-158.1,-15.900001,,x,,,,
446078,2.3985534,10.131944,-8.517556,-3.7424018,5.190582,-3.917708,101.100006,-148.5,-12.3,,x,,,,
446098,1.7848586,9.663598,-8.249588,-3.7576458,6.66925,-3.041178,101.100006,-150.90001,-13.500001,,x,,,,
446158,0.68367743,8.70298,-6.901972,-3.368924,7.85066,-3.003068,105.9,-160.5,-19.5,,x,,,,
446213,0.5299547,7.6963058,-5.1105337,-4.390272,1.310984,-2.599102,117.9,-160.5,-12.900001,,x,,,,
446233,0.5455064,7.9140296,-3.5493803,-4.9924097,2.339954,-2.949714,113.100006,-153.3,-13.500001,,x,,,,
446273,-0.31821206,6.492244,-3.869985,-3.84911,7.6067557,-3.643316,115.50001,-150.90001,-17.1,,x,,,,
446293,0.24284604,6.97016,-3.4136019,-3.856732,3.08691,-2.987824,115.50001,-141.3,-14.1,,x,,,,
446313,0.5652451,6.919916,-1.4044397,-5.190582,0.26677,-3.1859958,129.90001,-155.70001,-22.5,,x,,,,
446333,0.2536126,6.923505,-0.5209825,-4.794238,5.83083,-3.2317278,117.9,-158.1,-19.5,,x,,,,
446353,0.03229972,6.8415594,-2.1664739,-3.7119138,11.059522,-3.50612,134.70001,-155.70001,-12.3,,x,,,,
446373,-0.0807493,6.894196,-2.8920212,-2.6829438,7.286632,-3.056422,132.3,-158.1,-20.1,,x,,,,
446393,0.27454764,7.1597714,-1.6861651,-2.012208,3.079288,-2.484772,122.700005,-153.3,-15.900001,,x,,,,
446456,-0.42946666,7.54677,-1.865608,-2.118916,6.5244317,-3.422278,134.70001,-150.90001,-18.300001,,x,,,,
446476,-0.8685036,7.555144,-1.6365192,-1.585376,3.993928,-3.2469718,139.5,-153.3,-19.5,,x,,,,
446496,-1.2788297,7.9636755,-1.4929649,-1.204276,3.6585598,-3.16313,151.5,-153.3,-13.500001,,x,,,,
446516,-1.907478,8.497219,-1.9248241,-0.769822,4.474114,-3.094532,134.70001,-150.90001,-20.7,,x,,,,
446536,-1.4923667,10.2635355,-2.7179615,-0.297258,3.955818,-2.05794,141.90001,-150.90001,-12.3,,x,,,,
446556,-1.3990564,10.47468,-2.2645693,-0.708846,1.318606,-2.614346,132.3,-150.90001,-18.300001,,x,,,,
446576,-2.0031807,9.783825,-1.5133017,-0.998482,0.67835796,-2.6981878,146.70001,-138.90001,-17.7,,x,,,,
446596,-1.9768625,9.783825,-1.795027,-1.051836,2.408552,-2.050318,144.3,-136.5,-23.1,,x,,,,
446636,-1.6939409,10.095457,-1.9038891,-0.35061198,1.4024479,-1.707328,146.70001,-143.70001,-19.5,,x,,,,
446656,-1.8590283,10.237815,-1.9924142,-0.007622,1.8902559,-1.71495,161.1,-158.1,-12.900001,,x,,,,
446676,-2.146137,10.233628,-2.4027402,0.11432999,2.2789779,-1.56251,146.70001,-153.3,-20.7,,x,,,,
446696,-2.3495057,10.000951,-2.6216607,-0.022866,1.280496,-1.71495,156.3,-141.3,-25.500002,,x,,,,
446716,-2.3614686,9.27959,-2.5594537,0.20579399,0.16768399,-1.6463519,149.1,-143.70001,-18.900002,,x,,,,
446736,-2.1198187,9.178504,-2.4344418,0.396344,-0.480186,-0.891774,144.3,-143.70001,-15.900001,,x,,,,
446756,-1.8524488,9.241907,-2.1862125,0.129574,-0.785066,-0.426832,177.90001,-146.1,-20.1,,x,,,,
446776,-1.2937832,9.592419,-2.1204169,-0.137196,-0.57164997,0.015244,165.90001,-138.90001,-20.1,,x,,,,
446799,-1.3649622,8.893787,-1.8494581,-0.777444,-0.64787,-0.243904,168.3,-138.90001,-13.500001,,x,,,,
446819,-1.2202116,8.450563,-1.8919262,-0.45731997,-0.03811,0.007622,153.90001,-150.90001,-17.7,,x,,,,
446880,-1.267465,9.190467,-2.180231,0.510674,-0.602138,-0.22865999,153.90001,-143.70001,-17.7,,x,,,,
446936,-2.2322695,10.005735,-2.116828,1.02897,-1.463424,0.853664,156.3,-146.1,-21.300001,,,,,,
446957,-2.8848436,10.398716,-1.7926345,0.80793196,-2.2180018,0.68597996,153.90001,-146.1,-14.1,,,,,,
446998,-3.8544333,9.914818,0.12979703,-1.021348,-4.862836,-0.56402797,158.70001,-143.70001,-17.1,,,,,,
447038,-4.8132563,8.381778,-0.6974347,0.243904,-1.432936,-0.053354,158.70001,-138.90001,-23.7,,,,,,
447373,2.8064868,12.737454,-10.829378,2.522882,0.121952,0.480186,115.50001,-153.3,-9.900001,,x,,,,
447438,2.2896912,11.245686,-9.631896,-1.707328,3.132642,-1.547266,125.100006,-158.1,-8.1,,x,,,,
447478,0.97796375,10.180991,-8.699391,-3.018312,6.66925,-2.957336,122.700005,-162.90001,-17.1,,x,,,,
447499,-0.10407688,9.206018,-7.5246387,-4.443626,5.670768,-2.7744079,115.50001,-153.3,-20.7,,x,,,,
447539,-0.6615461,8.046219,-5.54658,-4.5122237,6.295772,-2.637212,134.70001,-160.5,-15.3,,x,,,,
447559,-0.7901469,8.237027,-5.2552843,-4.161612,7.370474,-2.964958,141.90001,-155.70001,-18.900002,,x,,,,
447579,-0.753062,7.698698,-5.006457,-4.093014,6.4177237,-3.109776,139.5,-155.70001,-18.900002,,x,,,,
447599,-0.67171454,7.0772276,-3.9513326,-4.923812,3.96344,-2.865872,144.3,-153.3,-14.1,,x,,,,
447663,-0.8511574,6.8624945,-3.9650898,-2.492394,6.196686,-2.2103798,125.100006,-155.70001,-23.7,,x,,,,
447711,-0.71179014,7.219586,-1.6556598,-3.2469718,5.6097918,-2.385686,144.3,-153.3,-14.700001,,x,,,,
447731,-0.8457742,7.6329026,-2.7963183,-2.62959,8.330846,-2.652456,139.5,-150.90001,-13.500001,,x,,,,
447776,-0.82184845,7.554546,-2.0265083,-2.187514,3.35368,-3.16313,165.90001,-143.70001,-14.700001,,x,,,,
447857,-1.121518,8.144315,-0.9043922,-1.760682,5.556438,-3.1859958,161.1,-146.1,-21.900002,,x,,,,
447977,-1.9762644,8.757411,-2.4625547,-0.868908,3.2088618,-3.323192,163.5,-131.70001,-14.700001,,x,,,,
448016,-2.2209048,10.22645,-2.3483093,-1.189032,1.6234859,-1.669218,158.70001,-153.3,-14.1,,x,,,,
448056,-2.4111142,9.225758,-2.3572814,-1.532022,0.632626,-1.5929979,163.5,-148.5,-18.900002,,x,,,,
448133,-1.7501663,8.941041,-1.8997021,-0.716468,0.35061198,-0.129574,168.3,-150.90001,-13.500001,,x,,,,
448153,-1.4469079,8.440993,-2.0713692,-0.243904,0.243904,0.480186,177.90001,-134.1,-16.5,,x,,,,
448195,-1.116733,9.392639,-2.0719674,-0.23628199,1.158544,0.41921,175.5,-141.3,-15.900001,,,,,,
448237,-1.3864954,8.832179,-2.1634831,0.099086,-0.64787,-0.099086,156.3,-146.1,-18.300001,,,,,,
448257,-1.7286332,8.950611,-2.1449406,0.26677,-0.297258,0.213416,165.90001,-136.5,-18.900002,,,,,,
448278,-2.0073678,9.459033,-2.339337,0.503052,-0.64787,0.19055,168.3,-146.1,-9.3,,,,,,
448319,-2.8764696,9.114503,-1.531246,0.579272,-3.338436,0.625004,158.70001,-143.70001,-18.300001,,,,,,
448359,-4.0554094,9.326843,2.3943663,-2.09605,-5.632658,1.8673899,153.90001,-138.90001,-18.900002,,x,,,,
448433,-5.016625,6.0400476,-0.1489376,4.64942,-6.242418,3.7576458,156.3,-138.90001,-18.900002,,x,,,,
448454,-3.0283978,7.0269837,0.09211402,5.5945477,-12.827826,6.692116,158.70001,-141.3,-15.900001,,x,,,,
448495,-2.3776183,5.1063466,-2.058808,5.419242,-8.605238,4.695152,144.3,-160.5,-24.900002,,x,,,,
448515,-2.4404233,4.6457763,-3.7282252,4.5884438,-6.6158957,4.504602,144.3,-153.3,-17.7,,x,,,,
448535,-1.7417923,3.5481842,-5.6697974,5.6097918,-5.4421077,4.11588,151.5,-150.90001,-18.300001,,x,,,,
448555,1.3852991,6.5628247,-8.331533,8.46042,-8.033587,8.788166,134.70001,-158.1,-19.5,,x,,,,
448575,1.4457116,7.622136,-7.1765194,4.085392,-15.869003,6.730226,139.5,-146.1,-22.5,,x,,,,
448595,1.3338588,6.4240556,-5.787033,5.327778,-13.7272215,4.9543,122.700005,-148.5,-12.3,,x,,,,
448615,1.3201015,8.287869,-7.552153,5.9375377,-5.510706,6.798824,129.90001,-150.90001,-11.700001,,x,,,,
448676,3.5170808,11.626703,-9.679748,2.7058098,-7.73633,3.6738038,108.3,-158.1,-20.1,,x,,,,
448717,3.6540554,13.045498,-10.559616,1.432936,0.045732,1.570132,105.9,-155.70001,-15.3,,x,,,,
448737,3.225785,11.518439,-10.3071995,0.35061198,0.487808,-0.28201398,98.700005,-141.3,-14.700001,,x,,,,
448757,3.509903,11.894073,-9.750329,-1.432936,1.98172,0.182928,105.9,-158.1,-16.5,,x,,,,
448797,2.3818054,11.377875,-10.084092,-1.440558,7.5152917,-0.739334,108.3,-155.70001,-14.1,,x,,,,
448817,2.1269965,11.458027,-9.508678,-2.55337,5.556438,-1.158544,96.3,-150.90001,-11.700001,,x,,,,
448837,1.5581625,10.910128,-8.350674,-4.68753,5.5183277,-2.652456,108.3,-150.90001,-1.5,,x,,,,
448857,0.56165624,9.667785,-8.053397,-4.778994,8.26987,-3.2393498,91.5,-158.1,-18.300001,,x,,,,
448878,-0.11304902,8.40989,-7.9385533,-4.718018,6.9741297,-2.964958,91.5,-158.1,-12.900001,,x,,,,
448938,-0.02213129,6.994086,-3.4273593,-4.176856,7.3628516,-2.317088,110.700005,-148.5,-13.500001,,x,,,,
448975,0.041271865,6.020309,-3.890322,-2.987824,2.843006,-1.41007,110.700005,-150.90001,-18.900002,,x,,,,
448996,0.5945541,7.0509095,-1.6425006,-4.672286,-0.55640596,-0.960372,120.3,-155.70001,-18.900002,,x,,,,
449036,0.06280501,6.9336734,-2.6725028,-4.123502,12.340017,-3.475632,120.3,-158.1,-24.300001,,x,,,,
449056,-0.3146232,6.2188926,-3.3789096,-3.346058,8.23176,-3.368924,117.9,-155.70001,-21.900002,,x,,,,
449080,0.23447205,7.220184,-1.5862751,-2.111294,2.6677,-2.309466,125.100006,-158.1,-14.700001,,x,,,,
449100,0.21353704,7.294952,-1.117331,-2.2789779,2.995446,-2.7896519,115.50001,-162.90001,-25.500002,,x,,,,
449120,0.27095875,6.9970765,-1.7184647,-1.250008,6.227174,-3.475632,132.3,-160.5,-18.900002,,x,,,,
449140,0.42109266,7.354766,-1.87458,-0.388722,4.34454,-3.2088618,120.3,-153.3,-16.5,,x,,,,
449164,0.33316565,7.396038,-1.1615937,-0.30488,2.97258,-3.346058,129.90001,-148.5,-24.900002,,x,,,,
449184,0.14654502,7.5700974,-1.0425632,-0.327746,4.176856,-3.094532,132.3,-148.5,-22.5,,x,,,,
449204,-0.13757288,8.633595,-1.4570763,-0.586894,4.672286,-2.500016,134.70001,-150.90001,-18.900002,,x,,,,
449226,-0.7692119,8.475088,-1.5055258,-0.480186,4.0320377,-3.422278,144.3,-153.3,-18.900002,,x,,,,
449289,-1.5115073,9.120484,-1.9888253,-1.036592,5.5335717,-2.576236,146.70001,-165.3,-18.900002,,,,,,
449334,-1.4104211,10.139121,-2.4984431,-0.640248,2.621968,-1.18141,141.90001,-148.5,-14.700001,,,,,,
449395,-1.6072102,10.352658,-2.7801685,-0.47256398,1.318606,-1.577754,146.70001,-153.3,-19.5,,,,,,
449435,-1.5743123,9.684533,-2.5002377,-0.548784,-0.243904,-1.425314,161.1,-124.50001,-12.900001,,,,,,
449455,-1.4122156,9.796984,-2.4368346,-0.655492,-0.46494198,-1.173788,156.3,-155.70001,-17.1,,,,,,
449475,-1.2435392,9.526025,-2.2232974,-0.967994,-0.503052,-1.059458,156.3,-141.3,-17.7,,,,,,
449517,-0.99291736,9.015211,-1.9397776,-1.3872039,0.67835796,-0.327746,153.90001,-153.3,-18.300001,,,,,,
449562,-0.8439797,8.941041,-2.1234076,-0.998482,0.785066,-0.20579399,149.1,-150.90001,-18.300001,,,,,,
449696,-0.815867,8.842347,-2.2597842,0.67835796,1.013726,0.525918,141.90001,-155.70001,-15.900001,,x,,,,
449716,-1.422384,9.307105,-2.242438,0.594516,0.548784,0.541162,141.90001,-143.70001,-15.900001,,x,,,,
449736,-1.9325999,9.453052,-1.8805615,0.426832,0.0,0.53354,139.5,-148.5,-16.5,,x,,,,
449756,-2.5899591,10.745639,-1.6335285,-0.106708,-0.899396,1.021348,137.1,-148.5,-21.900002,,x,,,,
449819,-4.761218,8.765187,-0.07177716,0.625004,-2.378064,2.469528,141.90001,-160.5,-14.1,,x,,,,
449839,-3.588858,9.147401,-0.5024401,2.59148,-4.8857017,4.4360037,139.5,-150.90001,-17.1,,x,,,,
449859,-3.296366,8.119791,0.51739365,2.903982,-8.315601,4.237832,139.5,-162.90001,-19.5,,x,,,,
449881,-2.6491752,7.254876,0.9145606,3.92533,-8.704324,4.5274677,139.5,-155.70001,-12.3,,x,,,,
449942,-2.0683784,5.279808,-0.5819931,4.626554,-6.1052217,5.617414,127.50001,-155.70001,-23.7,,x,,,,
450077,2.4703305,8.528322,-10.564402,10.350676,3.155508,5.9070497,108.3,-158.1,-7.5000005,,x,,,,
450116,5.029784,12.386943,-12.791287,3.589962,-9.26073,6.234796,84.3,-153.3,-3.9,,x,,,,
450157,6.081918,11.71463,-9.8101425,1.425314,-7.218034,1.44818,86.700005,-155.70001,-4.5,,x,,,,
450177,5.643479,12.123161,-10.654122,1.044214,0.708846,0.640248,77.100006,-148.5,-2.1000001,,x,,,,
450241,4.4705205,10.721114,-10.18159,-2.13416,3.071666,-3.346058,79.5,-150.90001,-7.5000005,,x,,,,
450261,3.824526,10.734872,-9.889098,-1.478668,5.746988,-3.1936178,79.5,-150.90001,-5.1000004,,x,,,,
450281,3.2604773,10.7175255,-10.178,-2.317088,7.69822,-3.2164838,98.700005,-146.1,-6.9,,x,,,,
450304,2.401544,10.029661,-9.462622,-5.015276,6.547298,-3.932952,98.700005,-150.90001,-9.3,,x,,,,
450324,1.6197711,8.961976,-8.501406,-6.562542,4.367406,-4.9161897,96.3,-148.5,-8.700001,,x,,,,
450346,0.96899164,8.051004,-6.7661934,-8.285114,1.958854,-5.198204,101.100006,-162.90001,-8.1,,x,,,,
450367,0.24942562,6.8367743,-5.2146106,-8.056454,2.2484899,-4.9771657,101.100006,-158.1,-5.7000003,,x,,,,
450388,-0.21892032,5.744565,-4.242628,-7.187546,3.2927039,-4.222588,110.700005,-148.5,-9.900001,,x,,,,
450408,0.21652776,6.236837,-3.7419825,-5.807964,3.833866,-2.43904,105.9,-165.3,-10.5,,x,,,,
450428,0.42228892,7.092779,-2.958415,-6.196686,4.0015497,-2.675322,113.100006,-165.3,-12.900001,,x,,,,
450471,-0.47671995,6.0238976,-3.3196936,-5.076252,8.490908,-4.214966,113.100006,-148.5,-7.5000005,,x,,,,
450491,-0.085534446,6.639985,-2.97935,-4.740884,4.832348,-3.2698379,117.9,-155.70001,-13.500001,,x,,,,
450514,0.023925718,6.701594,-1.2483244,-4.443626,3.056422,-3.521364,117.9,-160.5,-15.3,,x,,,,
450574,-0.0681883,6.8840275,-2.0444527,-1.775926,4.9161897,-2.89636,129.90001,-150.90001,-20.1,,x,,,,
450598,-0.05203844,7.8643837,-1.447506,-2.195136,3.879598,-2.6981878,125.100006,-155.70001,-8.700001,,x,,,,
450619,-0.46714967,7.9493203,-1.6502764,-2.080806,6.5549197,-3.7576458,127.50001,-155.70001,-20.7,,x,,,,
450659,-0.5634507,8.769972,-1.8255323,-1.814036,1.3490939,-2.614346,127.50001,-153.3,-17.7,,x,,,,
450701,-0.98334706,8.420657,-1.2692593,-1.684462,3.346058,-2.103672,127.50001,-148.5,-8.700001,,x,,,,
450721,-1.4941611,8.824403,-1.9170482,-1.935988,3.841488,-2.103672,129.90001,-148.5,-18.300001,,x,,,,
450741,-1.8650098,8.146708,-1.6598468,-1.814036,2.09605,-2.2789779,132.3,-153.3,-19.5,,x,,,,
450781,-2.1024725,9.9070425,-1.8117751,-1.814036,1.951232,-0.40396598,141.90001,-158.1,-14.1,,x,,,,
450821,-1.4343468,9.507483,-1.7830642,-1.189032,0.33536798,-0.91463995,134.70001,-153.3,-15.3,,x,,,,
450841,-1.7160722,9.497314,-1.9810495,-0.83842,0.40396598,-0.07622,132.3,-150.90001,-15.3,,x,,,,
450861,-1.5210776,9.795189,-2.317804,-0.396344,-0.137196,0.602138,144.3,-143.70001,-14.1,,x,,,,
450881,-0.34632477,11.435896,-2.5289485,-0.106708,-1.3643379,1.6082419,137.1,-155.70001,-18.300001,,x,,,,
450901,-0.5239732,10.38137,-1.6999223,-1.196654,-2.6981878,-0.015244,141.90001,-148.5,-14.1,,x,,,,
450961,0.3439322,10.04641,-2.2191105,-0.41921,-0.92988396,0.3811,132.3,-150.90001,-11.700001,,x,,,,
450985,0.30923992,9.408789,-2.392572,-0.03811,-1.814036,0.365856,134.70001,-148.5,-17.1,,x,,,,
451005,0.64240557,9.377686,-1.8763745,0.022866,-2.850628,0.792688,149.1,-150.90001,-18.300001,,x,,,,
451026,0.73451954,8.879433,-1.5599569,-0.251526,-2.073184,0.56402797,127.50001,-148.5,-17.7,,,,,,
451046,0.9564306,9.216187,-1.9595164,0.007622,-0.94512796,0.731712,139.5,-153.3,-20.1,,,,,,
451109,1.1693695,8.710158,-2.0923042,0.33536798,-0.579272,0.716468,132.3,-141.3,-17.7,,,,,,
451135,1.1831268,8.592922,-2.5929499,0.55640596,0.137196,1.097568,144.3,-150.90001,-14.1,,,,,,
451155,1.2226043,8.399722,-2.7628224,0.625004,-0.891774,0.998482,144.3,-155.70001,-21.300001,,,,,,
451197,1.6658282,8.820216,-2.4224792,0.137196,-1.6082419,0.846042,132.3,-158.1,-18.300001,,,,,,
451217,1.9020946,9.446472,-2.5403132,-0.068598,-1.539644,0.015244,129.90001,-158.1,-16.5,,,,,,
451237,1.6221638,8.68384,-2.330365,-0.251526,-1.440558,-0.358234,146.70001,-158.1,-20.7,,,,,,
451258,1.4546837,8.871656,-2.5110042,0.297258,-1.432936,0.655492,139.5,-167.70001,-21.900002,,,,,,
451318,0.019140575,9.011622,-1.6161823,-0.20579399,-0.251526,0.0,134.70001,-155.70001,-22.5,,,,,,
451631,0.08433816,10.27789,-3.371732,-0.22865999,0.967994,-1.303362,139.5,-148.5,-14.1,,,,,,
451796,0.36307278,8.849525,-2.3979552,-1.06708,0.777444,-0.053354,141.90001,-150.90001,-20.7,,,,,,
451816,0.2865105,8.912331,-2.485284,-1.074702,1.8902559,-0.053354,141.90001,-150.90001,-21.300001,,,,,,
451858,0.23985533,8.842347,-2.2304752,-0.625004,0.92988396,-0.07622,146.70001,-143.70001,-18.300001,,,,,,
451898,0.13577846,8.820216,-2.2388492,-0.15244,1.707328,-0.289636,141.90001,-160.5,-16.5,,,,,,
451973,-1.1663787,9.882518,-1.9810495,0.518296,-0.731712,0.327746,144.3,-141.3,-20.1,,x,,,,
451993,-1.7974197,10.207908,-1.071274,-0.16768399,-2.43904,0.510674,141.90001,-146.1,-18.300001,,x,,,,
452036,-4.8312006,8.674868,0.14175989,-0.907018,-2.926848,-0.487808,134.70001,-150.90001,-14.1,,x,,,,
452078,-5.0339713,9.081007,-1.1753509,2.141782,-2.911604,1.189032,146.70001,-155.70001,-9.900001,,x,,,,
452098,-5.028588,7.655632,-2.7042043,4.214966,-4.8857017,1.48629,132.3,-148.5,-14.700001,,x,,,,
452118,-4.0972795,6.442598,-3.4464998,5.0228977,-10.929948,3.917708,129.90001,-150.90001,-11.700001,,x,,,,
452158,-2.2137272,7.184295,-1.9260204,3.856732,-17.096146,6.318638,139.5,-158.1,-20.1,,x,,,,
452198,-0.8272317,5.288182,-2.577398,3.437522,-17.881212,5.29729,134.70001,-153.3,-19.5,,x,,,,
452413,3.1217082,11.307295,-8.849525,-2.012208,1.775926,-1.3795819,103.50001,-160.5,-15.3,,x,,,,
452451,2.681475,10.826387,-8.325552,-2.2027578,5.14485,-1.1356779,108.3,-153.3,-14.700001,,x,,,,
452514,0.7524639,8.97992,-6.2284627,-4.5122237,6.166198,-2.865872,98.700005,-158.1,-16.5,,x,,,,
452534,0.35709137,8.6652975,-5.480186,-4.207344,7.225656,-3.346058,108.3,-160.5,-13.500001,,x,,,,
452555,-0.045458864,8.122782,-5.1494126,-3.879598,7.911636,-3.635694,117.9,-167.70001,-11.1,,x,,,,
452575,-0.13757288,7.679558,-4.8090696,-3.536608,7.103704,-3.460388,113.100006,-155.70001,-11.1,,x,,,,
452641,-0.32060462,7.1603694,-4.056606,-2.2942219,8.086942,-3.041178,129.90001,-165.3,-23.1,,x,,,,
452661,0.10228245,7.2608576,-3.3525913,-2.7210538,4.984788,-2.560992,127.50001,-146.1,-20.1,,x,,,,
452681,0.23207948,7.312298,-2.5612483,-2.560992,6.455834,-2.530504,110.700005,-153.3,-20.7,,x,,,,
452702,0.053234726,7.2494926,-3.3914707,-1.996964,9.10829,-2.7515419,115.50001,-162.90001,-18.900002,,x,,,,
452722,0.13039517,7.0353575,-3.4423127,-1.75306,7.057972,-2.660078,125.100006,-153.3,-16.5,,x,,,,
452742,0.5849838,7.358355,-2.6701102,-1.585376,4.9314337,-2.51526,122.700005,-155.70001,-21.900002,,x,,,,
452766,0.5484971,7.8105507,-2.2645693,-1.6158639,5.663146,-2.873494,125.100006,-141.3,-15.3,,x,,,,
452786,0.22370547,7.51447,-2.622259,-1.3414719,7.4543157,-3.932952,132.3,-155.70001,-21.300001,,x,,,,
452806,0.40015766,7.8805337,-3.13726,-0.442076,6.158576,-3.7119138,129.90001,-153.3,-16.5,,x,,,,
452829,0.26796806,7.840458,-2.2322695,-0.960372,3.7424018,-4.0167937,141.90001,-150.90001,-18.900002,,x,,,,
452849,-0.14116174,7.8673744,-1.6969316,-1.33385,4.870458,-3.7881339,139.5,-148.5,-17.7,,x,,,,
452870,-1.3541957,7.809355,-2.878264,-1.4024479,7.728708,-3.932952,141.90001,-155.70001,-17.1,,x,,,,
452890,-1.2315763,8.710158,-3.6917384,-0.586894,5.647902,-2.919226,132.3,-153.3,-11.1,,x,,,,
452913,-0.97616935,9.685729,-2.9518356,-1.189032,1.227142,-2.355198,153.90001,-146.1,-14.700001,,x,,,,
452934,-0.41570938,10.779135,-2.1246037,-2.103672,1.02897,-2.13416,144.3,-155.70001,-11.700001,,x,,,,
452995,-1.828523,9.198242,-2.0982854,-1.234764,1.25763,-2.835384,151.5,-150.90001,-19.5,,x,,,,
453015,-2.4308531,9.10254,-1.7094926,-1.082324,2.073184,-2.7286758,158.70001,-148.5,-13.500001,,x,,,,
453035,-2.986528,9.667187,-2.6096978,-0.434454,2.522882,-2.644834,153.90001,-155.70001,-15.3,,x,,,,
453055,-3.0050702,9.452454,-2.7371023,-0.182928,1.8597679,-2.675322,149.1,-146.1,-15.3,,x,,,,
453075,-2.7891407,9.307703,-2.4685361,-0.015244,0.373478,-1.94361,153.90001,-146.1,-13.500001,,x,,,,
453097,-2.4075255,9.46621,-2.2573917,-0.320124,0.11432999,-1.1204339,156.3,-148.5,-13.500001,,x,,,,
453117,-2.1060615,9.4375,-2.4296567,-0.541162,0.449698,-0.449698,161.1,-148.5,-20.7,,x,,,,
453139,-1.62336,9.167737,-2.3225892,-0.3811,0.0,0.198172,151.5,-136.5,-15.900001,,x,,,,
453159,-1.2866055,9.067847,-2.3794127,-0.182928,-0.106708,0.41921,153.90001,-148.5,-16.5,,,,,,
453239,-1.2046599,8.893189,-2.6037164,0.82317597,-0.7622,-0.449698,163.5,-160.5,-18.900002,,,,,,
453281,-1.7094926,8.908143,-2.5157893,1.158544,-1.6082419,-0.33536798,153.90001,-143.70001,-13.500001,,,,,,
453353,-2.7544484,10.148093,-2.430255,1.21952,-3.536608,0.983238,163.5,-138.90001,-21.900002,,,,,,
453373,-3.4279573,10.551242,-1.6646318,0.503052,-4.413138,-0.41158798,149.1,-138.90001,-17.1,,,,,,
453413,-3.3669467,10.335911,-2.6994193,2.2713559,-2.6981878,-3.2850819,156.3,-141.3,-15.900001,,,,,,
453453,-2.4685361,6.738679,-2.5558648,5.419242,-6.8674216,-5.0533857,175.5,-129.3,-18.900002,,,,,,
453656,-0.7943339,7.88173,-5.995785,2.865872,-4.5427117,3.025934,175.5,-143.70001,-15.900001,,x,,,,
453697,-0.13278773,10.272508,-4.881445,0.64787,-7.1418138,4.9543,177.90001,-146.1,-16.5,,x,,,,
453954,-1.2249968,7.755522,-4.4364266,-5.312534,1.3948259,-1.1128119,153.90001,-143.70001,-14.1,,x,,,,
453974,-1.1185274,7.3523736,-3.9758563,-4.87808,4.786616,-1.044214,161.1,-136.5,-16.5,,x,,,,
454014,-0.5012438,7.0269837,-3.4381258,-3.559474,2.40093,-0.72409,163.5,-148.5,-12.3,,x,,,,
454054,-0.44142953,6.7614083,-1.940974,-2.446662,5.4421077,-2.995446,168.3,-136.5,-21.300001,,x,,,,
454138,-0.01614986,7.4660206,-1.0969942,-1.463424,1.920744,-2.7515419,175.5,-134.1,-14.1,,x,,,,
454158,-0.72734183,6.965375,-2.3788147,-1.1051899,6.82169,-3.46801,182.70001,-138.90001,-11.700001,,x,,,,
454178,-0.71657526,7.1998467,-3.4913604,-0.23628199,5.228692,-2.2332458,163.5,-136.5,-17.7,,x,,,,
454241,-1.7836623,6.681257,-2.789739,-2.065562,6.3719916,-3.102154,173.1,-134.1,-20.1,,x,,,,
454389,-3.3938632,9.440491,-3.3627598,-0.213416,2.7286758,-2.2713559,182.70001,-114.9,-19.5,,x,,,,
454616,-2.5803888,8.749037,-2.9015915,-0.548784,1.8750119,-0.312502,192.3,-117.3,-11.1,,,,,,
454636,-2.5899591,8.636586,-3.192887,-0.045732,1.3948259,-0.213416,201.90001,-131.70001,-17.1,,x,,,,
454678,-2.6790824,8.538491,-2.7460744,0.426832,0.053354,0.099086,201.90001,-122.100006,-18.900002,,x,,,,
454698,-2.9811447,8.8256,-2.7939258,0.625004,-0.198172,0.579272,192.3,-122.100006,-6.3,,x,,,,
454719,-3.0283978,8.8489275,-2.7089896,0.602138,-0.480186,0.655492,192.3,-146.1,-14.700001,,x,,,,
454739,-2.9105637,9.301722,-2.522967,0.655492,-1.1432999,1.1432999,192.3,-110.100006,-14.1,,x,,,,
454804,-4.74447,9.581653,-2.359674,0.625004,0.15244,1.730194,194.70001,-131.70001,-16.5,,x,,,,
454824,-5.176329,9.667187,-2.7065969,0.792688,-0.22865999,1.44818,189.90001,-122.100006,-10.5,,x,,,,
454844,-5.28878,9.301722,-3.0283978,0.586894,-0.617382,1.699706,187.5,-129.3,-15.3,,x,,,,
454867,-5.2235827,8.076725,-3.3753207,0.503052,-0.92988396,2.317088,180.3,-143.70001,-7.5000005,,x,,,,
454888,-3.7144678,8.226858,-3.9208272,0.80793196,-3.452766,4.237832,189.90001,-119.700005,-8.700001,,x,,,,
454908,-2.89561,7.952311,-3.3824985,0.81555396,-7.5762677,4.30643,170.70001,-126.9,-20.7,,x,,,,
454972,-0.77280074,7.9379554,-2.150922,2.6905658,-13.384232,3.88722,177.90001,-134.1,-21.300001,,x,,,,
454992,-0.16329303,7.3404107,-1.7890456,2.6829438,-12.218065,2.7744079,180.3,-136.5,-17.7,,x,,,,
455012,-0.62984455,6.020309,-1.4660485,2.347576,-11.24245,1.989342,175.5,-143.70001,-19.5,,x,,,,
455036,-0.46954224,5.181114,-1.2746427,2.423796,-10.739398,2.538126,168.3,-141.3,-14.1,,x,,,,
455057,-0.10706759,5.5830665,-1.3165127,2.530504,-8.163162,4.093014,177.90001,-134.1,-20.7,,x,,,,
455100,0.8834572,6.9055605,-4.1977673,4.45887,-2.812518,5.236314,170.70001,-138.90001,-23.1,,x,,,,
455120,0.72554743,8.469107,-4.9017816,3.2774599,-2.93447,5.091496,153.90001,-146.1,-18.900002,,x,,,,
455161,1.5192832,10.496213,-7.6251264,5.015276,0.33536798,3.635694,158.70001,-141.3,-21.900002,,x,,,,
455244,0.47851437,11.245088,-10.071531,3.2469718,3.132642,-0.80793196,134.70001,-138.90001,-14.700001,,x,,,,
455336,-0.88226086,10.885006,-8.314785,-3.536608,4.176856,-3.452766,149.1,-146.1,-12.3,,x,,,,
455377,-1.4798057,8.732289,-6.665705,-5.9680257,3.8186219,-1.814036,153.90001,-153.3,-21.300001,,x,,,,
455456,-0.995908,6.649555,-2.2370548,-5.60217,2.560992,-1.3795819,158.70001,-148.5,-14.700001,,x,,,,
455477,-0.84996116,7.1190977,-2.4954524,-4.146368,7.6219997,-1.097568,163.5,-153.3,-13.500001,,x,,,,
455517,-0.782371,6.602302,-3.2532997,-2.2180018,4.375028,-0.975616,141.90001,-150.90001,-13.500001,,x,,,,
455933,-2.0546212,9.749132,-3.7539454,-0.960372,-0.625004,-0.960372,156.3,-138.90001,-7.5000005,,,,,,
455953,-1.8680005,9.557727,-3.317899,-1.272874,-1.722572,-0.7622,168.3,-136.5,-12.3,,,,,,
455995,-1.3476161,8.313589,-2.5504816,-1.775926,-0.312502,0.259148,165.90001,-141.3,-11.1,,,,,,
456037,-0.80270785,8.959583,-2.4458065,-0.70122397,-1.67684,0.34298998,168.3,-143.70001,-13.500001,,,,,,
456136,-1.0563204,8.78373,-2.773589,0.091464,0.182928,-0.49543,161.1,-141.3,-11.700001,,x,,,,
456295,-4.5620365,8.315982,-2.932097,0.792688,-0.602138,-0.083841994,173.1,-136.5,-5.7000003,,x,,,,
456315,-5.090795,9.142615,-3.2933753,1.211898,-1.570132,2.01983,175.5,-155.70001,-8.700001,,x,,,,
456358,-5.0806265,8.376992,-2.991313,0.23628199,-5.777476,2.85825,158.70001,-138.90001,-11.1,,x,,,,
456535,1.0114597,6.1351523,-1.1394624,3.7195358,-12.91929,4.603688,132.3,-162.90001,-20.1,,x,,,,
456557,0.8726906,5.916232,-1.908076,3.597584,-7.446694,3.155508,137.1,-162.90001,-18.900002,,x,,,,
456597,2.4188902,8.685634,-7.985807,5.14485,-4.054904,5.64028,132.3,-158.1,-18.900002,,x,,,,
456637,1.4540856,8.423648,-6.484468,4.4360037,-4.893324,2.637212,110.700005,-150.90001,-12.3,,x,,,,
456732,2.5953424,12.118975,-10.926876,1.9131219,-0.67073596,-0.289636,115.50001,-150.90001,-16.5,,x,,,,
456777,1.9128612,11.434699,-9.948912,-1.036592,2.2713559,-2.461906,122.700005,-150.90001,-15.900001,,x,,,,
456797,1.4158044,10.621224,-9.6372795,-2.317088,2.652456,-3.147886,117.9,-150.90001,-16.5,,x,,,,
456839,-0.18004103,9.47937,-6.604695,-5.419242,5.44973,-4.11588,115.50001,-158.1,-14.700001,,x,,,,
456879,-1.2566984,8.452956,-6.672883,-4.893324,7.5152917,-4.024416,122.700005,-150.90001,-14.1,,x,,,,
456899,-1.3063443,8.027677,-5.544187,-5.541194,3.879598,-3.8186219,132.3,-150.90001,-18.300001,,x,,,,
456919,-1.6060139,7.2536798,-4.1361585,-5.83083,4.0167937,-3.445144,134.70001,-150.90001,-20.1,,x,,,,
456943,-1.4235803,6.8206244,-3.8370872,-5.0076537,6.4177237,-2.51526,129.90001,-155.70001,-20.1,,x,,,,
456963,-0.8224466,7.1723323,-3.8496482,-4.428382,6.532054,-1.509156,132.3,-167.70001,-14.1,,x,,,,
457003,-0.619078,7.1932673,-3.0319867,-3.7424018,6.143332,-1.6387299,132.3,-162.90001,-16.5,,x,,,,
457024,-0.32239905,7.2471004,-2.9129562,-3.475632,6.166198,-1.760682,139.5,-143.70001,-19.5,,x,,,,
457044,-0.1573116,7.7369795,-2.4111142,-4.11588,5.769854,-1.6387299,120.3,-153.3,-19.5,,x,,,,
457066,0.14175989,8.09108,-2.451788,-3.856732,7.27901,-1.8445239,134.70001,-153.3,-16.5,,x,,,,
457086,0.10407688,8.108426,-2.861516,-3.50612,7.614378,-2.347576,137.1,-158.1,-21.900002,,x,,,,
457149,-0.12860073,7.9517126,-1.4816002,-2.2713559,3.971062,-2.7439198,149.1,-153.3,-19.5,,x,,,,
457196,-0.41870007,8.454751,-2.2861025,-1.722572,5.899428,-2.47715,146.70001,-162.90001,-21.900002,,x,,,,
457216,-0.86790544,8.694008,-2.1569035,-1.8521459,4.4055157,-2.378064,161.1,-158.1,-18.300001,,x,,,,
457236,-1.2872037,8.12637,-1.6753985,-2.01983,4.45887,-2.85825,149.1,-155.70001,-23.7,,x,,,,
457256,-1.6718096,7.8619914,-1.991816,-2.01983,5.823208,-2.599102,163.5,-143.70001,-21.900002,,x,,,,
457276,-1.4989463,9.014014,-2.6754935,-1.4024479,5.571682,-1.455802,137.1,-146.1,-23.1,,x,,,,
457296,-1.4152063,9.462622,-2.72813,-1.3719599,3.6738038,-1.56251,139.5,-141.3,-21.900002,,x,,,,
457316,-1.4624596,8.530715,-2.1317816,-1.036592,2.065562,-1.432936,151.5,-155.70001,-15.900001,,x,,,,
457336,-1.5031333,8.518752,-1.9894235,-0.846042,2.065562,-1.3872039,161.1,-146.1,-17.1,,x,,,,
457356,-1.644295,8.450563,-2.308832,-0.33536798,2.59148,-1.3948259,151.5,-143.70001,-17.1,,x,,,,
457376,-1.300961,9.587035,-2.656353,0.35061198,2.103672,-0.579272,146.70001,-150.90001,-24.300001,,x,,,,
457399,-0.9767675,11.024971,-2.8130665,-0.022866,1.242386,-0.655492,175.5,-158.1,-16.5,,x,,,,
457419,-1.4612633,9.603784,-2.635418,0.053354,1.204276,-2.500016,173.1,-141.3,-15.900001,,x,,,,
457439,-1.6969316,9.100147,-2.7544484,0.17530599,0.602138,-1.974098,163.5,-146.1,-17.1,,x,,,,
457459,-1.7519608,9.596606,-2.933293,0.251526,0.548784,-1.577754,161.1,-148.5,-17.1,,x,,,,
457499,-1.6496783,9.774853,-2.3818054,-0.55640596,-1.44818,-1.310984,165.90001,-143.70001,-17.7,,,,,,
457519,-1.7926345,9.197644,-1.7071,-1.478668,-0.213416,-1.455802,170.70001,-138.90001,-16.5,,,,,,
457543,-1.6299396,9.045716,-2.1688664,-1.310984,1.471046,-0.83842,156.3,-146.1,-15.3,,,,,,
457567,-1.5246664,9.085194,-1.9810495,-1.089946,1.242386,-0.35061198,163.5,-148.5,-16.5,,,,,,
457587,-1.4869834,8.857301,-2.0223215,-0.70122397,1.3643379,-0.41158798,163.5,-146.1,-22.5,,,,,,
457609,-1.4648521,8.725112,-1.9804513,-0.289636,0.83842,-0.259148,156.3,-150.90001,-14.700001,,,,,,
457649,-1.3936732,8.955995,-2.3536925,0.40396598,0.64787,0.030488,168.3,-146.1,-18.900002,,,,,,
457675,-1.1292939,9.337011,-2.4793026,0.884152,-0.41921,0.35061198,153.90001,-141.3,-20.7,,,,,,
457695,-1.0742648,9.34419,-2.3489075,0.64787,-0.198172,-0.007622,161.1,-124.50001,-14.1,,,,,,
457735,-1.2435392,9.234131,-2.6372123,0.525918,-0.243904,-0.45731997,175.5,-138.90001,-17.7,,,,,,
457757,-1.2931851,9.093568,-2.2855043,0.449698,-0.785066,-0.45731997,163.5,-138.90001,-20.1,,,,,,
457777,-1.31412,9.571484,-2.1862125,0.22865999,-0.365856,-0.365856,161.1,-138.90001,-7.5000005,,,,,,
457797,-2.0289009,9.081605,-2.1903996,-0.26677,0.17530599,-0.792688,173.1,-138.90001,-17.1,,,,,,
457857,-3.2820106,8.985902,-2.45119,0.617382,-1.189032,0.95274997,175.5,-148.5,-15.900001,,,,,,
457877,-3.6079984,8.61924,-2.7490652,0.93750596,-1.4024479,1.684462,168.3,-148.5,-14.700001,,,,,,
457897,-3.326273,9.622924,-3.1516154,1.18141,-2.8048959,3.12502,168.3,-141.3,-10.5,,,,,,
457917,-3.2778234,9.283179,-2.8268237,0.80793196,-5.175338,3.513742,175.5,-150.90001,-18.900002,,x,,,,
457939,-3.1031656,9.26344,-2.385394,0.259148,-6.4482117,4.45887,165.90001,-143.70001,-14.1,,x,,,,
457959,-2.9596114,9.284375,-2.7143729,0.426832,-6.806446,4.756128,146.70001,-146.1,-24.900002,,x,,,,
457979,-2.4834895,8.957191,-2.7562428,0.92988396,-9.801891,5.167716,153.90001,-148.5,-23.1,,x,,,,
458041,-1.2776334,7.012628,-1.8895336,0.967994,-12.073248,4.832348,149.1,-153.3,-23.1,,x,,,,
458085,0.8320169,7.3410087,-1.5348349,1.8445239,-15.655587,4.9619217,115.50001,-158.1,-19.5,,x,,,,
458105,1.1759491,6.7374825,-1.0120579,1.958854,-16.897974,4.26832,132.3,-162.90001,-24.900002,,x,,,,
458125,1.3123257,5.589646,-0.3798208,2.652456,-14.923876,4.0472817,122.700005,-162.90001,-28.500002,,x,,,,
458166,1.0491427,6.6663036,-2.3572814,3.871976,-7.446694,3.559474,120.3,-158.1,-18.900002,,x,,,,
458217,-0.19020946,8.399722,-5.312706,4.5122237,-5.541194,0.87653,113.100006,-155.70001,-26.1,,x,,,,
458238,-0.16329303,9.823302,-6.1596766,5.152472,-3.475632,1.920744,122.700005,-150.90001,-18.300001,,x,,,,
458281,1.4983481,11.810333,-9.51466,4.618932,-0.68597996,2.484772,115.50001,-153.3,-19.5,,x,,,,
458301,1.5952473,11.816315,-8.87704,1.463424,-4.0015497,1.821658,110.700005,-153.3,-26.1,,x,,,,
458323,1.6090046,11.676947,-7.886515,0.80793196,-2.073184,1.1204339,113.100006,-148.5,-25.500002,,x,,,,
458343,1.7334183,11.423334,-8.263345,0.20579399,1.935988,0.213416,115.50001,-153.3,-20.7,,x,,,,
458363,1.5970417,10.8359585,-8.203531,-0.602138,3.483254,-0.830798,115.50001,-153.3,-25.500002,,x,,,,
458383,1.183725,10.842538,-7.8464394,-0.35061198,5.304912,-1.98172,103.50001,-167.70001,-17.1,,x,,,,
458403,0.31223062,11.254658,-8.024088,-0.81555396,7.759196,-3.2164838,117.9,-150.90001,-13.500001,,x,,,,
458423,-0.5640488,10.148692,-8.088089,-1.036592,9.428413,-4.740884,108.3,-155.70001,-17.1,,x,,,,
458488,-1.5085166,8.871058,-6.6908274,-3.414656,6.181442,-3.7271578,127.50001,-155.70001,-18.900002,,x,,,,
458518,-1.5456015,7.496526,-5.4436994,-4.207344,5.586926,-3.940574,125.100006,-148.5,-15.3,,x,,,,
458539,-0.9911229,7.318877,-4.2031507,-4.718018,3.117398,-2.7896519,139.5,-148.5,-18.900002,,x,,,,
458580,-0.5736191,6.955805,-2.2872987,-4.321674,10.274456,-2.637212,132.3,-158.1,-22.5,,x,,,,
458604,-0.73272514,6.8750553,-3.4464998,-3.628072,11.318669,-2.7896519,125.100006,-158.1,-20.1,,x,,,,
458624,-0.42527965,7.1896787,-3.3980503,-2.62959,6.966508,-2.2561119,120.3,-150.90001,-21.900002,,x,,,,
458644,0.05682358,8.442788,-2.0647895,-2.812518,3.7500238,-2.2103798,149.1,-146.1,-21.900002,,x,,,,
458667,0.59216154,8.798085,-1.1149385,-3.399412,5.785098,-3.2164838,127.50001,-160.5,-20.7,,x,,,,
458687,0.3104362,8.234036,-1.422384,-4.0777698,9.41317,-4.207344,120.3,-150.90001,-15.900001,,x,,,,
458709,-0.06998273,7.7333903,-2.8477588,-3.01069,9.634208,-2.301844,134.70001,-148.5,-21.300001,,x,,,,
458729,0.09031959,8.323757,-2.2268863,-2.51526,5.8918056,-1.94361,151.5,-148.5,-21.300001,,x,,,,
458751,0.1489376,8.549257,-1.8129714,-2.118916,5.914672,-2.13416,151.5,-153.3,-21.900002,,x,,,,
458771,-0.030505292,7.9385533,-2.3578796,-1.699706,6.577786,-2.6981878,146.70001,-146.1,-17.1,,x,,,,
458791,-0.27215505,7.418169,-2.2400453,-1.051836,4.817104,-2.2256238,149.1,-148.5,-19.5,,x,,,,
458812,-0.21353704,8.4278345,-2.3501036,-0.47256398,4.253076,-1.280496,151.5,-162.90001,-17.1,,x,,,,
458832,-0.27454764,8.707168,-2.3190002,-0.586894,3.955818,-1.570132,163.5,-155.70001,-21.900002,,x,,,,
458854,-0.051440295,9.300525,-2.3411317,-0.7622,3.414656,-1.303362,141.90001,-146.1,-14.1,,x,,,,
458874,-0.30684733,9.2807865,-2.129389,-1.730194,3.361302,-1.8597679,158.70001,-143.70001,-22.5,,x,,,,
458898,-0.7225567,9.112708,-2.6916435,-1.3872039,3.7119138,-1.3872039,144.3,-146.1,-24.300001,,x,,,,
458918,-0.6172835,9.985398,-3.015837,-0.861286,2.827762,-0.94512796,144.3,-148.5,-16.5,,x,,,,
458938,-0.63283527,9.58883,-2.819048,-0.777444,1.02897,-1.3490939,144.3,-148.5,-22.5,,x,,,,
459001,-0.5263658,10.671469,-2.9344895,0.060976,-0.274392,0.579272,149.1,-153.3,-20.7,,x,,,,
459021,-0.9743749,9.903453,-2.7765796,-0.213416,-1.006104,-0.525918,153.90001,-150.90001,-17.7,,x,,,,
459041,-1.6251545,8.502603,-2.539715,-0.35061198,-1.699706,-0.579272,151.5,-143.70001,-21.900002,,,,,,
459061,-2.24184,8.288467,-2.1736515,0.0,-1.5929979,0.67835796,151.5,-146.1,-17.7,,,,,,
459123,-2.606707,9.417163,-2.5301447,0.091464,-1.150922,1.814036,151.5,-158.1,-17.1,,,,,,
459143,-2.5098078,9.174915,-2.2029605,-0.091464,-1.204276,1.059458,151.5,-146.1,-16.5,,,,,,
459163,-2.5995293,9.033155,-2.4338439,0.121952,-0.510674,1.417692,139.5,-148.5,-17.1,,,,,,
459183,-2.6180718,9.373499,-2.6336236,0.41158798,-0.49543,1.669218,151.5,-143.70001,-15.3,,,,,,
459203,-2.6491752,9.4105835,-3.0505292,0.739334,-0.617382,1.5244,137.1,-150.90001,-17.1,,,,,,
459226,-2.5887628,8.814235,-3.3938632,1.455802,-1.8445239,1.920744,134.70001,-141.3,-20.7,,,,,,
459246,-2.2400453,9.30531,-3.3161047,1.6539739,-2.964958,2.088428,151.5,-153.3,-15.3,,,,,,
459266,-1.907478,9.329834,-2.9649947,1.18141,-3.094532,1.669218,137.1,-146.1,-20.7,,,,,,
459290,-1.7435868,8.874049,-2.7873464,0.49543,-2.17227,1.211898,132.3,-165.3,-14.1,,,,,,
459353,-0.8092874,9.542773,-2.2657657,-0.80030996,-1.089946,1.577754,139.5,-148.5,-12.900001,,,,,,
459373,-0.9671972,8.670082,-1.9948068,-0.95274997,0.754578,0.198172,127.50001,-155.70001,-14.700001,,,,,,
459395,-0.2853142,9.919004,-2.6736991,-0.030488,0.967994,0.19055,134.70001,-158.1,-21.300001,,,,,,
459416,-0.71597713,8.5791645,-2.3698425,-0.198172,0.67835796,-1.21952,127.50001,-155.70001,-20.1,,,,,,
459477,0.7267437,9.125867,-2.899199,0.053354,0.34298998,0.03811,146.70001,-153.3,-21.300001,,,,,,
459497,1.3787196,9.511071,-2.9446578,-0.22865999,1.25763,0.16768399,129.90001,-153.3,-17.1,,,,,,
459517,1.9726756,10.192356,-3.2335608,-0.487808,2.01983,-0.144818,141.90001,-155.70001,-17.1,,,,,,
459537,2.1204169,9.8562,-3.49794,-0.251526,1.8673899,-1.006104,149.1,-153.3,-21.900002,,,,,,
459557,2.4158995,9.729992,-3.4034336,-0.007622,0.503052,-0.868908,132.3,-143.70001,-21.900002,,,,,,
459577,2.2825136,9.546362,-2.999687,-0.106708,0.221038,-0.80030996,132.3,-150.90001,-20.1,,,,,,
459597,2.1616888,9.41477,-3.2562904,0.091464,1.3719599,-0.769822,129.90001,-158.1,-15.3,,,,,,
459617,1.8674023,9.362134,-3.4381258,0.26677,1.059458,-1.06708,134.70001,-155.70001,-14.700001,,,,,,
459640,1.5168905,8.944032,-3.2748327,0.480186,0.525918,-1.516778,132.3,-143.70001,-17.7,,,,,,
459660,1.1603974,8.60967,-3.1396525,0.46494198,0.26677,-1.775926,134.70001,-153.3,-18.900002,,,,,,
459721,0.6292464,7.7914104,-3.2640662,-0.396344,0.99086,-1.272874,137.1,-150.90001,-14.700001,,,,,,
459893,-0.7763896,9.20243,-3.3442173,-0.55640596,1.996964,-2.2408679,156.3,-158.1,-15.3,,,,,,
459913,-1.2543058,9.079212,-3.5583525,-0.480186,2.2865999,-1.8826339,141.90001,-146.1,-22.5,,,,,,
459957,-1.4528893,9.198242,-3.008061,-0.22865999,1.41007,-1.5929979,153.90001,-150.90001,-10.5,,,,,,
459977,-1.5862751,9.355555,-2.668316,-0.442076,1.516778,-1.455802,149.1,-150.90001,-14.700001,,,,,,
459999,-1.8123732,9.237122,-2.64439,-0.625004,2.500016,-1.6539739,158.70001,-148.5,-17.7,,,,,,
460019,-1.8859448,9.061268,-2.8046925,-0.617382,2.545748,-1.501534,153.90001,-141.3,-19.5,,,,,,
460039,-1.9942087,9.159962,-2.6970267,-0.548784,1.707328,-1.250008,156.3,-146.1,-15.900001,,,,,,
460059,-1.8907299,9.214991,-2.694036,-0.640248,1.3567159,-1.1128119,151.5,-141.3,-8.700001,,,,,,
460079,-1.8602246,8.92848,-2.6366143,-0.70122397,0.907018,-0.91463995,149.1,-150.90001,-16.5,,x,,,,
460099,-1.7764846,8.99607,-2.6007257,-0.55640596,0.28201398,-0.53354,158.70001,-146.1,-17.7,,x,,,,
460119,-1.8566358,8.811842,-2.5038264,-0.396344,-0.41158798,-0.358234,151.5,-143.70001,-11.1,,x,,,,
460139,-1.7758865,9.4105835,-2.423077,-0.060976,-1.1356779,0.07622,163.5,-143.70001,-12.3,,x,,,,
460199,-3.2269814,9.65642,-2.159296,0.182928,-0.708846,1.3872039,153.90001,-143.70001,-17.7,,x,,,,
460310,-2.3794127,9.017005,-3.280216,2.317088,-7.782062,5.79272,141.90001,-146.1,-12.3,,x,,,,
460332,-1.6945391,8.349478,-2.6180718,2.073184,-11.16623,5.86894,153.90001,-158.1,-21.900002,,x,,,,
460373,-0.5963485,6.906757,-2.054023,2.6677,-13.269901,3.35368,139.5,-148.5,-14.1,,x,,,,
460393,-0.9211402,6.4294386,-1.7495682,3.056422,-12.019894,2.042696,151.5,-155.70001,-12.900001,,x,,,,
460413,-0.9516455,6.652546,-2.627044,3.8262439,-10.701288,1.760682,139.5,-160.5,-14.700001,,x,,,,
460433,-0.13518031,7.3368216,-2.9009933,3.92533,-12.675385,2.408552,134.70001,-148.5,-14.700001,,x,,,,
460453,0.11005831,7.299737,-2.065986,2.408552,-12.827826,1.8826339,129.90001,-158.1,-23.7,,x,,,,
460474,0.041271865,6.138143,-2.7311208,2.149404,-7.8887696,1.684462,129.90001,-153.3,-17.7,,x,,,,
460495,0.49346796,6.107638,-4.5333257,2.7439198,-4.68753,2.6677,144.3,-160.5,-15.3,,x,,,,
460556,3.2102332,12.127947,-7.736381,2.873494,-4.603688,4.740884,115.50001,-155.70001,-14.700001,,x,,,,
460616,3.4524813,11.291743,-8.835768,0.907018,-3.8262439,1.25763,127.50001,-165.3,-20.1,,x,,,,
460636,3.5505767,11.108711,-9.08938,1.547266,-2.13416,0.091464,125.100006,-153.3,-14.700001,,x,,,,
460676,1.1316864,9.348974,-7.790812,-0.449698,-0.320124,-2.2408679,113.100006,-160.5,-16.5,,x,,,,
460696,-0.11065645,8.852516,-7.90745,0.625004,1.8826339,-2.82014,117.9,-162.90001,-14.700001,,x,,,,
460756,-0.64898515,8.606679,-3.9220235,-4.237832,2.560992,-4.9543,129.90001,-148.5,-21.300001,,x,,,,
460936,-0.30325848,8.045621,-3.4159944,-1.760682,7.73633,-2.2942219,161.1,-143.70001,-16.5,,x,,,,
460976,-0.31761393,8.174222,-3.4165926,-1.6463519,6.394858,-1.958854,146.70001,-143.70001,-19.5,,x,,,,
460996,-0.037084863,8.424844,-2.752056,-2.416174,5.22107,-1.8826339,141.90001,-150.90001,-14.1,,x,,,,
461038,-1.3685511,7.631108,-3.9064717,-2.05794,8.247004,-2.7972739,153.90001,-150.90001,-11.700001,,x,,,,
461111,-1.5156943,9.253272,-2.3620665,-2.926848,4.4207597,-2.179892,149.1,-148.5,-19.5,,x,,,,
461276,-1.7166703,9.851415,-2.911162,-0.198172,1.265252,-1.6387299,151.5,-143.70001,-18.900002,,x,,,,
461296,-1.8835522,9.694701,-3.033781,-0.602138,1.71495,-2.2713559,163.5,-153.3,-19.5,,,,,,
461338,-1.7053056,9.392041,-2.828618,-0.53354,1.021348,-1.737816,163.5,-143.70001,-13.500001,,,,,,
461358,-1.6670245,9.217383,-2.4703305,-0.960372,1.493912,-1.3795819,175.5,-146.1,-15.900001,,,,,,
461398,-1.8392897,8.917713,-2.7682056,-0.884152,2.93447,-0.853664,161.1,-134.1,-11.1,,,,,,
461418,-1.8195509,8.832777,-2.8758714,-0.663114,1.98172,-0.320124,168.3,-141.3,-18.900002,,,,,,
461440,-1.4397302,9.113306,-2.5301447,-0.510674,0.92226195,0.144818,163.5,-148.5,-10.5,,,,,,
461460,-1.2291838,9.169532,-2.4745176,-0.72409,0.87653,0.07622,158.70001,-143.70001,-18.300001,,,,,,
461480,-1.3171108,8.817225,-2.7490652,-0.602138,1.006104,-0.060976,173.1,-141.3,-18.300001,,,,,,
461520,-1.27225,8.993678,-2.4793026,0.198172,-0.49543,0.69360197,170.70001,-148.5,-6.3,,,,,,
461564,-2.0354805,8.933864,-2.47691,0.099086,-0.72409,0.525918,161.1,-134.1,-20.1,,,,,,
461584,-2.033088,9.779039,-2.2370548,0.03811,-2.301844,1.425314,168.3,-141.3,-14.700001,,,,,,
461608,-2.413507,10.605673,-0.99291736,-1.532022,-4.45887,1.41007,161.1,-148.5,-8.1,,,,,,
461628,-3.6749904,10.261143,0.22370547,-2.17227,-1.6006199,0.16768399,175.5,-155.70001,-18.300001,,x,,,,
461649,-4.6840577,9.504492,-1.0634983,-1.3872039,3.452766,-0.40396598,163.5,-143.70001,-17.1,,x,,,,
461669,-5.3162947,8.85431,-1.940974,-0.899396,2.080806,0.434454,165.90001,-148.5,-18.300001,,x,,,,
461690,-4.643384,9.28617,-1.6251545,-1.158544,-1.699706,2.355198,161.1,-136.5,-11.1,,x,,,,
461750,-2.8477588,8.580959,-2.748467,1.9131219,-6.5244317,4.443626,146.70001,-143.70001,-15.3,,x,,,,
461773,-1.8554395,7.2142024,-2.2944765,3.102154,-9.405548,3.8109999,144.3,-150.90001,-14.700001,,x,,,,
461793,-1.4756187,6.1058435,-3.107951,3.879598,-9.5275,3.7195358,137.1,-148.5,-19.5,,x,,,,
461815,0.03409415,6.8260074,-3.6056058,3.330814,-12.797338,4.984788,149.1,-160.5,-15.3,,x,,,,
461835,0.94566405,8.21669,-2.6689138,0.93750596,-13.887283,4.260698,139.5,-148.5,-12.3,,x,,,,
461855,0.1752559,6.3139973,-3.0212202,-0.16768399,-8.391822,0.830798,137.1,-146.1,-25.500002,,x,,,,
461875,-0.11962859,4.987914,-5.225377,2.2027578,-2.317088,0.320124,141.90001,-160.5,-23.7,,x,,,,
461937,1.7340164,7.651445,-3.2706459,-1.6082419,-16.402544,0.091464,127.50001,-148.5,-22.5,,x,,,,
461993,1.3691492,11.004635,-6.514375,1.41007,-0.510674,-0.388722,134.70001,-155.70001,-17.7,,x,,,,
462013,1.3709437,10.808443,-6.946234,1.8445239,-1.303362,-0.28201398,134.70001,-160.5,-26.7,,x,,,,
462054,1.9128612,12.999441,-8.749636,2.97258,3.8262439,0.899396,137.1,-160.5,-21.900002,,x,,,,
462074,1.907478,12.331914,-9.373499,1.6387299,1.3872039,-1.227142,127.50001,-150.90001,-23.1,,x,,,,
462094,2.0384712,11.557319,-7.8841224,-1.440558,-2.370442,-2.32471,139.5,-150.90001,-23.1,,x,,,,
462114,1.5820881,10.801266,-6.364241,-3.498498,1.440558,-2.484772,125.100006,-155.70001,-24.900002,,x,,,,
462134,0.69504213,9.645056,-6.4402056,-3.871976,8.323224,-2.2180018,141.90001,-148.5,-22.5,,x,,,,
462155,-0.15970418,8.566006,-6.969562,-4.100636,9.885734,-1.798792,132.3,-167.70001,-28.500002,,x,,,,
462176,-0.68128484,8.402713,-6.25837,-4.260698,6.112844,-0.785066,149.1,-160.5,-20.7,,x,,,,
462236,0.099291734,8.26514,-2.7323172,-3.399412,7.2409,-1.417692,139.5,-153.3,-18.300001,,x,,,,
462256,0.061010584,8.03306,-2.958415,-3.7271578,10.579336,-1.661596,146.70001,-158.1,-24.300001,,x,,,,
462278,-0.09689916,7.6550336,-3.3286657,-3.2774599,10.998546,-1.471046,129.90001,-150.90001,-21.300001,,x,,,,
462300,-0.29966962,7.350579,-2.8226366,-2.7286758,8.993959,-1.3643379,139.5,-150.90001,-26.1,,x,,,,
462320,-0.21114446,7.4708056,-2.4290586,-1.98172,8.53664,-1.539644,137.1,-160.5,-25.500002,,x,,,,
462340,-0.32060462,7.111322,-2.3082337,-1.471046,8.551884,-2.126538,151.5,-155.70001,-18.300001,,x,,,,
462361,-0.39477435,7.266839,-2.5181818,-0.792688,8.025966,-1.821658,137.1,-150.90001,-19.5,,x,,,,
462381,-0.1740596,8.064163,-2.4613583,-0.320124,5.8765616,-1.577754,141.90001,-153.3,-18.900002,,x,,,,
462401,-0.08314187,8.371011,-1.8195509,-1.1280559,4.054904,-2.065562,156.3,-158.1,-21.300001,,x,,,,
462422,-0.31402507,8.546267,-1.4116174,-1.6234859,5.091496,-2.347576,137.1,-153.3,-21.300001,,x,,,,
462442,-1.0288059,8.189176,-1.8518506,-1.996964,6.70736,-3.025934,151.5,-150.90001,-20.1,,x,,,,
462464,-0.8673073,8.405704,-2.3710387,-1.48629,5.670768,-2.560992,144.3,-146.1,-21.300001,,x,,,,
462484,-0.78177285,8.658718,-1.8141676,-1.425314,3.7424018,-2.309466,156.3,-158.1,-19.5,,x,,,,
462504,-0.73272514,8.67726,-1.6341265,-1.310984,4.03966,-1.8673899,149.1,-153.3,-20.1,,x,,,,
462524,-0.7034161,7.9732456,-1.6203693,-1.425314,3.58234,-1.6082419,151.5,-153.3,-23.1,,x,,,,
462544,-0.49227166,8.103043,-1.447506,-1.227142,3.2241058,-1.211898,163.5,-153.3,-13.500001,,x,,,,
462564,-0.38640037,8.837563,-1.5264609,-0.754578,3.376546,-0.769822,158.70001,-143.70001,-17.7,,x,,,,
462628,-1.2082489,9.036744,-2.2902894,0.525918,2.332332,-1.044214,153.90001,-141.3,-18.300001,,,,,,
462658,-0.57660985,10.351462,-3.1318767,1.189032,0.792688,-0.480186,153.90001,-146.1,-16.5,,,,,,
462678,-1.0940034,9.74973,-2.3333557,0.53354,-0.907018,-1.478668,146.70001,-148.5,-13.500001,,,,,,
462718,-1.4241784,9.764684,-2.789739,-0.091464,0.56402797,-1.56251,163.5,-148.5,-19.5,,,,,,
462738,-1.7441849,9.214393,-2.8334033,0.068598,0.373478,-1.440558,170.70001,-143.70001,-15.3,,,,,,
462758,-1.9098705,9.685131,-2.7759814,-0.045732,-0.22865999,-0.754578,165.90001,-134.1,-15.900001,,,,,,
462778,-1.7459793,9.843638,-2.4649472,-0.449698,-0.754578,-0.83842,153.90001,-131.70001,-14.700001,,,,,,
462798,-1.8775707,9.69829,-2.2538028,-0.731712,-0.274392,-1.303362,170.70001,-143.70001,-16.5,,,,,,
462820,-2.3267763,8.891396,-2.4709287,-0.69360197,0.45731997,-1.509156,170.70001,-148.5,-20.1,,,,,,
462840,-2.368048,8.884217,-2.659942,-0.30488,-0.129574,-0.480186,168.3,-153.3,-17.1,,,,,,
462900,-1.782466,9.56969,-2.250812,-0.297258,-0.53354,0.07622,163.5,-153.3,-10.5,,,,,,
462920,-1.761531,9.622924,-2.0982854,-0.34298998,-0.46494198,0.022866,165.90001,-148.5,-25.500002,,,,,,
462940,-1.6353229,9.197046,-2.137763,-0.182928,-0.182928,-0.015244,163.5,-146.1,-15.900001,,,,,,
462963,-1.5150962,9.134839,-2.0139475,0.083841994,-0.396344,0.19055,161.1,-136.5,-26.1,,,,,,
462983,-1.3900843,9.085792,-1.9989938,0.22865999,-0.274392,0.34298998,170.70001,-134.1,-19.5,,,,,,
463003,-1.3147182,9.390246,-2.1682682,0.47256398,-0.28201398,0.388722,153.90001,-143.70001,-19.5,,,,,,
463023,-1.3230922,9.114503,-2.046247,0.55640596,-0.594516,0.03811,158.70001,-148.5,-27.300001,,,,,,
463085,-2.0187325,9.2484865,-2.280121,1.1356779,-1.173788,0.518296,173.1,-138.90001,-14.1,,,,,,
463135,-3.100175,11.5052805,-1.6532671,0.67073596,-2.7744079,2.012208,151.5,-141.3,-12.900001,,,,,,
463157,-4.347303,10.039231,-1.0168431,-0.327746,-2.675322,0.7622,151.5,-148.5,-14.1,,,,,,
463198,-4.727722,9.644457,-1.6060139,0.663114,-1.989342,4.596066,153.90001,-148.5,-11.700001,,x,,,,
463220,-4.2408338,9.423742,-1.5659384,0.891774,-3.50612,5.03052,144.3,-153.3,-21.300001,,x,,,,
463260,-3.191691,7.9122353,-2.1299872,1.493912,-6.036624,4.76375,141.90001,-153.3,-11.1,,x,,,,
463280,-2.4930599,7.422356,-2.301654,1.775926,-8.841519,4.87808,132.3,-141.3,-20.1,,x,,,,
463324,-1.0473484,6.0005703,-2.8022997,2.32471,-12.058003,4.4055157,137.1,-165.3,-11.700001,,x,,,,
463433,2.3058412,8.994874,-5.6871433,2.7439198,-14.611374,6.219552,129.90001,-160.5,-18.900002,,x,,,,
463454,2.5241632,7.920609,-4.0482316,3.2164838,-12.050382,3.7119138,115.50001,-150.90001,-18.300001,,x,,,,
463494,2.8393848,10.262938,-6.589143,2.431418,-4.359784,4.923812,108.3,-150.90001,-14.1,,x,,,,
463534,2.3698425,10.4471655,-7.446282,2.522882,-1.509156,1.1432999,103.50001,-160.5,-17.1,,x,,,,
463670,2.0863228,10.854501,-7.300933,-2.652456,3.917708,-1.8673899,108.3,-158.1,-15.900001,,x,,,,
463694,1.313522,9.3459835,-6.94444,-4.245454,4.34454,-3.01069,103.50001,-148.5,-21.300001,,x,,,,
463734,0.80749303,8.506789,-4.5082035,-4.4055157,4.359784,-2.59148,120.3,-160.5,-18.300001,,x,,,,
463754,0.47971067,8.671279,-4.3987436,-3.8186219,7.69822,-2.7591639,113.100006,-160.5,-18.300001,,x,,,,
463775,0.24464047,8.005546,-4.8670893,-2.6829438,7.957368,-3.117398,110.700005,-167.70001,-14.700001,,x,,,,
463795,0.61847985,8.060575,-4.0691667,-2.903982,4.123502,-2.93447,122.700005,-162.90001,-17.1,,x,,,,
463817,0.94087887,7.754924,-2.6748953,-3.445144,4.718018,-3.2774599,117.9,-160.5,-19.5,,x,,,,
463877,0.41570938,7.3194757,-3.6133816,-1.8902559,5.9527817,-2.431418,134.70001,-153.3,-15.900001,,x,,,,
463972,-0.31761393,6.958197,-3.1360636,-2.385686,10.571713,-4.199722,139.5,-150.90001,-17.7,,x,,,,
463992,-0.42408335,7.4947314,-3.112736,-1.440558,7.6524878,-3.879598,146.70001,-155.70001,-25.500002,,x,,,,
464032,-1.0736667,7.5677047,-1.1849213,-1.996964,6.4329677,-5.0533857,153.90001,-148.5,-21.900002,,x,,,,
464052,-1.7059038,7.132257,-2.4272642,-0.69360197,9.10829,-4.855214,151.5,-148.5,-14.700001,,x,,,,
464072,-2.1204169,7.8105507,-2.4069273,-0.388722,5.243936,-3.589962,149.1,-138.90001,-19.5,,x,,,,
464092,-1.9212352,8.695205,-1.4469079,-1.1204339,3.064044,-2.911604,156.3,-150.90001,-20.1,,x,,,,
464155,-2.3022523,9.84962,-2.8459642,0.426832,4.908568,-1.692084,156.3,-153.3,-17.1,,x,,,,
464212,-2.8680956,10.55842,-2.7089896,-0.41921,1.935988,-2.36282,153.90001,-141.3,-15.900001,,x,,,,
464232,-3.184513,9.90465,-2.999687,-0.846042,0.94512796,-2.416174,165.90001,-143.70001,-8.700001,,x,,,,
464274,-2.652764,9.406995,-2.584576,-0.67835796,-2.7134318,-0.792688,170.70001,-136.5,-9.900001,,x,,,,
464294,-2.1880069,9.31488,-2.2861025,-0.739334,-2.012208,-0.060976,163.5,-136.5,-17.7,,x,,,,
464314,-1.7214555,9.492529,-2.200568,-0.846042,-1.3948259,0.35061198,173.1,-141.3,-13.500001,,x,,,,
464334,-1.4122156,9.545764,-1.9906198,-0.95274997,-0.87653,0.35061198,180.3,-150.90001,-20.7,,,,,,
464397,-1.3655604,8.696999,-2.1371648,-0.388722,-0.03811,0.198172,161.1,-136.5,-16.5,,,,,,
464453,-0.7733989,9.398621,-2.5947442,0.602138,-1.8292799,-0.022866,175.5,-134.1,-22.5,,,,,,
464473,-0.5263658,9.330432,-2.3656554,0.091464,-1.3948259,-0.434454,177.90001,-141.3,-20.7,,,,,,
464516,-0.66274244,8.682643,-2.7257376,0.243904,0.20579399,-0.388722,177.90001,-129.3,-18.900002,,,,,,
464557,-1.661043,8.585744,-2.334552,0.67073596,0.746956,-0.640248,175.5,-146.1,-9.900001,,x,,,,
464696,-5.5585427,9.625317,-0.7087994,1.509156,-1.1432999,1.577754,163.5,-155.70001,-17.1,,x,,,,
464716,-5.690732,8.6766615,-1.2142302,1.539644,-2.17227,1.326228,163.5,-134.1,-12.900001,,x,,,,
464756,-4.9603996,6.314595,-3.4459016,3.7195358,-4.9924097,3.12502,170.70001,-138.90001,-13.500001,,x,,,,
464776,-3.8514426,6.517964,-3.9597065,3.7728899,-9.840002,4.428382,151.5,-131.70001,-19.5,,x,,,,
464796,-2.393768,6.3235674,-3.7748804,3.574718,-12.987887,4.519846,158.70001,-143.70001,-17.7,,x,,,,
464816,-2.275934,4.8946037,-4.393958,3.536608,-11.372024,3.7500238,161.1,-143.70001,-18.300001,,x,,,,
464881,1.589864,5.5992165,-2.7299244,2.2865999,-14.870522,4.740884,144.3,-146.1,-23.1,,x,,,,
465354,-0.573021,7.2070246,-3.7467675,-3.3079479,3.833866,-0.716468,127.50001,-153.3,-17.1,,x,,,,
465374,0.29847333,7.816532,-2.5163875,-4.03966,0.129574,-0.487808,137.1,-150.90001,-22.5,,x,,,,
465414,-0.07058087,7.1555843,-1.8769727,-3.628072,10.243968,-2.55337,127.50001,-165.3,-25.500002,,x,,,,
465470,0.1531246,6.8056707,-1.3697474,-2.2561119,1.8597679,-0.91463995,144.3,-162.90001,-22.5,,x,,,,
465493,0.10646945,7.7292037,-0.61070395,-1.8369019,6.654006,-1.699706,134.70001,-148.5,-21.900002,,x,,,,
465533,-0.4019521,7.1567807,-0.73751026,-2.149404,6.0290017,-3.559474,141.90001,-153.3,-27.300001,,x,,,,
465553,-1.2746427,6.8762517,-1.037778,-1.570132,6.4939437,-3.147886,163.5,-155.70001,-23.1,,x,,,,
465575,-1.7848586,7.4450855,-1.5246664,-0.91463995,5.686012,-2.149404,127.50001,-158.1,-22.5,,x,,,,
465637,-1.1932952,9.472192,-1.3362514,-0.442076,4.679908,-1.935988,134.70001,-150.90001,-20.1,,x,,,,
465736,-2.2328677,10.111009,-2.669512,-0.121952,1.471046,-2.149404,153.90001,-150.90001,-23.1,,,,,,
465774,-2.045649,10.027867,-2.019929,-0.388722,-0.16768399,-1.3719599,156.3,-150.90001,-18.900002,,,,,,
465794,-1.6927446,9.6695795,-1.8189528,-0.69360197,0.434454,-1.242386,151.5,-146.1,-14.700001,,,,,,
465837,-1.6131916,8.899769,-1.9756663,-0.510674,1.173788,-0.030488,156.3,-148.5,-20.1,,x,,,,
465877,-0.8607277,9.679748,-1.8225416,-0.060976,-0.030488,0.41158798,156.3,-150.90001,-18.900002,,x,,,,
466092,-3.1510172,9.224561,-0.9953099,0.602138,-1.5244,0.67073596,153.90001,-143.70001,-14.700001,,x,,,,
466217,-4.4651375,7.2136045,-0.80510044,2.454284,-8.132674,3.940574,141.90001,-158.1,-21.300001,,x,,,,
466395,3.8765645,11.275593,-6.573591,4.291186,-9.001582,6.890288,113.100006,-155.70001,-17.7,,x,,,,
466432,2.4882748,8.820814,-8.76399,4.87808,-2.7667859,3.932952,103.50001,-148.5,-20.1,,x,,,,
466454,3.5110993,12.241594,-9.232935,3.643316,-2.926848,5.586926,105.9,-160.5,-19.5,,x,,,,
466496,3.9238179,11.353352,-10.949007,4.5579557,-1.051836,-0.70122397,91.5,-158.1,-14.1,,x,,,,
466516,4.438221,11.564496,-10.30062,0.94512796,-4.123502,0.083841994,101.100006,-148.5,-11.700001,,x,,,,
466557,2.9548264,11.464606,-9.9937725,0.20579399,7.271388,-1.974098,110.700005,-153.3,-14.1,,x,,,,
466577,2.7891407,11.277986,-10.138523,-2.660078,5.03052,-1.814036,101.100006,-148.5,-15.900001,,x,,,,
466621,1.6628375,9.871154,-6.9857116,-5.571682,3.7957559,-1.775926,108.3,-158.1,-12.900001,,x,,,,
466641,1.4355432,9.792198,-6.4665236,-5.739366,6.730226,-2.469528,101.100006,-155.70001,-15.3,,x,,,,
466661,1.03718,9.465612,-6.5239453,-5.0991178,7.69822,-3.1783738,98.700005,-162.90001,-15.3,,x,,,,
466684,0.49346796,8.571389,-5.977243,-5.350644,4.009172,-3.46801,103.50001,-155.70001,-17.7,,x,,,,
466704,0.4396351,7.778849,-4.176832,-5.9985137,0.785066,-3.1936178,103.50001,-148.5,-13.500001,,x,,,,
466724,0.24164976,7.8243084,-2.9428635,-5.228692,3.650938,-2.2942219,117.9,-162.90001,-22.5,,x,,,,
466804,0.33017492,7.853617,-1.3529994,-4.237832,2.7972739,-2.431418,125.100006,-162.90001,-18.300001,,x,,,,
466844,-0.17465775,7.111322,-3.4913604,-2.027452,7.9040136,-2.987824,137.1,-162.90001,-17.1,,x,,,,
466915,-0.7943339,6.995282,-2.4123106,-1.951232,7.9040136,-3.864354,129.90001,-155.70001,-19.5,,x,,,,
466935,-1.1418549,7.1974545,-2.2573917,-1.303362,4.679908,-2.949714,137.1,-150.90001,-23.7,,x,,,,
466975,-1.192697,8.277102,-0.76801556,-1.3948259,3.528986,-2.888738,134.70001,-162.90001,-22.5,,x,,,,
467019,-1.5133017,7.4528613,-1.5390218,-0.899396,3.079288,-2.042696,137.1,-148.5,-15.900001,,x,,,,
467154,-0.9229346,11.152974,-2.7592335,0.365856,2.614346,-0.320124,153.90001,-155.70001,-22.5,,x,,,,
467174,-1.0928072,10.273106,-2.347711,0.327746,0.579272,-1.4024479,149.1,-167.70001,-17.7,,x,,,,
467214,-1.0599093,9.387854,-2.6001275,0.41921,0.64787,-0.221038,132.3,-148.5,-20.1,,x,,,,
467234,-1.037778,9.616344,-2.8429735,0.442076,-0.327746,0.030488,151.5,-153.3,-26.7,,x,,,,
467254,-0.2978752,10.585935,-2.9470503,0.41921,-1.1432999,0.327746,139.5,-155.70001,-21.300001,,x,,,,
467297,-0.09211402,9.156373,-2.385394,-1.211898,-1.9054999,-0.640248,146.70001,-146.1,-21.900002,,,,,,
467356,-0.3271842,9.397425,-2.836992,-0.434454,-2.073184,0.022866,153.90001,-158.1,-25.500002,,,,,,
467536,-0.65795726,8.409292,-3.0313885,0.289636,1.806414,-0.144818,146.70001,-143.70001,-14.1,,,,,,
467572,-0.12501188,9.998558,-2.991313,0.708846,0.312502,-0.60976,149.1,-148.5,-17.1,,,,,,
467633,-0.6723127,9.411779,-3.3729281,0.045732,0.55640596,-0.449698,163.5,-148.5,-26.1,,,,,,
467653,-0.76801556,9.548156,-3.2407386,-0.297258,0.53354,-0.7622,139.5,-158.1,-21.900002,,,,,,
467673,-0.98753405,9.451257,-3.0134442,-0.754578,0.625004,-1.158544,144.3,-153.3,-24.300001,,,,,,
467693,-1.2046599,9.091773,-2.761028,-0.95274997,0.57164997,-1.18141,151.5,-155.70001,-12.900001,,,,,,
467753,-1.3691492,9.134839,-2.594146,-0.708846,1.539644,-0.33536798,151.5,-146.1,-20.1,,,,,,
467773,-1.2393522,8.859096,-2.5008357,-0.312502,0.792688,-0.243904,156.3,-158.1,-15.900001,,,,,,
467793,-1.0736667,8.9865,-2.355487,-0.11432999,0.602138,0.068598,163.5,-155.70001,-14.700001,,,,,,
467813,-0.9719823,8.985304,-2.4033384,-0.11432999,0.83842,0.129574,151.5,-150.90001,-14.700001,,,,,,
467881,-0.535338,9.351367,-2.743682,0.083841994,0.022866,0.07622,149.1,-160.5,-17.1,,,,,,
467941,-0.57421726,9.298731,-2.652764,-0.121952,0.34298998,-0.129574,149.1,-146.1,-13.500001,,,,,,
467961,-0.5449082,9.318469,-2.5235653,-0.091464,0.11432999,-0.221038,146.70001,-155.70001,-15.900001,,x,,,,
467984,-0.5239732,9.325647,-2.5163875,-0.160062,0.068598,-0.26677,149.1,-160.5,-13.500001,,x,,,,
468007,-0.6705183,9.186279,-2.3112245,-0.22865999,-0.083841994,-0.20579399,146.70001,-148.5,-20.1,,x,,,,
468027,-0.81766146,9.230542,-2.2914858,-0.243904,-0.198172,-0.015244,151.5,-160.5,-18.300001,,x,,,,
468047,-0.86910176,8.842946,-2.187409,-0.106708,-0.617382,0.137196,141.90001,-155.70001,-18.900002,,x,,,,
468067,-1.2190154,9.093568,-1.6957353,0.053354,-1.173788,0.746956,156.3,-153.3,-18.900002,,x,,,,
468087,-1.6137897,10.061363,-1.7214555,0.297258,-0.746956,0.846042,158.70001,-148.5,-15.900001,,x,,,,
468107,-1.7567459,10.607468,-1.4612633,0.26677,-1.8292799,0.396344,144.3,-146.1,-20.1,,x,,,,
468167,-4.082326,8.491238,0.19678904,-0.625004,0.792688,1.21952,156.3,-148.5,-15.3,,x,,,,
468227,-3.3872836,7.7292037,-2.0336862,3.330814,-5.9070497,2.850628,156.3,-148.5,-19.5,,x,,,,
468354,0.71179014,7.5862474,-3.1061563,2.599102,-9.79427,3.2317278,149.1,-162.90001,-20.7,,x,,,,
468374,1.3841028,8.586941,-4.38379,2.2789779,-7.43145,1.8445239,125.100006,-155.70001,-18.900002,,x,,,,
468416,1.9517405,9.16056,-7.02818,4.283564,-6.158576,3.094532,127.50001,-143.70001,-20.7,,x,,,,
468496,2.6120903,12.854093,-9.403405,3.2698379,0.746956,-0.11432999,120.3,-155.70001,-21.900002,,x,,,,
468714,0.54789895,7.717241,-3.0612957,-3.7957559,4.5884438,-2.40093,151.5,-148.5,-21.300001,,x,,,,
468734,0.20097604,6.8983827,-2.502032,-3.2774599,7.263766,-2.500016,137.1,-158.1,-22.5,,x,,,,
468776,0.45638308,7.8500285,-3.0098555,-0.884152,5.10674,-1.013726,144.3,-153.3,-22.5,,x,,,,
468818,0.33316565,7.4576464,-1.6269488,-2.492394,8.254626,-3.117398,141.90001,-148.5,-24.300001,,x,,,,
468858,0.1824336,7.757316,-3.2604773,-1.425314,5.9680257,-2.36282,156.3,-146.1,-15.900001,,x,,,,
468954,-1.1526215,7.8889074,-3.242533,-0.72409,5.800342,-2.43904,168.3,-155.70001,-17.7,,x,,,,
468974,-1.2788297,8.961976,-3.4022372,-0.274392,3.902464,-1.3872039,141.90001,-153.3,-15.900001,,x,,,,
469014,-1.6520709,9.180897,-2.43504,-1.089946,2.027452,-1.699706,163.5,-141.3,-13.500001,,x,,,,
469058,-2.347711,9.521838,-3.7132716,-0.297258,2.530504,-0.983238,151.5,-143.70001,-15.900001,,x,,,,
469098,-2.5965385,9.521838,-2.7550466,-0.99086,-0.47256398,-0.830798,165.90001,-141.3,-19.5,,x,,,,
469213,-3.401639,9.210804,-3.0726604,-0.602138,-2.179892,0.716468,170.70001,-153.3,-17.7,,,,,,
469373,-0.028112719,9.292151,-2.535528,-0.525918,-0.853664,-0.853664,153.90001,-143.70001,-17.1,,,,,,
469436,0.1752559,9.881322,-2.9799483,0.739334,2.17227,-2.2180018,158.70001,-148.5,-15.3,,,,,,
469494,-0.7387066,8.26514,-3.1516154,0.602138,2.55337,-4.314052,173.1,-143.70001,-24.300001,,,,,,
469514,-0.9241309,8.468508,-3.8358908,1.6082419,2.43904,-3.16313,175.5,-146.1,-18.900002,,,,,,
469554,-1.0886202,8.614455,-3.3017492,0.846042,0.716468,-2.347576,173.1,-138.90001,-20.1,,,,,,
469574,-1.1155367,8.613258,-3.547586,0.68597996,1.3719599,-1.509156,189.90001,-136.5,-12.3,,,,,,
469597,-1.1113496,9.148597,-3.4171908,0.396344,1.021348,-0.868908,180.3,-131.70001,-21.300001,,,,,,
469617,-1.1538178,9.567895,-3.2072427,-0.083841994,1.6463519,-0.91463995,177.90001,-134.1,-15.3,,,,,,
469637,-1.3380458,9.149793,-3.2233925,-0.49543,2.522882,-1.6463519,177.90001,-126.9,-15.3,,,,,,
469658,-1.522872,8.752626,-3.2664587,-0.53354,2.7591639,-1.516778,194.70001,-131.70001,-18.900002,,,,,,
469678,-1.6137897,9.150392,-3.2658606,-0.41921,2.446662,-1.013726,192.3,-136.5,-15.900001,,,,,,
469700,-1.9391795,9.283777,-2.8459642,-0.777444,1.570132,-0.663114,175.5,-131.70001,-17.7,,,,,,
469720,-2.121613,9.089979,-2.2615786,-1.3643379,1.204276,-0.663114,175.5,-141.3,-12.3,,,,,,
469744,-2.4948545,8.853114,-2.0737617,-1.02897,2.2027578,-0.41158798,177.90001,-131.70001,-13.500001,,,,,,
469764,-2.950041,9.060072,-2.464349,-0.541162,2.179892,0.03811,197.1,-141.3,-19.5,,x,,,,
469784,-3.3065343,9.156971,-2.2035587,-0.221038,0.67073596,0.503052,177.90001,-136.5,-15.3,,x,,,,
469807,-3.5505767,9.947716,-2.0564156,-0.099086,-0.68597996,1.189032,185.1,-131.70001,-7.5000005,,x,,,,
469827,-4.32577,9.466809,-1.6239581,-0.518296,-1.1204339,0.67073596,173.1,-134.1,-11.700001,,x,,,,
469849,-4.752844,9.50509,-2.1909976,0.503052,-1.8521459,1.8902559,170.70001,-134.1,-15.900001,,x,,,,
469869,-4.941259,9.100745,-1.7035112,0.541162,-4.0320377,2.583858,175.5,-129.3,-8.1,,x,,,,
469889,-5.007055,8.990687,-1.8650098,1.051836,-2.835384,3.833866,175.5,-129.3,-14.1,,x,,,,
469913,-4.4615483,8.923097,-2.7000175,1.56251,-3.841488,4.9619217,170.70001,-136.5,-15.3,,x,,,,
469933,-3.7748804,8.936256,-2.6001275,1.6463519,-6.471078,5.990892,177.90001,-141.3,-11.700001,,x,,,,
469953,-2.5098078,8.866872,-2.5803888,1.9054999,-7.416206,6.280528,175.5,-136.5,-13.500001,,x,,,,
469973,-1.698726,8.713149,-2.8980026,2.149404,-8.414688,5.815586,153.90001,-141.3,-12.3,,x,,,,
469993,-1.8147658,6.8284,-2.8716843,2.454284,-9.458901,4.359784,156.3,-148.5,-10.5,,x,,,,
470015,-0.7393047,7.017413,-2.9590132,3.102154,-12.378128,5.60217,151.5,-141.3,-14.1,,x,,,,
470035,-0.37563378,8.475088,-1.6137897,1.669218,-14.512288,4.8857017,153.90001,-143.70001,-20.7,,x,,,,
470059,-0.5473008,7.368523,-1.9559275,1.6463519,-9.039692,1.532022,144.3,-141.3,-11.1,,x,,,,
470079,-0.29309005,6.59991,-2.1018744,1.044214,-9.847624,1.692084,146.70001,-150.90001,-26.1,,x,,,,
470099,-0.56703955,5.62374,-1.9302074,0.640248,-9.352194,1.707328,158.70001,-148.5,-21.900002,,x,,,,
470159,1.2854092,7.3410087,-4.848547,4.0015497,-1.745438,5.541194,129.90001,-158.1,-24.900002,,x,,,,
470199,2.7251394,10.233628,-8.106631,6.006136,2.7058098,4.9543,146.70001,-148.5,-20.7,,x,,,,
470276,2.2741396,10.953793,-9.764086,1.326228,-1.417692,-0.251526,129.90001,-143.70001,-17.7,,x,,,,
470296,2.4254696,11.6996765,-9.393237,0.80793196,0.099086,-1.204276,127.50001,-146.1,-14.1,,x,,,,
470336,1.1490326,10.71633,-8.10723,-2.2408679,5.762232,-3.08691,129.90001,-150.90001,-15.900001,,x,,,,
470357,0.17884475,9.899266,-8.388955,-2.195136,8.856764,-3.094532,141.90001,-148.5,-15.3,,x,,,,
470397,-0.42408335,9.633691,-7.267437,-3.871976,4.5427117,-2.149404,127.50001,-155.70001,-18.900002,,x,,,,
470418,-0.5066271,9.189869,-6.196761,-4.23021,4.710396,-2.621968,141.90001,-141.3,-21.900002,,x,,,,
470438,-0.76502484,8.360245,-5.7009006,-4.169234,5.5335717,-2.652456,139.5,-146.1,-11.700001,,x,,,,
470458,-0.7787821,7.703483,-5.0291862,-4.5274677,3.833866,-2.507638,144.3,-143.70001,-12.900001,,x,,,,
470478,-0.41989636,7.5114794,-3.7892358,-5.160094,1.75306,-1.996964,137.1,-146.1,-17.1,,x,,,,
470498,-0.35410064,7.3481865,-2.8268237,-4.5731997,4.184478,-1.8521459,149.1,-155.70001,-20.1,,x,,,,
470518,-0.41570938,7.4050097,-3.3053381,-3.2927039,7.0503497,-2.01983,137.1,-155.70001,-12.3,,x,,,,
470542,-0.58797455,7.0180116,-3.3466098,-2.7896519,5.67839,-2.378064,149.1,-143.70001,-8.1,,x,,,,
470562,-0.5443101,7.203436,-2.7197561,-2.675322,3.117398,-2.301844,144.3,-138.90001,-19.5,,x,,,,
470582,-0.67709786,6.991693,-2.1467352,-2.187514,5.243936,-2.660078,139.5,-160.5,-21.900002,,x,,,,
470603,-0.72315484,6.798493,-2.6264458,-1.684462,6.181442,-2.583858,151.5,-146.1,-17.7,,x,,,,
470665,-0.62565756,8.522939,-1.5617512,-3.2164838,5.8613176,-2.873494,141.90001,-158.1,-21.300001,,x,,,,
470693,-1.271652,7.777055,-2.9841354,-2.644834,8.757678,-3.414656,144.3,-153.3,-18.900002,,x,,,,
470713,-1.531246,8.375796,-3.8568258,-1.509156,5.5335717,-2.652456,156.3,-155.70001,-20.1,,x,,,,
470753,-1.3787196,8.803469,-1.8470654,-1.8445239,0.548784,-2.088428,161.1,-143.70001,-17.7,,x,,,,
470773,-1.493563,8.589334,-1.7274369,-2.408552,2.2484899,-1.974098,156.3,-148.5,-21.900002,,,,,,
470793,-2.049836,7.778849,-2.2137272,-2.599102,3.483254,-1.265252,165.90001,-141.3,-17.1,,,,,,
470813,-1.6933428,9.153382,-2.7711964,-1.814036,2.13416,0.426832,156.3,-143.70001,-20.7,,,,,,
470834,-1.2441374,9.731786,-2.4045348,-1.303362,0.20579399,0.030488,156.3,-146.1,-15.900001,,,,,,
470854,-1.7280351,9.307105,-1.8380934,-1.585376,-0.426832,-1.1204339,161.1,-153.3,-18.900002,,,,,,
470874,-1.7746902,8.923097,-1.9325999,-1.1204339,0.746956,-0.99086,156.3,-136.5,-15.3,,,,,,
470894,-2.1443427,9.436303,-2.0145454,-1.006104,0.754578,-0.868908,165.90001,-138.90001,-21.300001,,,,,,
470977,-1.8644116,9.301124,-2.0432563,-1.082324,0.640248,0.16768399,151.5,-146.1,-17.7,,,,,,
470997,-1.7035112,9.00265,-2.1431463,-0.83842,0.396344,0.655492,161.1,-138.90001,-20.7,,,,,,
471017,-1.2447355,8.959583,-2.0629952,-0.41921,-0.053354,0.99086,168.3,-141.3,-20.7,,,,,,
471057,-0.9534399,8.716738,-2.2310734,-0.007622,0.35061198,0.47256398,153.90001,-143.70001,-20.7,,,,,,
471192,-0.73272514,9.303515,-2.8094776,0.15244,-0.137196,-0.396344,146.70001,-146.1,-19.5,,,,,,
471238,-0.75665087,9.040931,-2.5450983,0.129574,-0.34298998,-0.594516,151.5,-150.90001,-14.700001,,,,,,
471258,-0.8768776,9.124671,-2.7969165,0.259148,0.11432999,-0.602138,170.70001,-143.70001,-23.7,,,,,,
471298,-0.98095447,9.3459835,-2.689849,0.03811,-0.137196,-0.617382,163.5,-155.70001,-23.1,,,,,,
471318,-0.95284176,9.182093,-2.6928396,-0.121952,0.106708,-0.57164997,149.1,-150.90001,-18.300001,,,,,,
471338,-0.9953099,8.992481,-2.6533623,-0.320124,0.45731997,-0.320124,165.90001,-141.3,-23.7,,,,,,
471358,-1.1143403,8.913527,-2.551678,-0.34298998,0.708846,-0.091464,163.5,-150.90001,-9.3,,,,,,
471380,-1.029404,9.467407,-2.6677177,-0.07622,0.82317597,0.17530599,156.3,-150.90001,-21.900002,,,,,,
471400,-0.97616935,9.504492,-2.53493,-0.144818,0.746956,-0.182928,153.90001,-150.90001,-15.3,,,,,,
471423,-1.004282,9.288562,-2.3895812,-0.28201398,0.81555396,-0.358234,151.5,-150.90001,-18.900002,,,,,,
471463,-1.1155367,9.094166,-2.7801685,0.259148,0.777444,0.213416,168.3,-146.1,-20.1,,,,,,
471484,-1.1986785,8.847731,-2.668316,0.3811,-0.007622,0.243904,153.90001,-143.70001,-15.900001,,,,,,
471504,-1.1041719,9.048109,-2.635418,0.602138,-0.3811,0.579272,168.3,-138.90001,-16.5,,,,,,
471524,-1.3942713,9.350171,-2.4206846,0.586894,-0.80030996,0.708846,153.90001,-158.1,-10.5,,x,,,,
471546,-1.6287433,9.919004,-2.354889,0.358234,-1.036592,0.960372,163.5,-148.5,-17.7,,x,,,,
471586,-3.0134442,9.402807,-1.5767049,-0.213416,-0.792688,0.769822,163.5,-158.1,-17.7,,x,,,,
471648,-4.37721,9.304114,-1.506124,0.091464,-2.408552,1.577754,158.70001,-148.5,-17.7,,x,,,,
471670,-3.7892358,9.52782,-2.4260678,0.64787,-3.2850819,2.2027578,158.70001,-136.5,-21.300001,,x,,,,
471690,-3.8095727,8.164053,-2.9733686,1.775926,-4.778994,2.141782,153.90001,-148.5,-16.5,,x,,,,
471730,-2.5785944,6.460542,-2.7634206,2.416174,-11.28056,3.955818,144.3,-141.3,-15.3,,x,,,,
471776,-0.9492529,7.186688,-2.5947442,3.368924,-14.55802,6.3567476,144.3,-160.5,-18.900002,,x,,,,
471796,-0.77997845,7.3745046,-1.740596,2.7362978,-14.428446,4.832348,134.70001,-158.1,-18.900002,,x,,,,
471837,0.36725977,5.966476,-2.489471,2.964958,-13.498562,5.0076537,134.70001,-162.90001,-18.300001,,x,,,,
471877,0.9576269,5.551365,-2.9984908,3.521364,-8.742434,4.53509,125.100006,-155.70001,-21.900002,,x,,,,
472034,2.3590758,11.059066,-10.2103,2.355198,1.6463519,-0.663114,115.50001,-155.70001,-20.1,,x,,,,
472093,1.3284756,10.206114,-8.985902,-3.39179,3.856732,-4.72564,115.50001,-138.90001,-12.3,,x,,,,
472137,-0.67889225,8.644362,-6.5287304,-5.266802,5.0838737,-2.903982,132.3,-153.3,-14.700001,,x,,,,
472157,-0.9881322,8.411685,-5.4287457,-5.670768,4.474114,-2.461906,129.90001,-158.1,-17.7,,x,,,,
472197,-0.5233751,7.3703175,-3.8185446,-4.9619217,4.024416,-2.09605,139.5,-160.5,-14.1,,x,,,,
472237,-0.29189378,7.1029477,-2.7245412,-3.513742,6.303394,-1.440558,132.3,-150.90001,-22.5,,x,,,,
472257,0.17166704,7.4115896,-2.761028,-2.7744079,6.112844,-1.516778,134.70001,-150.90001,-12.900001,,x,,,,
472277,0.24523862,7.489348,-2.150922,-3.2469718,5.762232,-1.798792,134.70001,-148.5,-14.1,,x,,,,
472317,-0.04844958,7.552153,-2.807085,-2.850628,9.352194,-2.6677,129.90001,-158.1,-17.7,,x,,,,
472357,-0.030505292,7.973844,-2.1269965,-2.850628,6.6311398,-2.7134318,137.1,-153.3,-18.300001,,x,,,,
472377,-0.124413736,8.021695,-2.1060615,-2.7667859,8.3842,-2.843006,139.5,-143.70001,-15.3,,x,,,,
472397,-0.24942562,7.973844,-2.6378105,-2.347576,8.468041,-2.6905658,149.1,-158.1,-20.7,,x,,,,
472440,-0.62027425,8.508584,-2.0348823,-1.532022,5.4421077,-2.050318,139.5,-162.90001,-20.1,,x,,,,
472460,-0.89422375,8.761,-1.7740921,-1.783548,6.227174,-2.576236,151.5,-158.1,-21.300001,,x,,,,
472480,-0.72794,8.792104,-2.242438,-1.265252,6.791202,-2.7744079,139.5,-153.3,-20.1,,,,,,
472500,-1.2590909,8.54208,-2.4398253,-1.288118,6.257662,-2.55337,137.1,-141.3,-13.500001,,,,,,
472524,-1.4702355,8.837563,-2.7849536,-0.60976,5.434486,-1.79117,151.5,-153.3,-17.7,,,,,,
472544,-1.5414144,9.636682,-2.8292162,-0.49543,3.62045,-1.6387299,151.5,-146.1,-14.1,,,,,,
472564,-1.6921464,9.136036,-2.3273742,-0.82317597,2.850628,-2.560992,149.1,-158.1,-18.900002,,,,,,
472626,-1.7453812,8.711952,-3.1803262,0.19055,0.53354,-0.69360197,149.1,-134.1,-17.1,,,,,,
472795,-1.267465,8.980518,-2.8208423,-0.068598,0.068598,-1.189032,156.3,-141.3,-9.900001,,,,,,
472815,-1.1233125,8.863881,-2.9458542,0.106708,-0.40396598,-0.289636,158.70001,-143.70001,-18.900002,,,,,,
472855,-0.81467074,9.041529,-2.715569,-0.022866,-0.731712,0.099086,153.90001,-146.1,-18.300001,,,,,,
472896,-0.7716044,9.067847,-2.8459642,-0.251526,-0.663114,-0.480186,151.5,-146.1,-15.3,,,,,,
472916,-0.61847985,9.152185,-2.798711,-0.099086,-0.94512796,-0.41921,173.1,-155.70001,-11.700001,,,,,,
472936,-0.5724228,9.268824,-2.4308531,-0.327746,-1.013726,-0.68597996,161.1,-129.3,-13.500001,,,,,,
472978,-0.8798683,9.143811,-2.635418,-0.518296,0.46494198,-0.998482,151.5,-141.3,-14.1,,,,,,
472998,-0.90798104,9.110315,-2.5863702,-0.312502,0.243904,-0.785066,158.70001,-141.3,-21.900002,,,,,,
473018,-0.9845433,9.032557,-2.7221487,-0.17530599,0.47256398,-0.739334,161.1,-146.1,-14.700001,,,,,,
473041,-0.8021097,9.209009,-2.723943,0.17530599,0.22865999,-0.525918,158.70001,-153.3,-20.7,,,,,,
473102,-1.1574067,9.0217905,-2.7676075,0.20579399,0.983238,-0.34298998,163.5,-141.3,-15.3,,,,,,
473126,-1.3057461,9.106129,-2.8316088,0.30488,0.746956,-0.312502,156.3,-143.70001,-13.500001,,x,,,,
473146,-1.5174887,9.002051,-2.5869684,0.17530599,0.23628199,-0.198172,163.5,-143.70001,-12.3,,x,,,,
473166,-1.8458692,9.37649,-2.5110042,0.007622,0.221038,0.40396598,146.70001,-153.3,-18.900002,,x,,,,
473186,-2.4900692,9.785619,-2.3668518,-0.41158798,0.083841994,0.480186,165.90001,-143.70001,-15.3,,x,,,,
473206,-3.0606976,10.001549,-2.1939883,-0.70122397,0.22865999,0.67835796,158.70001,-138.90001,-19.5,,x,,,,
473226,-4.012343,10.380772,-2.296869,-1.6539739,0.60976,0.960372,158.70001,-143.70001,-17.1,,x,,,,
473311,-4.4238653,8.372208,-2.4739194,-0.80030996,-4.123502,3.7271578,153.90001,-150.90001,-21.300001,,x,,,,
473574,1.0808444,7.8506265,-3.55596,2.873494,-4.908568,1.6082419,127.50001,-160.5,-23.7,,x,,,,
473594,1.5408163,8.734682,-5.024999,3.7805119,-1.737816,1.3414719,122.700005,-162.90001,-15.900001,,x,,,,
473634,1.5970417,11.282173,-7.8099527,3.08691,0.769822,1.3490939,120.3,-153.3,-12.3,,x,,,,
473693,1.794429,11.458625,-9.174317,1.44818,0.137196,-0.487808,113.100006,-160.5,-15.900001,,x,,,,
473714,1.7172685,11.447858,-9.217981,1.204276,1.097568,-0.87653,105.9,-165.3,-13.500001,,x,,,,
473754,1.5216757,11.94671,-8.095267,-2.423796,3.117398,-2.614346,110.700005,-153.3,-19.5,,x,,,,
473774,0.78416544,11.143404,-7.898478,-3.094532,5.8613176,-3.1859958,127.50001,-167.70001,-14.1,,x,,,,
473794,0.1016843,10.073326,-7.639482,-4.093014,5.632658,-3.0488,115.50001,-160.5,-16.5,,x,,,,
473814,-0.05443101,9.549951,-6.6208444,-4.9161897,3.2012398,-1.974098,125.100006,-153.3,-15.900001,,x,,,,
473834,0.028112719,8.922499,-4.6080933,-5.25918,2.538126,-1.699706,127.50001,-160.5,-23.1,,x,,,,
473854,0.15790975,8.554641,-4.1762342,-5.000032,3.003068,-1.8521459,127.50001,-162.90001,-21.900002,,x,,,,
473874,0.22310732,7.608977,-3.5206695,-4.626554,3.978684,-2.17227,120.3,-158.1,-22.5,,x,,,,
473897,0.2087519,6.9097476,-2.7927296,-3.1783738,4.76375,-1.760682,127.50001,-162.90001,-20.7,,x,,,,
473917,0.33854893,7.058087,-2.7622242,-2.500016,4.9009457,-1.768304,127.50001,-155.70001,-18.900002,,x,,,,
473961,0.67889225,7.1848936,-1.9983957,-1.501534,5.0991178,-2.370442,125.100006,-160.5,-18.900002,,x,,,,
474055,0.17106889,7.961881,-2.0468452,-1.585376,6.0747337,-2.7439198,146.70001,-148.5,-23.1,,x,,,,
474075,0.07835673,7.9265904,-2.0911078,-1.6463519,6.59303,-2.522882,132.3,-148.5,-24.900002,,x,,,,
474117,-0.4312611,8.262149,-1.9780588,-1.1204339,4.245454,-2.126538,141.90001,-148.5,-18.300001,,x,,,,
474137,-0.2697625,8.781337,-1.6377155,-1.478668,3.8033779,-2.17227,149.1,-146.1,-12.3,,x,,,,
474177,-1.2525114,9.030763,-3.1276896,0.23628199,5.800342,-2.40093,149.1,-155.70001,-16.5,,x,,,,
474241,-1.4792075,9.186878,-1.949348,-0.47256398,2.13416,-2.538126,151.5,-155.70001,-20.7,,x,,,,
474356,-2.6838675,9.039137,-2.9972944,-0.144818,1.554888,-1.71495,173.1,-131.70001,-20.7,,x,,,,
474376,-2.400946,9.508678,-3.5810819,0.297258,0.53354,-0.967994,165.90001,-143.70001,-14.700001,,,,,,
474418,-2.179035,8.856703,-2.3913755,-0.099086,-2.118916,0.182928,170.70001,-136.5,-21.300001,,,,,,
474439,-2.187409,8.920704,-2.326178,-0.015244,-0.41921,0.274392,161.1,-146.1,-21.300001,,,,,,
474483,-1.8985058,9.822105,-2.7723927,0.106708,-0.45731997,-0.129574,170.70001,-143.70001,-22.5,,,,,,
474533,-1.9547312,8.58395,-3.4231722,1.554888,-0.327746,0.853664,163.5,-148.5,-25.500002,,,,,,
474553,-1.5450033,9.33103,-3.2903845,1.493912,-1.577754,1.089946,168.3,-138.90001,-18.900002,,,,,,
474595,-1.2710538,8.871656,-3.5158844,0.80793196,-0.16768399,0.480186,175.5,-129.3,-17.7,,,,,,
474635,-0.84996116,9.073231,-3.7742822,0.434454,0.053354,0.579272,173.1,-136.5,-9.3,,,,,,
474655,-0.6657331,9.076819,-3.5164826,0.121952,-0.396344,0.365856,170.70001,-143.70001,-19.5,,,,,,
474675,-0.7434917,8.802272,-3.1581948,-0.289636,-0.182928,0.060976,168.3,-138.90001,-12.900001,,,,,,
474715,-0.5963485,9.039137,-2.9715743,-0.655492,0.632626,-0.632626,163.5,-136.5,-16.5,,,,,,
474755,-0.95523435,8.948817,-2.7885425,-0.57164997,1.3948259,-1.303362,158.70001,-148.5,-21.300001,,x,,,,
475072,-1.2770352,7.462432,-3.7587304,3.094532,-13.239413,4.756128,144.3,-141.3,-14.1,,x,,,,
475092,-0.014953574,7.0724425,-2.3357482,2.538126,-16.448277,4.5274677,146.70001,-148.5,-28.500002,,x,,,,
475132,0.11484345,5.2487044,-2.987724,2.7667859,-7.2409,2.942092,146.70001,-150.90001,-11.700001,,x,,,,
475215,2.8052905,7.952909,-5.97485,3.323192,-4.634176,4.68753,146.70001,-155.70001,-23.7,,x,,,,
475254,2.8501513,9.275403,-6.1100307,3.170752,-3.12502,4.161612,127.50001,-162.90001,-18.300001,,x,,,,
475274,3.0445478,10.567392,-7.3111014,3.46801,1.9054999,3.437522,120.3,-158.1,-16.5,,x,,,,
475317,3.589456,11.402998,-9.309497,2.621968,-0.45731997,0.746956,120.3,-162.90001,-15.3,,x,,,,
475359,2.7412891,11.748724,-8.929078,0.853664,0.70122397,-1.02897,115.50001,-153.3,-15.3,,x,,,,
475497,-0.38221335,8.70298,-5.5663185,-4.778994,5.8765616,-3.7119138,120.3,-155.70001,-16.5,,x,,,,
475517,-0.38998923,8.219083,-5.494541,-4.146368,6.0442457,-3.056422,132.3,-155.70001,-17.1,,x,,,,
475537,-0.12740445,8.073734,-4.5488772,-4.5731997,3.39179,-2.964958,125.100006,-158.1,-12.3,,x,,,,
475557,0.25839776,8.056388,-3.3854892,-4.222588,3.384168,-2.7210538,122.700005,-150.90001,-11.700001,,x,,,,
475577,-0.04605701,7.67238,-3.2030556,-3.7195358,7.073216,-3.018312,134.70001,-148.5,-19.5,,x,,,,
475600,-0.7710063,6.9241033,-4.285096,-2.32471,7.225656,-2.8048959,144.3,-150.90001,-23.1,,x,,,,
475640,-0.47971067,7.388262,-2.2460268,-2.6829438,0.746956,-2.141782,137.1,-153.3,-24.300001,,x,,,,
475677,-0.24882747,7.3224664,-2.497247,-1.958854,5.152472,-1.920744,127.50001,-165.3,-25.500002,,x,,,,
475697,-0.47073853,7.5443773,-2.744878,-1.745438,3.932952,-1.935988,137.1,-153.3,-17.7,,x,,,,
475739,-0.702818,7.8745522,-2.3883848,-2.17227,5.0381417,-3.071666,165.90001,-162.90001,-17.7,,x,,,,
475759,-1.0114597,7.3272514,-2.4075255,-2.141782,4.100636,-2.843006,144.3,-146.1,-21.900002,,x,,,,
475779,-1.0383762,7.4355154,-1.9625071,-1.974098,2.538126,-2.05794,141.90001,-153.3,-19.5,,x,,,,
475801,-0.6681257,8.171829,-1.4833946,-1.8445239,1.806414,-1.417692,156.3,-155.70001,-21.300001,,x,,,,
475821,-0.59275967,9.103736,-0.8511574,-3.003068,1.768304,-1.554888,153.90001,-146.1,-24.900002,,x,,,,
475863,-1.6221638,7.5539474,-1.4965537,-2.2103798,3.46801,-1.722572,158.70001,-143.70001,-18.900002,,x,,,,
475905,-2.154511,9.11869,-2.167072,0.22865999,1.196654,-1.8978779,153.90001,-141.3,-23.7,,,,,,
475967,-2.1724553,10.2103,-2.5929499,1.227142,0.091464,-1.821658,156.3,-141.3,-20.7,,,,,,
476033,-2.1006782,10.27789,-2.9775558,0.28201398,-0.975616,-0.99086,163.5,-136.5,-19.5,,,,,,
476054,-1.9481517,10.329929,-3.0882123,-0.518296,-0.525918,-0.861286,163.5,-129.3,-14.700001,,,,,,
476095,-1.8039992,8.984706,-2.622259,-0.868908,0.251526,0.099086,170.70001,-129.3,-22.5,,,,,,
476155,-1.4199914,8.983509,-2.1892033,-0.640248,0.35061198,-0.23628199,163.5,-134.1,-22.5,,,,,,
476175,-1.4917686,8.630605,-2.36745,-0.754578,1.3490939,-0.19055,182.70001,-134.1,-18.900002,,,,,,
476215,-1.5174887,9.186878,-2.9446578,0.33536798,0.708846,0.11432999,175.5,-143.70001,-20.1,,,,,,
476258,-1.3936732,8.814235,-2.4105163,-0.099086,0.068598,-0.221038,158.70001,-146.1,-23.7,,,,,,
476338,-1.7274369,9.310096,-2.0384712,0.053354,-1.097568,-0.137196,168.3,-138.90001,-17.7,,,,,,
476378,-2.6132867,9.34419,-2.3237855,0.518296,-0.213416,0.259148,158.70001,-134.1,-23.7,,,,,,
476398,-3.5314362,9.752721,-1.9989938,0.967994,-1.6539739,0.93750596,156.3,-141.3,-19.5,,,,,,
476458,-5.569907,8.046219,-0.83321315,-0.07622,-1.074702,1.158544,163.5,-148.5,-14.1,,x,,,,
476478,-5.3354354,8.429629,-1.3045498,0.030488,-2.957336,3.955818,168.3,-150.90001,-17.7,,x,,,,
476498,-4.2061415,8.599502,-1.3308681,0.640248,-4.809482,4.390272,151.5,-131.70001,-21.300001,,x,,,,
476521,-3.0439496,7.7878213,-1.5366293,1.02897,-6.318638,4.237832,141.90001,-155.70001,-19.5,,x,,,,
476541,-2.3148134,6.8469424,-1.9110668,1.722572,-7.271388,4.83997,156.3,-148.5,-20.7,,x,,,,
476562,-1.0563204,7.2447076,-2.5456965,2.919226,-9.504634,5.838452,149.1,-141.3,-18.300001,,x,,,,
476582,-0.06459944,7.845243,-2.4153013,3.08691,-12.111358,5.3963757,144.3,-158.1,-18.900002,,x,,,,
476645,0.70461243,7.4480762,-2.819048,2.408552,-9.001582,4.9619217,129.90001,-150.90001,-18.900002,,x,,,,
476665,0.5144029,7.730998,-3.4692292,2.2942219,-6.608274,2.187514,122.700005,-162.90001,-19.5,,x,,,,
476686,0.71358454,6.6860423,-3.5110993,2.13416,-7.865904,0.746956,149.1,-146.1,-22.5,,x,,,,
476706,0.5676377,6.756623,-3.6163723,2.51526,-5.160094,1.432936,134.70001,-162.90001,-21.900002,,x,,,,
476726,0.35948393,7.6293135,-5.2935653,4.53509,-0.289636,3.041178,127.50001,-162.90001,-16.5,,x,,,,
476746,1.0850314,9.33761,-6.7326975,3.399412,-2.035074,4.199722,122.700005,-160.5,-18.300001,,x,,,,
476767,1.2267913,10.730685,-6.012533,1.02897,-4.5579557,2.6829438,115.50001,-165.3,-24.300001,,x,,,,
476850,1.3547938,11.350361,-8.311196,0.960372,-2.873494,-0.312502,127.50001,-155.70001,-12.900001,,x,,,,
476890,1.384701,10.930465,-8.070145,1.280496,0.20579399,-0.548784,129.90001,-150.90001,-13.500001,,x,,,,
477113,-0.16927446,7.806962,-3.7354028,-1.463424,5.708878,-0.739334,127.50001,-153.3,-17.7,,x,,,,
477135,0.15372275,7.8554115,-3.757534,-1.303362,5.5640597,-0.518296,134.70001,-155.70001,-13.500001,,x,,,,
477219,0.52516955,7.577873,-3.2491126,-3.071666,6.9436417,-0.22865999,129.90001,-155.70001,-13.500001,,x,,,,
477353,-0.2075556,8.140128,-1.1615937,-2.2408679,5.4573517,-2.538126,127.50001,-146.1,-16.5,,x,,,,
477373,-0.56464696,8.317776,-2.1317816,-1.75306,6.66925,-2.599102,134.70001,-150.90001,-24.300001,,x,,,,
477415,-0.92233646,8.936854,-2.317804,-0.91463995,4.748506,-2.949714,144.3,-146.1,-26.1,,x,,,,
477435,-1.2447355,8.772365,-2.2232974,-0.891774,4.603688,-3.2164838,149.1,-150.90001,-14.700001,,x,,,,
477455,-1.4343468,8.912929,-2.6330254,-0.396344,4.45887,-3.033556,141.90001,-158.1,-17.7,,x,,,,
477477,-1.619173,9.412377,-2.8280199,-0.274392,3.597584,-2.873494,141.90001,-148.5,-14.700001,,x,,,,
477537,-2.338141,9.008033,-2.5492854,-0.81555396,1.432936,-3.490876,144.3,-158.1,-15.900001,,x,,,,
477594,-2.1778386,10.488437,-2.883049,-0.82317597,-0.754578,-2.012208,168.3,-143.70001,-8.1,,x,,,,
477614,-2.1072576,9.378881,-2.3459167,-1.1128119,-0.80793196,-1.760682,153.90001,-155.70001,-20.7,,x,,,,
477654,-2.008564,9.37948,-2.317804,-1.234764,0.53354,-0.358234,170.70001,-150.90001,-18.300001,,x,,,,
477676,-1.9296092,9.345386,-2.7227468,-0.846042,0.53354,0.099086,161.1,-155.70001,-13.500001,,,,,,
477696,-1.6640338,9.3998165,-2.590557,-0.442076,-0.655492,0.525918,161.1,-143.70001,-18.900002,,,,,,
477717,-1.1819305,9.2054205,-2.0785468,-0.49543,-1.097568,0.67073596,161.1,-129.3,-14.1,,,,,,
477737,-1.074863,9.117494,-2.1503239,-0.586894,-0.45731997,0.579272,158.70001,-134.1,-23.7,,,,,,
477759,-1.0066746,9.005641,-2.5116024,-0.274392,0.007622,0.35061198,156.3,-158.1,-15.3,,,,,,
477779,-0.790745,9.001453,-2.7000175,0.30488,-0.518296,0.449698,161.1,-150.90001,-15.3,,,,,,
477799,-0.6071151,9.134839,-2.3267763,0.289636,-1.250008,0.579272,168.3,-138.90001,-16.5,,,,,,
477819,-0.4533924,8.958985,-2.0701728,-0.068598,-0.548784,0.30488,165.90001,-148.5,-17.7,,,,,,
477842,-0.41690564,8.938648,-2.3321595,-0.358234,0.373478,-0.045732,156.3,-148.5,-14.1,,x,,,,
477862,-0.54072124,8.781935,-2.5277522,-0.243904,0.442076,-0.259148,149.1,-148.5,-18.900002,,x,,,,
477924,-1.7716994,9.255066,-1.2578946,-0.45731997,-1.455802,0.487808,156.3,-146.1,-24.300001,,x,,,,
478074,-3.0307903,8.165848,-2.217914,2.2789779,-11.532085,3.536608,158.70001,-138.90001,-26.7,,x,,,,
478094,-2.2771304,8.223867,-0.81945586,1.3643379,-13.894906,4.176856,151.5,-153.3,-21.900002,,x,,,,
478134,-1.5581625,7.1406307,-1.6981279,1.989342,-11.539708,3.643316,137.1,-150.90001,-21.300001,,x,,,,
478154,-1.0096654,5.2947617,-0.68128484,1.56251,-14.474177,2.89636,144.3,-148.5,-17.1,,x,,,,
