time,sensor_accX,sensor_accY,sensor_accZ,sensor_gyroX,sensor_gyroY,sensor_gyroZ,sensor_magX,sensor_magY,sensor_magZ,label_Boxing_slip_left,label_Boxing_slip_right,label_Boxing_pullback,label_Boxing_roll_left,label_Boxing_roll_right,label_Boxing_recording_cut
700377,2.6671195,11.505878,-3.0463421,-1.3490939,-1.692084,0.95274997,74.700005,-174.90001,-20.1,,,,,,
700398,0.81467074,8.288467,-2.2274845,-1.021348,-3.025934,-3.2622159,69.9,-172.5,-23.7,,,,,,
700439,-0.0017944289,11.120076,-2.2280827,-2.644834,-1.06708,0.93750596,74.700005,-177.3,-20.1,,,,,,
700459,-0.64120924,9.5403805,-2.0665839,-1.783548,-0.632626,-1.3643379,81.9,-160.5,-17.7,,,,,,
700480,-0.6968366,9.922594,-2.1730535,-1.463424,-0.868908,0.121952,55.500004,-174.90001,-23.7,,,,,,
700501,-0.88226086,10.057774,-2.1150336,-1.71495,-0.785066,-0.07622,81.9,-170.1,-23.7,,,,,,
700521,-0.9139625,9.640868,-2.18382,-1.021348,-0.92226195,-0.640248,72.3,-165.3,-14.1,,,,,,
700541,-0.8056986,9.770665,-2.074958,-0.289636,-0.92226195,-0.56402797,77.100006,-172.5,-20.1,,,,,,
700561,-0.8212503,9.400414,-2.113239,-0.068598,-1.089946,-1.1051899,72.3,-172.5,-16.5,,,,,,
700581,-0.36666164,9.79818,-1.9864328,0.320124,-1.211898,-0.67835796,72.3,-172.5,-15.900001,,,,,,
700621,-0.15432088,8.904554,-1.8183546,0.007622,-0.55640596,-0.72409,72.3,-177.3,-18.900002,,,,,,
700641,0.011962859,9.14441,-1.8859448,0.22865999,-0.213416,0.03811,65.100006,-160.5,-23.1,,,,,,
700681,0.21473333,8.766383,-2.0061715,0.251526,-0.083841994,0.144818,77.100006,-165.3,-22.5,,,,,,
700741,0.6041244,9.72102,-2.0067697,0.20579399,0.297258,-0.11432999,77.100006,-172.5,-23.7,,,,,,
700794,0.6208724,9.632494,-1.9983957,0.083841994,-0.144818,-0.82317597,84.3,-170.1,-18.900002,,,,,,
700816,0.4940661,9.350171,-2.0647895,-0.327746,0.518296,-1.33385,81.9,-179.70001,-22.5,,,,,,
700858,0.4605701,8.5899315,-1.995405,-0.182928,-0.289636,-0.731712,86.700005,-162.90001,-21.300001,,,,,,
700878,0.80749303,9.12168,-1.8548414,-0.160062,0.129574,-0.099086,79.5,-170.1,-18.300001,,,,,,
700898,0.7040143,9.189869,-2.2819154,-0.23628199,0.975616,-0.442076,91.5,-170.1,-24.900002,,,,,,
700920,0.7010236,8.6329975,-2.5086117,0.045732,1.097568,-0.777444,74.700005,-182.1,-24.300001,,,,,,
700941,0.9085792,8.560622,-2.6725028,0.56402797,0.884152,-0.632626,79.5,-162.90001,-23.1,,,,,,
700961,1.2836149,8.515761,-2.7676075,0.442076,0.81555396,-0.3811,93.9,-172.5,-20.1,,,,,,
700981,1.7208574,8.473891,-2.95363,0.70122397,1.189032,0.03811,86.700005,-162.90001,-19.5,,,,,,
701001,2.2286806,9.171925,-3.06309,0.426832,1.250008,0.731712,89.100006,-165.3,-18.300001,,,,,,
701021,2.6892507,9.668383,-3.221,0.121952,2.2789779,0.60976,84.3,-165.3,-27.900002,,,,,,
701044,3.4907625,10.434604,-3.8651998,0.23628199,2.843006,-0.16768399,86.700005,-158.1,-16.5,,,,,,
701064,3.0385664,9.681542,-3.995595,0.22865999,2.080806,-1.440558,77.100006,-170.1,-19.5,,,,,,
701084,2.874675,8.899769,-4.136757,0.87653,2.035074,-1.6158639,86.700005,-174.90001,-18.300001,,,,,,
701106,2.878264,8.842347,-4.363453,1.288118,0.830798,-1.18141,86.700005,-155.70001,-21.900002,,,,,,
701126,2.8429735,8.892591,-4.0177264,0.777444,-0.19055,-0.92226195,81.9,-165.3,-15.3,,,,,,
701146,3.0463421,9.115101,-4.027895,0.69360197,0.182928,-1.006104,79.5,-167.70001,-22.5,,,,,,
701169,2.7927296,8.5576315,-3.9004903,-0.022866,0.41158798,-1.79117,89.100006,-158.1,-15.900001,,,,,,
701189,2.7729907,8.144913,-3.8604147,-0.045732,0.449698,-1.67684,91.5,-165.3,-18.300001,,,,,,
701209,2.7562428,8.107828,-3.4147983,-0.663114,-0.15244,-1.1280559,93.9,-172.5,-19.5,,,,,,
701229,2.7113822,8.274112,-2.91176,-1.288118,0.365856,-0.785066,91.5,-177.3,-20.1,,,,,,
701272,2.6868582,8.321365,-2.627044,-1.6234859,-0.099086,-0.30488,105.9,-162.90001,-13.500001,,,,,,
701292,2.7502613,8.217886,-2.4111142,-1.4024479,-0.083841994,-0.23628199,91.5,-158.1,-20.1,,,,,,
701312,2.903984,8.418862,-2.3411317,-1.074702,-0.64787,-0.030488,81.9,-162.90001,-23.1,,,,,,
701336,3.4339387,9.413574,-2.2819154,-0.754578,-0.95274997,0.49543,77.100006,-167.70001,-20.1,,,,,,
701357,3.6911402,9.79818,-2.0318916,-1.455802,-0.69360197,-0.602138,93.9,-165.3,-15.3,,,,,,
701377,2.9063766,7.7423625,-2.22569,-0.777444,0.55640596,-2.2865999,96.3,-160.5,-21.900002,,,,,,
701399,2.8411791,8.601894,-2.329767,0.068598,-0.129574,-0.47256398,101.100006,-170.1,-23.1,,,,,,
701461,-0.49645868,11.10273,-2.8022997,-0.967994,-0.19055,-0.967994,96.3,-158.1,-24.900002,,,,,,
701482,-1.0359837,9.183289,-2.522369,-0.586894,-1.280496,-1.8369019,89.100006,-165.3,-17.1,,,,,,
701503,-1.439132,8.560024,-2.3028505,0.106708,-2.942092,0.49543,101.100006,-162.90001,-20.7,,,,,,
701523,-0.4761218,9.648644,-1.83271,-0.33536798,-3.58234,2.7134318,98.700005,-162.90001,-21.300001,,,,,,
701543,-0.1573116,9.58883,-1.4540856,-0.40396598,-2.484772,1.8597679,93.9,-165.3,-16.5,,,,,,
701563,-0.18602246,8.869264,-1.8775707,-0.16768399,-1.059458,0.67073596,89.100006,-167.70001,-21.300001,,,,,,
701583,-0.07596416,9.142017,-2.1246037,0.541162,-1.196654,0.26677,84.3,-155.70001,-21.300001,,,,,,
701647,-0.57421726,9.197644,-2.974565,1.768304,0.388722,-2.042696,96.3,-167.70001,-17.1,,,,,,
701667,-0.20516303,9.154578,-2.8860397,1.547266,-0.967994,-2.141782,93.9,-170.1,-21.300001,,,,,,
701687,-0.24763119,8.790309,-2.6491752,1.173788,-0.03811,-1.745438,96.3,-179.70001,-18.300001,,,,,,
701707,-0.16448931,8.794497,-3.2987585,1.8902559,1.928366,-1.044214,103.50001,-162.90001,-15.900001,,,,,,
701727,0.14774132,8.977528,-3.7724876,1.326228,1.440558,-0.53354,98.700005,-160.5,-27.300001,,,,x,,
701747,0.4581775,8.897975,-3.485379,0.30488,0.33536798,-0.26677,91.5,-160.5,-24.300001,,,,x,,
701770,1.3063443,9.703673,-3.3298619,-0.518296,0.480186,-0.091464,89.100006,-158.1,-24.900002,,,,x,,
701790,1.2531096,9.0002575,-3.405228,-0.777444,1.692084,-1.303362,103.50001,-158.1,-20.1,,,,x,,
701810,1.5473958,8.574978,-4.0350723,0.030488,2.2942219,-1.265252,103.50001,-158.1,-13.500001,,,,x,,
701830,1.7453812,8.485854,-4.3054333,-0.198172,0.861286,-0.868908,117.9,-177.3,-17.7,,,,x,,
701850,2.0994818,9.214393,-4.0607924,-0.60976,0.083841994,-0.251526,98.700005,-162.90001,-14.1,,,,x,,
701872,2.715569,9.503296,-4.2647595,-0.625004,1.71495,-1.036592,96.3,-162.90001,-14.1,,,,x,,
701953,4.30005,8.128165,-3.3747227,-1.6158639,2.995446,-1.6158639,105.9,-172.5,-18.300001,,,,x,,
701998,4.1858044,6.3403153,-3.8891256,0.121952,3.7881339,-4.672286,110.700005,-160.5,-22.5,,,,x,,
702018,3.9315937,5.900082,-2.4344418,-0.99086,0.487808,-5.5488157,113.100006,-155.70001,-14.1,,,,x,,
702060,3.4668367,3.3531895,0.11603974,-1.425314,4.321674,-8.19365,127.50001,-150.90001,-15.900001,,,,x,,
702081,3.176139,2.987724,0.36367092,-1.722572,6.737848,-8.1555395,144.3,-158.1,-13.500001,,,,x,,
702102,2.196979,2.5869684,0.28591233,-1.227142,8.30798,-9.1159115,141.90001,-148.5,-17.7,,,,x,,
702126,0.54789895,1.6759967,0.24882747,-0.30488,9.001582,-9.893355,144.3,-155.70001,-14.700001,,,,x,,
702146,-0.8140726,2.3728333,0.30864176,1.189032,8.170784,-9.016826,163.5,-146.1,-20.7,,,,x,,
702166,-1.8961133,5.1111317,0.75366014,2.2484899,5.701256,-8.292736,158.70001,-134.1,-14.1,,,,x,,
702188,-3.1940835,7.3158865,0.8571389,2.51526,7.294254,-9.1463995,170.70001,-146.1,-16.5,,,,x,,
702208,-5.193077,9.525427,-1.3332607,4.855214,7.8277936,-9.22262,185.1,-131.70001,-14.1,,,,x,,
702228,-5.504112,9.30232,-1.3727381,3.399412,2.164648,-9.900978,185.1,-122.100006,-10.5,,,,x,,
702270,-6.175826,10.624215,-0.8978126,2.111294,0.060976,-7.0808377,194.70001,-126.9,-7.5000005,,,,x,,
702300,-7.8625894,9.359143,-2.3818054,3.109776,-2.17227,-4.87808,206.70001,-124.50001,-9.900001,,,,x,,
702320,-7.744157,9.9937725,-2.5744073,1.9131219,-5.586926,-2.050318,204.3,-105.3,-13.500001,,,,x,,
702362,-6.4246535,13.251858,-2.515191,-0.144818,-8.7653,1.577754,213.90001,-110.100006,-20.1,,,,x,,
702382,-6.6483593,12.431206,-1.2848111,-0.251526,-12.675385,-1.44818,211.50002,-122.100006,-12.3,,,,x,,
702402,-8.607277,10.369407,-1.5366293,0.198172,-8.346089,-2.599102,216.3,-117.3,-16.5,,,,x,,
702425,-5.25648,12.048992,-2.8148608,2.530504,-12.522945,4.093014,209.1,-105.3,-18.900002,,,,x,,
702445,-7.104742,15.113876,-1.443319,-1.8673899,-12.2409315,3.521364,213.90001,-105.3,-18.900002,,,,x,,
702487,-7.151397,10.710348,-6.58376,4.9619217,-6.966508,3.437522,204.3,-129.3,-19.5,,,,x,,
702509,-7.3834767,12.377971,-4.815051,-2.378064,-14.733326,7.385718,221.1,-117.3,-14.700001,,,,x,,
702529,-6.607087,14.14309,-4.580579,0.45731997,-8.285114,8.0945635,209.1,-126.9,-18.900002,,,,x,,
702549,-5.706284,12.980301,-6.3959427,2.7972739,-5.175338,4.5427117,209.1,-122.100006,-18.900002,,,,x,,
702569,-6.9635806,10.661899,-7.418169,3.109776,-4.786616,4.64942,201.90001,-131.70001,-23.7,,,,x,,
702589,-5.805576,13.666968,-8.552248,2.560992,-5.708878,10.74702,187.5,-134.1,-25.500002,,,,x,,
702609,-2.560052,15.726974,-8.582753,-0.022866,-6.966508,9.535122,192.3,-124.50001,-22.5,,,,x,,
702632,-3.9758563,13.657398,-8.308804,0.769822,-7.881148,3.7119138,177.90001,-131.70001,-23.7,,,,x,,
702653,-3.1773355,12.160247,-8.845937,1.547266,-6.654006,7.538158,175.5,-136.5,-17.7,,,,x,,
702674,-2.1467352,13.683717,-8.024088,-1.227142,-7.08846,8.72719,165.90001,-143.70001,-27.300001,,,,x,,
702736,0.13278773,12.356438,-8.518154,-3.452766,-5.076252,10.06104,165.90001,-155.70001,-24.300001,,,,x,,
702897,2.2747378,6.7703805,-3.9943988,-1.6387299,5.9527817,5.5488157,108.3,-167.70001,-26.1,,,,x,,
702919,2.271149,6.124984,-4.007558,-1.455802,5.282046,3.536608,103.50001,-172.5,-26.7,,,,x,,
702959,2.3584778,4.8503413,-2.1275945,-1.75306,4.641798,1.768304,93.9,-170.1,-25.500002,,,,x,,
703001,1.6927446,4.4023323,-2.338739,-0.518296,8.330846,1.158544,103.50001,-167.70001,-23.1,,,,x,,
703076,1.6084064,6.233846,-0.90798104,-1.4024479,5.686012,0.030488,89.100006,-186.90001,-26.7,,,,x,,
703139,1.6616411,7.3242607,-0.2548089,-0.80793196,3.0488,-0.243904,101.100006,-174.90001,-23.1,,,,x,,
703334,1.2261931,9.295142,-1.7872512,1.806414,2.423796,-0.93750596,98.700005,-167.70001,-13.500001,,,,x,,
703377,1.5402181,10.273106,-2.4039366,0.891774,-0.480186,-0.396344,110.700005,-167.70001,-20.1,,,,,,
703397,1.3452235,9.816124,-2.2992616,0.373478,-0.81555396,-1.577754,101.100006,-167.70001,-23.7,,,,,,
703437,0.7644267,9.196448,-2.255597,-0.586894,-0.632626,-1.928366,108.3,-160.5,-19.5,,,,,,
703458,0.723753,9.046314,-2.4374325,-0.137196,-0.69360197,-1.539644,103.50001,-179.70001,-21.300001,,,,,,
703478,0.7428936,8.972144,-2.129389,-0.26677,-1.577754,-0.846042,115.50001,-174.90001,-23.1,,,,,,
703500,0.8924293,9.606774,-1.9690866,-0.251526,-0.998482,0.03811,110.700005,-165.3,-20.7,,,,,,
703560,0.6597517,9.066651,-2.1694646,0.358234,-0.92226195,0.518296,105.9,-160.5,-27.300001,,,,,,
703580,0.73272514,9.507483,-2.4045348,0.617382,-0.739334,0.785066,101.100006,-162.90001,-16.5,,,,,,
703602,0.67889225,9.34419,-2.4649472,0.320124,-1.097568,0.34298998,98.700005,-174.90001,-24.300001,,,,,,
703622,0.723753,9.143811,-2.372235,0.221038,-1.1204339,0.33536798,105.9,-162.90001,-22.5,,,,,,
703642,0.9953099,9.421948,-2.5038264,0.022866,-0.72409,0.388722,105.9,-165.3,-17.7,,,,,,
703682,0.9534399,9.470398,-2.7705982,-0.358234,-0.198172,-0.868908,98.700005,-155.70001,-20.1,,,,x,,
703702,1.1675751,8.847133,-2.7951221,-0.49543,-0.785066,-0.83842,108.3,-170.1,-21.900002,,,,x,,
703724,1.3183072,8.845338,-2.535528,-1.1356779,-0.998482,-0.198172,110.700005,-165.3,-28.500002,,,,x,,
703744,1.2333708,8.528322,-2.6306329,-0.81555396,-0.20579399,-0.327746,103.50001,-165.3,-24.900002,,,,x,,
703764,1.5204794,8.496023,-2.920732,-0.091464,-0.373478,-0.060976,113.100006,-155.70001,-25.500002,,,,x,,
703784,2.0923042,9.459631,-2.7269337,-0.251526,-0.93750596,0.297258,117.9,-170.1,-20.1,,,,x,,
703806,2.0641913,9.107923,-2.6174736,-0.868908,-0.213416,-0.868908,115.50001,-165.3,-26.7,,,,x,,
703826,2.0013864,8.595314,-2.6408012,-0.868908,0.091464,-1.310984,115.50001,-160.5,-21.900002,,,,x,,
703846,2.0683784,8.755018,-2.7299244,-0.853664,0.358234,-1.71495,115.50001,-155.70001,-23.1,,,,x,,
703868,2.0558174,8.614455,-3.1940835,-0.3811,0.998482,-2.637212,105.9,-172.5,-21.900002,,,,x,,
703888,2.2813172,8.137735,-3.1641762,-0.434454,0.3811,-3.025934,110.700005,-165.3,-26.7,,,,x,,
703908,2.4290586,7.417571,-3.025407,-0.144818,1.41007,-3.2469718,115.50001,-158.1,-24.900002,,,,x,,
703928,2.7185597,7.550359,-3.4112093,0.70122397,2.141782,-2.7515419,113.100006,-160.5,-21.300001,,,,x,,
703988,3.0200238,6.1979575,-2.8106737,0.57164997,4.474114,-4.824726,134.70001,-165.3,-21.900002,,,,x,,
704012,3.0152388,5.388072,-2.3830016,0.769822,5.282046,-5.167716,122.700005,-150.90001,-11.1,,,,x,,
704032,3.0780437,5.6207495,-2.104865,0.99086,5.8918056,-4.9771657,122.700005,-155.70001,-17.1,,,,x,,
704052,2.6031182,5.0519156,-1.6999223,0.41158798,6.311016,-6.318638,137.1,-146.1,-18.300001,,,,x,,
704096,0.43784064,3.1677651,-0.71597713,0.320124,7.0655937,-9.41317,163.5,-146.1,-9.900001,,,,x,,
704116,-0.89422375,2.8890305,-1.2447355,1.8521459,7.256144,-10.190614,165.90001,-153.3,-17.7,,,,x,,
704136,-1.0569186,3.890322,-1.3332607,2.843006,4.0777698,-8.559505,173.1,-141.3,-17.7,,,,x,,
704156,-1.6269488,4.965783,-0.27394947,1.6234859,1.684462,-8.010722,173.1,-129.3,-12.3,,,,x,,
704176,-2.9847333,5.9862146,-0.954038,2.637212,3.902464,-8.216516,185.1,-131.70001,-12.900001,,,,x,,
704219,-3.3376377,8.844142,-1.5127035,1.211898,-1.48629,-5.9222937,199.50002,-129.3,-11.1,,,,x,,
704239,-3.9088643,8.929078,0.1016843,-0.487808,-2.873494,-7.690598,194.70001,-126.9,-6.3,,,,x,,
704259,-5.577085,7.501311,-0.4827014,0.884152,-0.365856,-8.6814575,199.50002,-110.100006,-11.1,,,,x,,
704281,-6.093282,8.851319,-1.8345045,1.737816,-0.785066,-5.061008,221.1,-110.100006,-14.1,,,,x,,
704301,-6.723127,11.164338,-1.58149,0.594516,-5.884184,-3.551852,225.90001,-105.3,-14.700001,,,,x,,
704322,-7.783036,10.770761,-0.27753833,-0.548784,-6.006136,-4.580822,218.70001,-112.50001,-17.1,,,,x,,
704342,-8.436209,9.366321,-1.2794278,0.20579399,-3.414656,-5.045764,223.50002,-110.100006,-17.1,,,,x,,
704362,-9.040931,10.801266,-2.3614686,2.926848,-3.117398,-0.312502,228.3,-114.9,-14.1,,,,x,,
704382,-7.2351375,16.264105,-4.0362687,1.242386,-6.311016,5.3354,225.90001,-102.9,-15.3,,,,x,,
704402,-7.410991,15.040903,-1.4301598,-2.126538,-11.295804,-0.23628199,228.3,-112.50001,-15.900001,,,,x,,
704422,-9.828087,11.373689,-1.3799158,0.56402797,-6.654006,-0.518296,221.1,-119.700005,-21.900002,,,,x,,
704442,-6.8337836,14.234008,-3.222196,0.11432999,-5.9527817,5.686012,230.70001,-100.50001,-14.700001,,,,x,,
704462,-7.8601966,15.347751,-1.8207473,-2.332332,-9.37506,3.7805119,206.70001,-114.9,-18.900002,,,,x,,
704482,-5.6440773,14.562987,-3.1462321,-0.92226195,-8.80341,2.850628,218.70001,-114.9,-17.7,,,,x,,
704502,-7.234539,13.133425,-2.238251,-2.43904,-10.17537,1.471046,218.70001,-119.700005,-23.1,,,,x,,
704522,-8.302224,12.4653,-4.707385,2.55337,-1.67684,6.70736,209.1,-131.70001,-20.1,,,,x,,
704543,-4.6086917,15.316049,-5.7738743,-0.099086,-11.265316,7.370474,204.3,-114.9,-23.7,,,,x,,
704584,-7.5037036,11.532196,-3.9471455,2.957336,-3.567096,4.4969797,204.3,-119.700005,-23.7,,,,x,,
704605,-4.713965,13.158547,-7.375103,3.879598,-3.064044,7.0503497,197.1,-136.5,-29.1,,,,x,,
704625,-4.773181,12.048394,-6.1148157,0.487808,-11.783611,5.0533857,194.70001,-136.5,-22.5,,,,x,,
704645,-4.4065194,12.057964,-5.229564,2.36282,-9.763782,6.608274,182.70001,-143.70001,-32.100002,,,,x,,
704665,-3.5792875,12.06873,-5.7212377,2.7515419,-5.617414,6.9131536,175.5,-150.90001,-32.100002,,,,x,,
704687,-3.7892358,11.674555,-6.270333,2.614346,-2.6981878,7.149436,177.90001,-138.90001,-24.900002,,,,x,,
704707,-3.4070225,11.6135435,-7.361346,3.330814,-0.198172,7.8277936,170.70001,-141.3,-32.7,,,,x,,
704767,-0.72734183,11.040523,-7.12149,0.03811,-0.967994,7.0351057,139.5,-143.70001,-23.7,,,,x,,
704819,0.7500713,9.206018,-7.46303,-0.525918,1.501534,7.77444,139.5,-155.70001,-25.500002,,,,x,,
704839,0.89601815,9.276001,-6.5209546,-0.69360197,0.69360197,6.067112,122.700005,-172.5,-35.7,,,,x,,
704880,2.0988836,7.7591105,-5.547178,-0.23628199,0.72409,6.158576,120.3,-158.1,-22.5,,,,x,,
704901,2.226288,7.689128,-3.8257225,-0.716468,3.894842,3.117398,120.3,-167.70001,-30.300001,,,,x,,
704921,2.0061715,6.776362,-3.6187649,0.297258,5.75461,0.70122397,127.50001,-162.90001,-29.1,,,,x,,
704941,1.4104211,5.89111,-3.1426432,0.0,6.3872356,-0.64787,117.9,-153.3,-26.1,,,,x,,
704961,1.3769251,5.3856792,-2.9524338,0.480186,6.0976,-1.097568,113.100006,-165.3,-29.7,,,,x,,
704981,1.0778537,4.865295,-1.878169,0.19055,3.96344,-1.41007,105.9,-160.5,-27.900002,,,,x,,
705001,1.5216757,5.7044897,-1.1831268,0.45731997,4.80186,-0.960372,110.700005,-165.3,-24.300001,,,,x,,
705021,0.8810646,4.6188602,-1.1621917,0.17530599,6.9741297,-3.50612,117.9,-174.90001,-23.1,,,,x,,
705043,1.0856295,4.108046,-1.5037315,1.539644,6.5244317,-3.2088618,105.9,-158.1,-22.5,,,,x,,
705063,1.4373375,4.4914556,-0.58558196,0.907018,3.50612,-2.7896519,113.100006,-162.90001,-19.5,,,,x,,
705085,1.9003003,4.954418,0.3439322,0.67073596,4.832348,-2.461906,113.100006,-158.1,-26.7,,,,x,,
705106,1.9511424,5.5208597,-0.0849363,0.35061198,7.6067557,-2.59148,122.700005,-170.1,-20.1,,,,x,,
705126,1.5808918,5.241527,-0.47971067,-0.053354,8.04121,-3.0488,120.3,-146.1,-17.7,,,,x,,
705146,1.1011813,6.0167203,-0.8589333,0.91463995,7.157058,-2.012208,129.90001,-155.70001,-17.1,,,,x,,
705206,-0.20576118,7.945731,-0.8188577,-2.05794,6.02138,-3.041178,134.70001,-162.90001,-14.1,,,,x,,
705255,-1.1418549,9.700683,-2.4804988,-0.746956,0.525918,0.243904,141.90001,-162.90001,-14.1,,,,x,,
705300,-0.65077955,9.587035,-2.1850162,-0.960372,-0.731712,-0.30488,125.100006,-148.5,-21.900002,,,,x,,
705340,-0.28770676,9.835265,-2.3728333,-0.93750596,-1.425314,-0.11432999,134.70001,-158.1,-17.7,,,,x,,
705481,0.36666164,9.204224,-2.522967,0.083841994,-1.4024479,0.274392,120.3,-162.90001,-24.300001,,,,,,
705501,0.46415895,9.17013,-2.4410214,0.19055,-1.6006199,0.121952,134.70001,-150.90001,-18.300001,,,,,,
705541,0.36426908,8.796888,-2.5618463,0.091464,-0.57164997,-0.015244,129.90001,-162.90001,-20.1,,,,,,
705584,0.35290435,9.38606,-2.836394,-0.060976,-0.81555396,-0.03811,129.90001,-158.1,-17.7,,,,,,
705604,0.36845607,9.426733,-2.6372123,-0.182928,-0.975616,-0.23628199,137.1,-153.3,-17.7,,,,,,
705624,0.25241634,9.014014,-2.5092099,-0.503052,-0.388722,-0.449698,129.90001,-153.3,-21.300001,,,,,,
705666,0.118432306,9.017604,-2.8429735,-0.022866,0.33536798,-0.426832,105.9,-155.70001,-16.5,,,,,,
705686,0.0681883,9.08938,-2.9907148,0.365856,-0.045732,-0.26677,129.90001,-162.90001,-20.7,,,,,,
705706,0.045458864,9.004444,-2.8776658,0.243904,-0.426832,-0.198172,134.70001,-143.70001,-20.7,,,,,,
705730,0.3995595,9.497314,-2.9673872,0.17530599,-0.213416,-0.137196,149.1,-153.3,-17.7,,,,,,
705750,0.2966789,9.212,-3.0266035,-0.083841994,-0.33536798,-0.56402797,127.50001,-158.1,-26.1,,,,,,
705770,0.19439647,8.827394,-2.8178515,-0.17530599,-0.518296,-0.716468,122.700005,-162.90001,-18.900002,,,,,,
705793,0.35529694,8.877638,-2.820244,-0.251526,-0.289636,-0.53354,132.3,-155.70001,-23.1,,,,,,
705833,0.32479164,8.961378,-2.8034961,-0.34298998,-0.274392,-0.899396,129.90001,-158.1,-19.5,,,,x,,
705893,0.748875,8.747243,-2.640203,-0.129574,-0.11432999,-0.449698,146.70001,-162.90001,-20.7,,,,x,,
705913,0.7482768,8.67726,-2.7353077,-0.34298998,0.198172,-0.82317597,132.3,-160.5,-24.300001,,,,x,,
705933,1.0072727,8.345291,-2.7670095,-0.259148,0.297258,-1.021348,137.1,-155.70001,-16.5,,,,x,,
705953,1.4469079,8.53251,-2.70241,-0.03811,0.46494198,-0.87653,134.70001,-153.3,-26.1,,,,x,,
706037,1.8847485,5.3539777,-2.9817426,0.33536798,2.538126,-3.6814258,141.90001,-158.1,-21.900002,,,,x,,
706077,2.1933904,4.8676877,-2.3070374,0.487808,2.065562,-3.7805119,149.1,-153.3,-19.5,,,,x,,
706097,1.8632153,4.231263,-2.0929022,0.708846,4.4817357,-4.664664,156.3,-141.3,-17.1,,,,x,,
706140,0.59216154,4.681067,-1.6221638,0.94512796,3.3079479,-5.015276,156.3,-146.1,-31.500002,,,,x,,
706160,0.14953575,3.694131,-0.71179014,0.320124,3.483254,-6.150954,163.5,-148.5,-22.5,,,,x,,
706200,-1.4301598,4.4992313,-0.13458216,0.99086,7.309498,-5.129606,175.5,-146.1,-12.900001,,,,x,,
706220,-1.7148759,7.6197433,-1.326083,2.2180018,8.5899935,-3.2469718,168.3,-141.3,-14.1,,,,x,,
706243,-1.9260204,9.664794,-1.0808444,0.47256398,5.0838737,-4.702774,175.5,-134.1,-11.1,,,,x,,
706266,-3.907668,7.853019,0.07775859,-0.022866,6.036624,-8.993959,175.5,-131.70001,-11.1,,,,x,,
706286,-4.188795,7.3948417,-1.9989938,2.309466,6.3719916,-5.9832697,180.3,-122.100006,-15.900001,,,,x,,
706306,-3.6618314,10.607468,-3.1235025,2.301844,2.522882,-1.509156,192.3,-134.1,-11.1,,,,x,,
706328,-5.1607776,11.344977,-2.2765322,-0.28201398,-2.2942219,-3.7881339,194.70001,-117.3,-14.1,,,,x,,
706348,-6.32596,9.423742,-2.5935478,1.478668,-1.3948259,-5.388754,189.90001,-129.3,-12.3,,,,x,,
706368,-5.364146,9.805956,-3.0906048,1.56251,-4.519846,-3.2012398,194.70001,-110.100006,-14.700001,,,,x,,
706388,-7.1017513,12.441374,-3.4285555,1.417692,-4.108258,0.16768399,211.50002,-98.100006,-11.1,,,,x,,
706408,-6.423457,13.566481,-4.0476336,1.006104,-4.83997,1.21952,197.1,-112.50001,-6.3,,,,x,,
706428,-5.459849,12.364812,-2.3578796,-2.126538,-10.853727,-2.080806,221.1,-112.50001,-11.700001,,,,x,,
706448,-8.125772,9.810741,-1.1532197,0.442076,-6.996996,-2.378064,216.3,-119.700005,-17.1,,,,x,,
706468,-7.0598817,14.010303,-4.4609504,4.0167937,0.548784,4.87808,201.90001,-110.100006,-10.5,,,,x,,
706528,-8.451162,11.464008,-5.0429435,2.888738,-4.862836,2.568614,209.1,-119.700005,-19.5,,,,x,,
706700,-4.7372923,11.984991,-6.864289,-1.318606,-7.6524878,6.82169,185.1,-136.5,-18.300001,,,,x,,
706760,-2.1658757,11.700872,-6.8834295,-1.783548,-3.147886,8.529017,153.90001,-146.1,-25.500002,,,,x,,
706857,1.1352754,7.3649344,-5.6889377,-0.091464,-1.8673899,5.67839,122.700005,-162.90001,-26.1,,,,x,,
706877,1.3601772,6.329549,-4.8886223,-1.204276,0.56402797,6.9436417,127.50001,-158.1,-25.500002,,,,x,,
706939,2.233466,6.284688,-4.0440445,-0.053354,5.190582,3.536608,105.9,-165.3,-26.7,,,,x,,
707038,2.4966488,5.26306,-1.2848111,-0.93750596,5.061008,0.87653,86.700005,-177.3,-23.7,,,,x,,
707058,2.1748478,4.811462,-1.1257051,-0.80793196,7.538158,-0.41921,81.9,-167.70001,-24.900002,,,,x,,
707099,1.7621292,4.539905,-0.28830492,-0.967994,6.9436417,-0.655492,98.700005,-174.90001,-24.900002,,,,x,,
707139,0.8021097,5.4227643,-0.8188577,-0.739334,8.971094,-1.303362,98.700005,-165.3,-27.900002,,,,x,,
707180,1.8680005,7.7920084,0.79313755,-1.044214,2.652456,-0.907018,91.5,-165.3,-24.900002,,,,x,,
707218,1.9445628,8.161661,0.17286332,-0.95274997,4.626554,-1.783548,103.50001,-170.1,-26.7,,,,x,,
707238,2.020527,8.331533,0.044860724,-0.907018,4.123502,-1.455802,89.100006,-174.90001,-31.500002,,,,x,,
707278,0.32419348,9.557727,-1.4038415,0.907018,4.9771657,-0.80030996,91.5,-162.90001,-24.900002,,,,x,,
707298,0.4360462,10.346677,-2.421881,1.18141,2.812518,-1.44818,84.3,-177.3,-21.900002,,,,x,,
707358,0.68846256,9.855003,-2.7251394,0.327746,0.243904,-1.669218,91.5,-172.5,-24.300001,,,,x,,
707393,0.8685036,9.595409,-2.1258001,-0.60976,-1.1128119,-0.87653,86.700005,-167.70001,-21.300001,,,,,,
707417,0.799119,9.033155,-2.008564,-1.1432999,-0.663114,-1.036592,93.9,-165.3,-23.7,,,,,,
707457,0.4426258,8.432021,-2.2855043,-0.137196,-1.56251,-0.053354,117.9,-160.5,-26.1,,,,,,
707477,0.77997845,9.216785,-2.2597842,0.35061198,-2.2027578,0.396344,108.3,-174.90001,-25.500002,,,,,,
707497,0.8649147,9.17013,-2.3267763,0.47256398,-2.149404,0.045732,105.9,-155.70001,-23.7,,,,,,
707517,0.891233,9.111512,-2.4864802,0.47256398,-1.8902559,0.068598,101.100006,-172.5,-27.300001,,,,,,
707540,1.0467502,9.310694,-2.564837,0.434454,-1.684462,0.312502,98.700005,-165.3,-22.5,,,,,,
707560,0.8798683,9.002051,-2.589361,0.083841994,-1.06708,0.106708,91.5,-174.90001,-20.1,,,,,,
707581,0.86910176,9.301722,-3.0678754,0.41158798,-0.625004,0.106708,89.100006,-174.90001,-21.300001,,,,,,
707643,1.0497409,8.882423,-2.6216607,-0.30488,-1.8445239,0.11432999,110.700005,-162.90001,-28.500002,,,,,,
707663,1.1454438,8.7627945,-2.6623344,-0.388722,-1.516778,0.07622,101.100006,-158.1,-20.1,,,,,,
707683,1.3799158,8.897377,-2.6736991,-0.16768399,-1.318606,-0.068598,98.700005,-162.90001,-23.1,,,,,,
707703,1.5240682,9.118092,-2.6204643,-0.07622,-1.1356779,-0.449698,93.9,-162.90001,-18.300001,,,,,,
707723,1.7017168,9.025379,-2.4446104,-0.015244,-1.021348,-0.731712,98.700005,-162.90001,-18.900002,,,,,,
707766,1.3380458,8.720924,-2.8800583,0.28201398,1.196654,-1.3490939,110.700005,-155.70001,-18.300001,,,,,,
707786,1.4421227,9.0511,-3.2945714,0.708846,0.67073596,-1.3490939,108.3,-160.5,-23.7,,,,,,
707806,1.6849687,9.341797,-3.1193156,0.07622,0.23628199,-1.6158639,108.3,-162.90001,-16.5,,,,,,
707826,1.6000324,8.969752,-3.2239907,-0.16768399,1.1356779,-2.43904,110.700005,-160.5,-19.5,,,,,,
707846,1.5599569,8.631802,-3.5739043,0.121952,1.463424,-2.865872,117.9,-170.1,-20.7,,,,,,
707886,2.1269965,8.701186,-3.174943,-0.586894,0.853664,-3.452766,120.3,-170.1,-13.500001,,,,,,
707906,2.226288,7.559929,-3.20485,-0.45731997,2.050318,-4.489358,115.50001,-158.1,-20.7,,,,,,
707926,2.4308531,6.661518,-3.1719522,0.373478,1.3872039,-4.38265,115.50001,-158.1,-17.7,,,,,,
707949,2.43504,5.9592986,-2.3207948,0.030488,0.72409,-4.123502,132.3,-146.1,-23.1,,,,x,,
707989,2.8160572,6.316988,-2.423077,1.44818,3.864354,-4.367406,139.5,-148.5,-18.300001,,,,x,,
708009,3.3992465,7.1561823,-2.589361,1.935988,4.45887,-4.83997,137.1,-150.90001,-19.5,,,,x,,
708032,3.6684108,7.559331,-2.3698425,0.92226195,5.121984,-6.265284,151.5,-150.90001,-13.500001,,,,x,,
708052,3.0983806,6.288875,-2.3518982,-0.449698,7.0808377,-8.391822,134.70001,-150.90001,-19.5,,,,x,,
708074,1.2937832,3.4620516,-1.8961133,-1.288118,7.789684,-10.144882,144.3,-138.90001,-15.900001,,,,x,,
708094,0.4091298,3.200065,-1.7663162,-0.785066,8.513774,-8.971094,168.3,-134.1,-14.700001,,,,x,,
708116,-1.083835,3.0762494,-1.7334183,-0.92988396,8.315601,-9.062558,173.1,-138.90001,-15.900001,,,,x,,
708136,-3.1653726,2.7101858,-1.9648997,0.182928,8.643348,-8.91774,192.3,-141.3,-18.300001,,,,x,,
708156,-3.6923366,4.276124,-2.9440596,2.149404,7.187546,-6.227174,182.70001,-131.70001,-18.900002,,,,x,,
708179,-2.643792,6.668696,-2.845366,1.1432999,2.675322,-4.184478,199.50002,-126.9,-12.900001,,,,x,,
708199,-3.8047874,6.1770225,-1.2285857,0.221038,1.211898,-5.693634,173.1,-122.100006,-11.1,,,,x,,
708219,-3.6767848,6.5867505,-2.196381,1.783548,3.650938,-3.833866,194.70001,-131.70001,-7.5000005,,,,x,,
708241,-4.4465947,7.7495403,-2.1646795,0.632626,3.2012398,-3.025934,189.90001,-122.100006,-9.3,,,,x,,
708261,-4.840173,8.829786,-2.9805465,1.6158639,3.8262439,-1.783548,187.5,-129.3,-9.900001,,,,x,,
708283,-2.8806565,11.855792,-2.5588555,-1.516778,-2.2713559,-1.25763,182.70001,-119.700005,-7.5000005,,,,x,,
708303,-4.748059,8.519949,-0.105871305,-1.661596,-2.126538,-5.9527817,182.70001,-114.9,-10.5,,,,x,,
708323,-4.8078732,10.842538,-2.0534248,1.951232,3.2241058,-0.17530599,182.70001,-119.700005,-12.3,,,,x,,
708343,-3.2108314,16.332294,-3.0427532,-1.303362,0.7622,1.6539739,194.70001,-124.50001,-12.900001,,,,x,,
708363,-4.929296,13.421132,-0.9181495,-1.760682,-4.4969797,-6.623518,197.1,-114.9,-9.3,,,,x,,
708387,-6.680061,10.90953,-1.5336386,1.8673899,-0.99086,-4.5884438,209.1,-112.50001,-6.3,,,,x,,
708408,-4.748059,15.842415,-3.509903,2.454284,-0.57164997,1.6539739,213.90001,-114.9,-5.7000003,,,,x,,
708428,-6.06517,16.502167,-2.4816952,-1.3719599,-7.385718,-1.760682,218.70001,-93.3,-12.3,,,,x,,
708472,-7.0539002,15.504464,-3.9794452,0.40396598,-8.452798,1.692084,216.3,-110.100006,-13.500001,,,,x,,
708492,-7.1226864,15.346554,-3.2915807,0.091464,-10.000064,2.088428,204.3,-112.50001,-14.1,,,,x,,
708512,-6.3361287,15.329806,-2.86989,-0.259148,-11.333914,2.926848,194.70001,-114.9,-11.700001,,,,x,,
708536,-6.5418897,14.039612,-2.2681582,-1.1128119,-9.253108,1.8750119,213.90001,-112.50001,-17.1,,,,x,,
708598,-6.3403153,13.763269,-4.7701902,-0.731712,-11.09001,5.724122,206.70001,-114.9,-18.300001,,,,x,,
708618,-6.1393394,12.266118,-3.8287132,0.72409,-9.588476,3.948196,209.1,-119.700005,-23.7,,,,x,,
708640,-6.088497,11.391633,-5.1111317,1.707328,-3.574718,4.4664917,192.3,-129.3,-20.7,,,,x,,
708661,-5.17932,10.053587,-7.389458,3.132642,-0.388722,5.198204,199.50002,-122.100006,-17.7,,,,x,,
708681,-3.6881495,10.690609,-8.250186,2.461906,-5.0991178,7.8582816,189.90001,-124.50001,-20.1,,,,x,,
708701,-2.902788,10.982503,-6.576582,-0.3811,-8.429932,8.330846,182.70001,-119.700005,-20.7,,,,x,,
708721,-3.12111,9.960277,-5.9461393,0.525918,-3.094532,6.9893737,170.70001,-129.3,-16.5,,,,x,,
708741,-2.4954524,9.198242,-7.4684134,1.958854,1.440558,7.66011,173.1,-141.3,-15.900001,,,,x,,
708765,-1.2124358,9.9285755,-7.99777,0.586894,-0.92988396,9.923843,165.90001,-155.70001,-23.7,,,,x,,
708785,-0.84517604,10.207908,-6.4910474,-1.501534,-3.2545938,9.67994,156.3,-148.5,-25.500002,,,,x,,
708805,-0.4791125,8.725112,-6.144723,0.083841994,1.8978779,6.0442457,146.70001,-148.5,-22.5,,,,x,,
708825,-0.026318291,7.9343667,-6.491646,0.518296,2.2332458,5.739366,141.90001,-150.90001,-19.5,,,,x,,
708845,0.40434465,7.22138,-6.2165,-0.60976,0.083841994,7.286632,137.1,-148.5,-23.7,,,,x,,
708865,1.3864954,8.240018,-4.5494757,-1.532022,-0.16768399,7.416206,129.90001,-150.90001,-18.900002,,,,x,,
708885,1.1825286,7.47918,-4.217506,-1.02897,1.234764,5.327778,110.700005,-158.1,-31.500002,,,,x,,
708905,1.5539755,5.915634,-4.560242,0.91463995,3.62045,3.6814258,122.700005,-160.5,-18.300001,,,,x,,
708945,2.0169382,6.2266684,-3.4142,-1.432936,2.164648,5.762232,103.50001,-165.3,-20.1,,,,x,,
708965,2.0426583,5.7098727,-2.8280199,-1.8902559,3.2088618,3.993928,110.700005,-179.70001,-23.7,,,,x,,
708989,2.1066597,5.1512074,-2.8226366,-0.80793196,5.350644,3.605206,96.3,-155.70001,-20.1,,,,x,,
709009,1.8512524,5.451475,-2.4529843,-1.036592,4.4817357,2.43904,89.100006,-170.1,-18.900002,,,,x,,
709029,1.8201491,5.0429435,-2.401544,-0.312502,4.26832,1.097568,98.700005,-165.3,-21.300001,,,,x,,
709049,2.0486398,5.2983503,-2.1246037,0.16768399,2.850628,0.45731997,101.100006,-158.1,-15.3,,,,x,,
709069,2.2095401,6.005954,-1.6197711,-0.060976,1.669218,-0.3811,108.3,-172.5,-17.7,,,,x,,
709149,2.2579896,6.355269,-0.84278345,-0.15244,2.568614,-1.33385,103.50001,-160.5,-16.5,,,,,,
709316,0.2087519,9.061866,-2.3668518,0.373478,2.118916,-1.173788,98.700005,-160.5,-23.1,,,,,,
709336,0.38340965,8.912929,-2.798711,0.655492,0.213416,-0.777444,113.100006,-167.70001,-16.5,,,,,,
709379,0.8188577,8.924891,-2.5959406,-0.30488,-0.960372,-0.87653,113.100006,-174.90001,-26.1,,,,,,
709437,0.82364285,8.988893,-2.5002377,-0.769822,-0.95274997,-0.99086,120.3,-162.90001,-18.900002,,,,,,
709459,0.8463723,9.147401,-2.6503716,-0.434454,-0.983238,-0.23628199,115.50001,-167.70001,-21.300001,,,,,,
709500,0.84278345,9.166541,-2.4984431,-0.213416,-1.3948259,0.068598,105.9,-155.70001,-20.7,,,,,,
709540,0.8039042,8.745448,-2.665923,-0.213416,-1.044214,-0.297258,103.50001,-162.90001,-17.7,,,,,,
709618,0.79672647,9.000855,-2.9667892,-0.365856,-1.158544,-0.55640596,101.100006,-177.3,-18.300001,,,,,,
709638,0.8421853,8.895582,-2.9602096,-0.20579399,-0.983238,-0.388722,113.100006,-162.90001,-22.5,,,,,,
709679,0.75186574,9.341797,-3.025407,-0.053354,-0.91463995,-0.754578,132.3,-165.3,-24.300001,,,,x,,
709753,0.8463723,8.985902,-3.1898966,-0.099086,-0.312502,-0.22865999,105.9,-155.70001,-20.7,,,,x,,
709799,1.6448932,8.750234,-2.9943037,-0.846042,0.82317597,-0.68597996,113.100006,-162.90001,-26.7,,,,x,,
709819,1.9726756,8.305215,-3.1067545,-0.632626,1.166166,-1.02897,115.50001,-153.3,-18.300001,,,,x,,
709859,2.8208423,8.189176,-2.5767999,-0.35061198,0.754578,-1.8750119,122.700005,-165.3,-25.500002,,,,x,,
709879,3.237748,7.730998,-2.4918637,-0.442076,1.6311079,-3.0488,110.700005,-158.1,-15.900001,,,,x,,
709899,3.196476,6.4055133,-2.752056,-0.106708,3.003068,-5.10674,127.50001,-165.3,-13.500001,,,,x,,
709919,3.5972319,5.3689313,-3.1593912,0.884152,2.454284,-5.4421077,125.100006,-150.90001,-20.1,,,,x,,
709942,3.9106588,5.24691,-2.7538502,0.320124,1.288118,-5.289668,129.90001,-150.90001,-15.900001,,,,x,,
709962,4.023708,4.893408,-2.3327575,-0.068598,1.798792,-6.051868,129.90001,-150.90001,-17.1,,,,x,,
709982,3.9525287,4.5010257,-1.6514727,-0.67073596,1.814036,-7.042728,122.700005,-155.70001,-14.700001,,,,x,,
710002,3.59783,3.961501,-1.1203218,-1.211898,4.054904,-8.338468,144.3,-148.5,-14.1,,,,x,,
710046,1.3189052,4.4914556,-1.790242,0.602138,6.5396757,-7.8125496,156.3,-153.3,-16.5,,,,x,,
710066,0.5347398,3.9513326,-1.6921464,0.69360197,5.9375377,-9.161644,168.3,-131.70001,-15.3,,,,x,,
710086,-1.4792075,3.4165926,-0.75186574,1.6539739,6.227174,-8.849142,170.70001,-141.3,-12.900001,,,,x,,
710107,-2.799309,6.200948,-2.7604299,3.0488,11.143364,-5.94516,168.3,-141.3,-11.700001,,,,x,,
710147,-4.125392,7.3057184,-3.3113196,3.521364,6.333882,-7.881148,192.3,-129.3,-10.5,,,,x,,
710167,-4.2181044,8.9865,-3.5170808,2.7896519,4.321674,-7.324742,187.5,-126.9,-9.3,,,,x,,
710187,-4.6846557,7.806364,-2.4481993,1.775926,1.204276,-8.91774,206.70001,-119.700005,-8.1,,,,x,,
710208,-4.9370723,9.031959,-1.506124,1.326228,-0.907018,-6.791202,201.90001,-110.100006,-10.5,,,,x,,
710232,-5.395848,11.517841,-0.57182467,-0.777444,-2.446662,-6.714982,223.50002,-102.9,-11.1,,,,x,,
710273,-8.124576,8.511575,-0.4133168,-0.137196,-3.140264,-6.966508,228.3,-98.100006,-12.3,,,,x,,
710293,-8.336319,9.436902,-0.70939755,-0.182928,-3.368924,-3.8186219,218.70001,-100.50001,-17.7,,,,x,,
710317,-8.058781,11.588422,-2.5624444,2.652456,-3.993928,-0.82317597,221.1,-100.50001,-11.1,,,,x,,
710338,-7.1226864,14.106006,-2.9063766,1.326228,-8.330846,-0.33536798,240.3,-110.100006,-13.500001,,,,x,,
710419,-9.231739,13.038321,-4.322779,-0.792688,-9.580853,2.926848,245.1,-83.700005,-18.300001,,,,x,,
710462,-8.076725,13.409169,-5.401231,0.26677,-7.789684,6.608274,242.70001,-90.9,-16.5,,,,x,,
710482,-6.7632027,14.546837,-6.296651,0.144818,-9.016826,6.1052217,225.90001,-102.9,-17.7,,,,x,,
710522,-7.187286,12.991665,-7.4241505,1.958854,-7.782062,6.0976,225.90001,-105.3,-16.5,,,,x,,
710542,-5.182909,13.756092,-6.776362,0.0,-13.52905,6.791202,213.90001,-112.50001,-23.1,,,,x,,
710582,-6.1818075,12.339091,-6.7781563,3.50612,-3.483254,6.577786,216.3,-122.100006,-22.5,,,,x,,
710602,-4.3544807,13.089761,-7.9020667,1.722572,-7.6067557,8.856764,211.50002,-122.100006,-28.500002,,,,x,,
710622,-4.2677503,13.416347,-5.4556623,-1.577754,-10.78513,8.506152,192.3,-126.9,-23.7,,,,x,,
710642,-4.19358,11.859381,-5.196068,0.259148,-3.094532,6.0137577,189.90001,-114.9,-23.7,,,,x,,
710705,-2.5869684,11.197835,-5.6967134,-0.22865999,-2.035074,8.6509695,175.5,-138.90001,-27.300001,,,,x,,
710725,-2.1180243,10.33292,-5.843259,1.051836,1.98172,6.93602,163.5,-138.90001,-32.100002,,,,x,,
710746,-1.8398877,8.799879,-6.239229,0.7622,2.995446,6.920776,158.70001,-148.5,-30.900002,,,,x,,
710766,-1.27225,8.702382,-6.200948,-0.716468,2.347576,9.275973,158.70001,-160.5,-23.7,,,,x,,
710786,-0.51739365,8.834572,-4.971166,-1.3719599,1.166166,8.109808,144.3,-153.3,-27.300001,,,,x,,
710806,-0.3798208,8.225064,-4.715161,-0.655492,1.798792,6.806446,141.90001,-150.90001,-20.7,,,,x,,
710826,0.51559925,7.0257874,-4.5363164,0.503052,1.5244,5.190582,120.3,-153.3,-29.1,,,,x,,
710846,1.1095552,6.258968,-3.4405184,-0.33536798,1.966476,5.3963757,127.50001,-153.3,-29.7,,,,x,,
710866,1.4134119,6.5466747,-3.396854,0.20579399,3.117398,5.4725957,120.3,-155.70001,-26.7,,,,x,,
710886,1.7848586,6.5987134,-3.3573766,0.602138,3.628072,4.0777698,120.3,-158.1,-31.500002,,,,x,,
710926,1.8680005,4.9011836,-2.5851738,0.579272,4.100636,2.576236,105.9,-160.5,-25.500002,,,,x,,
710949,2.3154113,4.907763,-1.7023149,0.49543,6.006136,3.513742,103.50001,-162.90001,-21.300001,,,,x,,
711031,1.8859448,5.166161,-0.3881948,-1.768304,7.789684,0.480186,91.5,-170.1,-23.1,,,,x,,
711140,1.1520233,8.47748,-0.2380609,-0.045732,3.414656,-0.20579399,96.3,-179.70001,-21.300001,,,,x,,
711178,0.9468603,8.714943,-0.7476787,0.182928,2.2713559,-1.204276,98.700005,-162.90001,-17.7,,,,x,,
711198,0.8003153,9.26344,-1.2782315,0.602138,2.2103798,-0.3811,103.50001,-170.1,-22.5,,,,,,
711238,0.7596416,9.436303,-2.2753358,0.708846,1.577754,-0.525918,96.3,-172.5,-23.7,,,,,,
711278,1.116733,9.735375,-2.5947442,0.579272,-0.41158798,-0.099086,93.9,-170.1,-20.7,,,,,,
711421,1.4038415,9.303515,-1.9643015,0.091464,-1.33385,0.53354,98.700005,-174.90001,-24.300001,,,,,,
711441,1.3195034,9.161158,-1.991218,-0.022866,-0.07622,0.015244,108.3,-165.3,-17.7,,,,,,
711461,1.2429411,9.269422,-2.489471,0.289636,0.853664,-0.083841994,91.5,-162.90001,-23.1,,,,,,
711481,0.93729,8.855507,-2.7418873,0.49543,0.87653,-0.16768399,98.700005,-170.1,-16.5,,,,,,
711501,0.870298,9.104334,-2.9392745,0.47256398,-0.053354,0.55640596,103.50001,-158.1,-14.1,,,,,,
711524,0.91755134,9.388453,-2.5540705,0.213416,-0.769822,0.49543,98.700005,-172.5,-18.900002,,,,x,,
711544,1.074863,9.402209,-2.5385187,-0.083841994,-0.80030996,0.03811,96.3,-172.5,-9.3,,,,x,,
711566,0.8607277,9.297534,-2.6623344,-0.503052,-0.769822,-0.30488,113.100006,-172.5,-23.1,,,,x,,
711606,1.0413669,9.061866,-2.2095401,-0.487808,-1.775926,-0.198172,98.700005,-167.70001,-20.1,,,,x,,
711626,1.0575168,8.881825,-2.3124208,-0.487808,-0.861286,-0.20579399,101.100006,-162.90001,-20.7,,,,x,,
711646,1.0473484,8.929676,-2.6509697,-0.22865999,-0.663114,-0.106708,89.100006,-170.1,-26.1,,,,x,,
711666,1.317709,9.013416,-2.7442799,0.11432999,-1.189032,0.068598,101.100006,-165.3,-21.900002,,,,x,,
711686,1.5934529,9.042726,-2.669512,-0.03811,-1.211898,0.251526,98.700005,-162.90001,-15.900001,,,,x,,
711706,1.8895336,8.886012,-2.819048,-0.41158798,-0.068598,-0.053354,98.700005,-174.90001,-23.7,,,,x,,
711726,2.5654352,8.871058,-3.610391,0.15244,2.187514,-0.41158798,91.5,-174.90001,-20.7,,,,x,,
711768,4.596729,8.180203,-5.525645,1.326228,2.332332,-0.731712,91.5,-172.5,-20.7,,,,x,,
711830,5.060888,6.806867,-3.1306803,-0.998482,1.082324,-4.375028,103.50001,-155.70001,-18.300001,,,,x,,
711870,4.3383307,5.1847034,-2.091706,-1.242386,4.4512477,-7.538158,122.700005,-162.90001,-22.5,,,,x,,
711921,3.175541,4.082326,-1.1532197,-1.189032,6.8521776,-9.710428,120.3,-153.3,-21.900002,,,,x,,
711981,-0.4228871,1.1639862,0.63941485,-1.196654,8.750056,-10.891838,156.3,-150.90001,-20.1,,,,x,,
712021,-2.3124208,3.7437768,-0.5963485,2.987824,4.260698,-8.407065,173.1,-138.90001,-22.5,,,,x,,
712042,-2.856731,6.6573315,-0.6453963,3.92533,1.6387299,-7.759196,170.70001,-148.5,-17.1,,,,x,,
712062,-2.8860397,7.3224664,0.7853617,2.157026,-1.417692,-10.221102,185.1,-129.3,-15.3,,,,x,,
712124,-5.752341,9.374097,-2.8549364,1.440558,-6.753092,-9.748538,204.3,-102.9,-12.900001,,,,x,,
712164,-8.765785,13.046097,-5.1302724,5.045764,4.72564,-2.7896519,221.1,-98.100006,-16.5,,,,x,,
712201,-6.1530967,13.53777,-4.2839,-1.303362,-17.683039,-4.283564,221.1,-102.9,-11.1,,,,x,,
712221,-8.550454,10.73547,1.6419024,-2.2713559,-16.951328,-4.329296,230.70001,-110.100006,-15.3,,,,x,,
712263,-7.2070246,12.334306,-1.3547938,-0.07622,-6.455834,-0.198172,221.1,-107.700005,-17.1,,,,x,,
712283,-7.960685,11.83366,-2.0354805,1.1051899,-6.59303,0.221038,233.1,-95.700005,-21.300001,,,,x,,
712303,-6.510188,10.844931,-1.8213453,0.92226195,-10.122016,1.8978779,230.70001,-100.50001,-18.900002,,,,x,,
712323,-7.1998467,9.773058,-0.3188102,0.480186,-10.640312,1.920744,240.3,-105.3,-12.900001,,,,x,,
712343,-7.6741743,10.286862,-2.5253596,2.949714,-2.446662,3.841488,223.50002,-93.3,-16.5,,,,x,,
712383,-6.885822,11.101534,-3.1258953,0.899396,-11.272938,3.08691,223.50002,-105.3,-21.300001,,,,x,,
712407,-7.158575,10.625412,-4.2396374,3.7957559,-4.939056,4.550334,223.50002,-114.9,-25.500002,,,,x,,
712427,-5.250499,11.541168,-5.544187,3.170752,-5.44973,4.908568,218.70001,-114.9,-21.300001,,,,x,,
712448,-6.13276,11.280976,-5.661423,4.199722,-3.84911,4.893324,213.90001,-105.3,-21.900002,,,,x,,
712488,-4.9233146,13.524013,-8.850123,2.393308,-4.085392,6.410102,199.50002,-122.100006,-11.1,,,,x,,
712508,-5.3473983,11.895867,-7.217791,1.059458,-7.0198617,5.510706,211.50002,-122.100006,-23.1,,,,x,,
712529,-5.0782337,13.275185,-8.372208,2.89636,-2.2942219,8.018344,192.3,-122.100006,-18.900002,,,,x,,
712549,-3.371732,13.952881,-9.335815,2.51526,-3.7652678,7.721086,180.3,-138.90001,-20.1,,,,x,,
712569,-3.3460119,12.929459,-7.536003,-0.083841994,-8.719568,6.425346,182.70001,-143.70001,-17.1,,,,x,,
712589,-3.8927145,13.224343,-6.719538,-0.11432999,-3.117398,7.0655937,170.70001,-134.1,-20.1,,,,x,,
712609,-3.6803737,12.748819,-8.614455,0.373478,4.9619217,7.2409,173.1,-141.3,-23.7,,,,x,,
712629,-1.7513626,12.580741,-10.252171,-0.769822,2.2484899,8.864386,170.70001,-141.3,-18.300001,,,,x,,
712649,-1.3691492,12.257146,-8.318375,-4.778994,-5.83083,8.673836,161.1,-148.5,-20.1,,,,x,,
712671,-1.4211878,10.216282,-5.057897,-3.536608,-3.971062,4.9466777,146.70001,-138.90001,-30.900002,,,,x,,
712733,0.6723127,9.4757805,-5.4604473,-3.094532,0.22865999,11.730258,139.5,-153.3,-23.7,,,,x,,
712755,0.6824811,9.0188,-3.6624293,-2.903982,-0.87653,8.010722,132.3,-158.1,-23.7,,,,x,,
712776,0.44322395,7.2321467,-2.9805465,-0.358234,3.551852,5.198204,115.50001,-160.5,-22.5,,,,x,,
712796,0.6447981,6.752436,-3.7204492,0.60976,5.327778,3.589962,129.90001,-160.5,-23.7,,,,x,,
712860,1.4427209,5.5687113,-1.744783,0.068598,6.5091877,3.071666,113.100006,-158.1,-26.1,,,,x,,
712882,0.72076225,4.4920535,-1.1358736,-1.02897,6.9131536,1.417692,98.700005,-172.5,-22.5,,,,x,,
712902,0.91097176,3.51409,-0.95702875,-0.022866,8.018344,1.730194,93.9,-172.5,-23.7,,,,x,,
712922,1.2327727,3.8251243,-0.52935654,-0.083841994,8.315601,2.85825,96.3,-172.5,-23.7,,,,x,,
712987,2.0767524,5.4042215,-0.6214706,0.045732,9.657074,2.2713559,84.3,-162.90001,-23.1,,,,x,,
713158,1.1328828,9.438696,-1.8602246,0.3811,1.928366,-0.480186,74.700005,-170.1,-17.1,,,,x,,
713178,1.2249968,9.614551,-2.6049128,0.861286,2.40093,0.259148,86.700005,-158.1,-23.1,,,,x,,
713221,1.8620191,10.118187,-1.912263,-0.030488,-1.8750119,1.242386,79.5,-167.70001,-20.1,,,,x,,
713261,1.8153639,8.94463,-2.0241158,-0.792688,2.035074,-1.036592,86.700005,-174.90001,-20.1,,,,x,,
713281,1.4714317,8.842946,-2.3225892,-0.34298998,1.806414,-0.64787,79.5,-177.3,-20.7,,,,x,,
713301,1.2220061,8.732887,-2.1222112,0.015244,0.632626,-0.594516,81.9,-170.1,-18.900002,,,,,,
713345,1.2656705,8.878835,-2.0055733,0.144818,0.07622,0.03811,77.100006,-172.5,-27.300001,,,,,,
713365,1.4786094,8.999061,-2.3584778,0.34298998,0.49543,0.099086,86.700005,-170.1,-18.300001,,,,,,
713388,1.5952473,9.439294,-2.4541807,0.182928,-0.49543,0.068598,86.700005,-177.3,-18.300001,,,,,,
713428,1.6532671,8.859694,-2.970976,-0.213416,-0.28201398,-0.30488,86.700005,-177.3,-17.1,,,,x,,
713539,2.171857,8.708364,-2.623455,-0.03811,-0.221038,-0.083841994,86.700005,-167.70001,-17.7,,,,x,,
713579,2.5767999,9.176709,-3.57211,0.899396,0.41158798,-0.846042,91.5,-160.5,-27.300001,,,,x,,
713599,2.7478688,8.822609,-3.8466575,0.47256398,0.49543,-1.6158639,72.3,-177.3,-21.300001,,,,x,,
713639,3.4817903,7.345196,-5.71406,2.157026,4.070148,-2.85825,81.9,-167.70001,-16.5,,,,x,,
713679,5.6656103,8.810646,-6.8929996,2.2789779,-2.583858,-2.903982,103.50001,-172.5,-20.1,,,,x,,
713759,4.3640513,3.0923991,-0.73990285,-2.7591639,2.7286758,-7.85066,132.3,-162.90001,-17.1,,,,x,,
713799,2.9291062,2.7287283,-0.50423455,-1.8292799,7.0503497,-10.975679,134.70001,-155.70001,-19.5,,,,x,,
713880,-1.8345045,4.242628,-0.3397452,2.85825,7.492426,-7.5000477,165.90001,-146.1,-18.900002,,,,x,,
713920,-4.4914556,9.645056,-1.3960657,2.82014,0.617382,-6.36437,182.70001,-143.70001,-17.7,,,,x,,
713960,-7.668791,10.041026,-0.7099957,0.754578,6.486322,-11.50922,201.90001,-136.5,-11.1,,,,x,,
714019,-6.2099204,12.166228,0.12561002,-1.3948259,-10.36592,-6.303394,189.90001,-119.700005,-16.5,,,,x,,
714059,-7.1974545,11.58902,-0.8924293,-1.006104,-4.054904,-6.661628,216.3,-119.700005,-21.900002,,,,x,,
714079,-7.408599,10.710946,-1.5342367,0.091464,-5.114362,-4.5579557,213.90001,-100.50001,-15.900001,,,,x,,
714123,-8.568996,11.708649,0.26079035,-1.288118,-8.025966,-3.7119138,225.90001,-110.100006,-26.1,,,,x,,
714163,-6.9193177,10.935848,-0.9863378,-0.47256398,-12.873558,1.440558,242.70001,-98.100006,-16.5,,,,x,,
714183,-8.743055,11.205012,-0.47791624,0.80793196,-6.9131536,2.43904,228.3,-112.50001,-19.5,,,,x,,
714203,-7.5994062,12.751212,-3.635513,2.583858,-3.940574,4.161612,228.3,-114.9,-23.7,,,,x,,
714247,-8.934462,10.0697365,-0.51978624,0.19055,-11.120498,2.6981878,235.50002,-117.3,-17.1,,,,x,,
714267,-8.099454,11.472383,-4.4699225,5.14485,1.996964,6.4634557,206.70001,-119.700005,-21.900002,,,,x,,
714289,-5.425755,14.161633,-6.931879,3.2545938,-5.541194,7.759196,211.50002,-112.50001,-25.500002,,,,x,,
714309,-6.4898515,12.4987955,-4.539905,1.532022,-11.58544,5.4116197,204.3,-110.100006,-18.900002,,,,x,,
714331,-6.4007277,13.269802,-5.6536474,3.50612,-2.7591639,6.905532,199.50002,-119.700005,-26.1,,,,x,,
714351,-5.051317,12.913907,-7.123285,4.253076,0.20579399,7.644866,197.1,-134.1,-24.300001,,,,x,,
714372,-4.733105,13.702857,-7.9475255,3.536608,-3.490876,8.26987,177.90001,-126.9,-26.1,,,,x,,
714392,-4.8473506,13.208193,-6.9755435,1.8673899,-5.823208,8.056454,197.1,-138.90001,-25.500002,,,,x,,
714412,-3.622952,13.305691,-6.6674995,1.21952,-4.329296,8.704324,180.3,-143.70001,-27.300001,,,,x,,
714474,-1.8022047,10.716928,-8.578567,0.0,0.106708,11.181474,161.1,-148.5,-24.900002,,,,x,,
714538,0.08732887,8.080912,-5.6183567,0.213416,1.036592,6.28815,129.90001,-153.3,-23.1,,,,x,,
714598,1.6269488,6.940851,-4.207338,-1.013726,0.312502,6.714982,125.100006,-162.90001,-22.5,,,,x,,
714660,2.3411317,4.4567633,-2.401544,2.644834,2.195136,1.783548,81.9,-172.5,-21.900002,,,,x,,
714680,1.9343944,3.9232197,-2.1862125,2.103672,4.489358,0.396344,96.3,-162.90001,-23.7,,,,x,,
714720,1.9936105,2.8148608,-1.8428785,1.3795819,4.100636,0.083841994,93.9,-182.1,-27.300001,,,,x,,
714784,3.5828764,4.572803,-0.30445477,-1.158544,6.394858,-0.259148,86.700005,-165.3,-23.1,,,,x,,
714804,3.9148457,5.435325,-0.18781689,-0.884152,7.538158,-0.274392,89.100006,-172.5,-31.500002,,,,x,,
714826,4.2527966,6.6866403,-0.20935003,-0.358234,7.210412,-0.617382,89.100006,-182.1,-17.1,,,,x,,
714846,4.246217,7.8386636,0.019738719,-0.358234,7.759196,-0.907018,103.50001,-174.90001,-24.900002,,,,x,,
714886,1.7711014,8.117398,-1.1663787,0.198172,6.737848,-3.12502,91.5,-162.90001,-15.3,,,,x,,
714906,1.4911704,8.572585,-1.0760592,0.182928,4.291186,-1.958854,93.9,-167.70001,-17.7,,,,x,,
714926,1.3398403,9.105531,-1.0102634,0.17530599,3.88722,-1.6234859,96.3,-167.70001,-18.300001,,,,x,,
714946,0.53653425,9.451257,-1.5079185,0.480186,4.489358,-2.149404,93.9,-158.1,-19.5,,,,x,,
714967,0.18901318,10.167234,-2.7006154,0.868908,4.054904,-1.71495,108.3,-160.5,-24.900002,,,,x,,
714987,0.028112719,9.792797,-2.8537402,0.33536798,2.469528,-1.8902559,84.3,-167.70001,-20.7,,,,x,,
715007,0.10646945,9.562511,-2.6085014,-0.068598,1.173788,-1.33385,101.100006,-165.3,-20.1,,,,x,,
715030,0.12022674,9.135438,-2.6587455,-0.213416,1.089946,-1.082324,101.100006,-177.3,-19.5,,,,x,,
715050,0.26677176,9.369311,-2.933293,-0.053354,-0.091464,-0.60976,103.50001,-162.90001,-17.1,,,,x,,
715070,0.5126085,9.578662,-2.6090996,-0.03811,-1.41007,-0.358234,101.100006,-174.90001,-15.900001,,,,,,
715151,0.18303175,8.51935,-2.9925094,0.083841994,-0.594516,0.274392,98.700005,-167.70001,-21.900002,,,,,,
715216,0.99471176,9.37649,-2.86989,0.41158798,-1.3948259,1.158544,98.700005,-162.90001,-14.700001,,,,,,
715258,1.4481041,9.088184,-2.9105637,0.083841994,-1.79117,0.716468,110.700005,-160.5,-15.900001,,,,,,
715278,1.7286332,9.13125,-2.789739,-0.22865999,-1.33385,0.297258,101.100006,-155.70001,-22.5,,,,,,
715318,1.7890456,8.733485,-2.6838675,-1.1051899,0.022866,-1.310984,98.700005,-158.1,-17.7,,,,,,
715360,2.5720148,8.424844,-2.7000175,-1.189032,-0.891774,-1.036592,93.9,-165.3,-24.300001,,,,,,
715440,4.676282,5.977243,-3.7796655,1.509156,0.731712,-3.864354,103.50001,-165.3,-18.900002,,,,x,,
715460,5.6422825,6.3271565,-4.0195208,1.5929979,0.312502,-3.117398,115.50001,-155.70001,-26.1,,,,x,,
715500,4.823425,4.6834593,-2.9560225,-1.036592,3.536608,-6.4939437,120.3,-158.1,-15.3,,,,x,,
715520,3.6085966,2.6994193,-2.447003,-2.339954,4.253076,-8.254626,117.9,-160.5,-15.900001,,,,x,,
715542,2.5193782,1.6143879,-1.6580523,-2.599102,4.9466777,-7.9497457,134.70001,-167.70001,-24.300001,,,,x,,
715562,1.6125934,1.757344,-1.0204319,-2.32471,7.538158,-6.9283977,151.5,-158.1,-21.300001,,,,x,,
715582,-0.5658432,0.70760316,-1.3745326,-1.29574,9.809514,-8.68908,137.1,-155.70001,-14.700001,,,,x,,
715602,-1.071274,1.6646318,-2.1658757,1.707328,9.001582,-5.884184,144.3,-150.90001,-17.1,,,,x,,
715626,-0.5203844,5.91683,-0.5885727,0.830798,5.358266,-5.5945477,168.3,-143.70001,-8.700001,,,,x,,
715646,-1.2459319,7.275811,-1.3458217,3.16313,8.19365,-7.400962,165.90001,-138.90001,-19.5,,,,x,,
715710,-7.154388,7.5826583,-0.3200065,2.881116,2.599102,-7.5610237,175.5,-126.9,-17.1,,,,x,,
715740,-4.936474,11.252266,-0.7105939,-0.53354,-0.69360197,-4.61131,185.1,-126.9,-11.700001,,,,x,,
715760,-8.710158,11.185273,-0.77758586,0.708846,1.166166,-6.3567476,194.70001,-126.9,-12.900001,,,,x,,
715802,-5.605198,12.230827,-4.65116,2.301844,-7.599134,-2.32471,197.1,-110.100006,-12.3,,,,x,,
715822,-7.0646667,11.225947,1.0186375,-1.3643379,-12.088491,-3.2698379,194.70001,-117.3,-17.1,,,,x,,
715842,-7.4319263,13.032937,-2.9458542,3.879598,3.422278,-1.1356779,209.1,-107.700005,-8.700001,,,,x,,
715865,-5.886325,12.774539,-4.639795,2.088428,-7.4848037,-1.288118,201.90001,-112.50001,-12.3,,,,x,,
715926,-5.141039,15.188644,-5.593833,1.48629,-7.416206,2.195136,199.50002,-114.9,-14.700001,,,,x,,
716060,-5.181114,13.512648,-7.3320365,-0.41158798,-11.150986,6.051868,199.50002,-117.3,-20.1,,,,x,,
716100,-5.1607776,12.800858,-7.7752604,0.53354,-7.6219997,7.3628516,194.70001,-141.3,-12.3,,,,x,,
716120,-4.565027,12.10761,-6.983917,-0.53354,-9.733294,8.506152,185.1,-138.90001,-22.5,,,,x,,
716163,-2.4703305,11.325837,-8.080314,0.47256398,-3.8262439,9.474146,161.1,-138.90001,-25.500002,,,,x,,
716213,-1.2034637,9.775451,-6.7428656,-0.92226195,-2.32471,7.9954777,149.1,-146.1,-16.5,,,,x,,
716273,-0.34692293,7.146014,-6.4031205,-0.373478,0.503052,6.722604,127.50001,-158.1,-21.300001,,,,x,,
716293,0.59275967,7.366729,-6.338521,-2.012208,0.93750596,10.419273,122.700005,-162.90001,-27.300001,,,,x,,
716333,1.7693069,7.8590007,-4.7438717,-3.7500238,3.384168,10.083906,93.9,-167.70001,-25.500002,,,,x,,
716416,2.6826713,5.8731656,-2.6079032,0.213416,4.4207597,2.812518,79.5,-174.90001,-22.5,,,,x,,
716536,1.9302074,3.811367,-1.0820407,-1.18141,7.416206,-2.637212,60.300003,-167.70001,-24.900002,,,,x,,
716656,1.6000324,7.384075,0.04187001,-0.41921,5.350644,-2.454284,74.700005,-179.70001,-17.7,,,,x,,
716696,1.4983481,9.214393,-0.06878644,-0.64787,4.38265,-1.41007,81.9,-167.70001,-18.900002,,,,x,,
716716,0.77459514,8.802272,-0.9301123,-0.68597996,4.756128,-2.027452,77.100006,-174.90001,-22.5,,,,x,,
716756,0.72853816,9.75332,-1.8249342,0.64787,1.1432999,-0.007622,98.700005,-177.3,-24.900002,,,,x,,
716796,1.4487023,9.811937,-1.8572339,0.16768399,0.510674,-0.449698,67.5,-162.90001,-24.300001,,,,x,,
716818,1.710689,9.444079,-1.9260204,0.129574,-0.121952,-0.49543,98.700005,-165.3,-21.300001,,,,x,,
716838,1.7292314,9.271814,-1.6712115,-0.243904,-0.47256398,-0.20579399,84.3,-167.70001,-18.300001,,,,,,
716878,1.7884475,9.149195,-1.7274369,-0.64787,-0.41921,-0.632626,86.700005,-170.1,-21.900002,,,,,,
716902,1.8309157,8.931471,-1.9601145,-0.182928,-0.312502,-0.525918,84.3,-160.5,-19.5,,,,,,
716922,1.627547,8.977528,-1.9475535,-0.20579399,-0.739334,-0.221038,84.3,-184.5,-21.300001,,,,,,
716965,1.832112,9.329834,-2.2753358,0.80030996,0.41921,-0.030488,93.9,-167.70001,-24.300001,,,,,,
716995,1.2818204,8.778944,-2.6946342,0.41921,0.160062,-1.1128119,79.5,-160.5,-21.900002,,,,,,
717015,1.5784993,8.563015,-2.8968065,0.769822,-0.11432999,-0.518296,84.3,-146.1,-20.1,,,,,,
717055,1.7220536,9.423144,-2.7604299,0.23628199,0.259148,-0.731712,89.100006,-160.5,-23.7,,,,,,
717137,0.815867,8.380581,-2.5546687,0.327746,-0.030488,-2.393308,89.100006,-165.3,-19.5,,,,,,
717203,2.9015915,11.414362,-2.8017018,1.440558,-0.213416,-0.015244,98.700005,-165.3,-24.300001,,,,,,
717360,1.5258627,9.067249,-2.5044246,1.3719599,0.35061198,-2.065562,108.3,-158.1,-19.5,,,,,,
717400,1.3189052,9.429126,-3.2066445,1.158544,-0.49543,-1.745438,115.50001,-167.70001,-16.5,,,,,,
717420,1.4833946,9.147401,-3.20485,1.1128119,-0.785066,-1.211898,110.700005,-155.70001,-16.5,,,,,,
717443,0.958225,9.115101,-3.325675,1.196654,-0.998482,-1.1051899,117.9,-158.1,-19.5,,,,,,
717463,0.62326497,9.219177,-3.585269,1.196654,-0.846042,-0.72409,125.100006,-165.3,-19.5,,,,,,
717483,0.61608726,9.849022,-3.6749904,0.53354,-1.501534,-0.449698,120.3,-155.70001,-14.700001,,,,,,
717503,0.24464047,9.588232,-3.1558022,-0.213416,-1.806414,-0.99086,120.3,-150.90001,-17.1,,,,,,
717523,-0.4360462,9.127662,-3.154606,-0.41921,-0.7622,-1.44818,117.9,-148.5,-20.1,,,,,,
717543,-1.0969942,8.319571,-3.2287757,-0.053354,-0.11432999,-1.67684,129.90001,-165.3,-14.1,,,,,,
717563,-1.276437,9.229346,-3.4207797,0.586894,-0.99086,-1.737816,117.9,-162.90001,-17.1,,,,,,
717603,-1.4899741,8.128763,-2.9279099,0.11432999,-0.746956,-1.806414,132.3,-162.90001,-17.7,,,,,,
717623,-1.3984582,8.413479,-3.1528115,0.015244,-0.45731997,-1.79117,122.700005,-155.70001,-15.3,,,,,,
717643,-1.3069423,8.92848,-3.4189851,0.358234,-0.41921,-1.3719599,137.1,-162.90001,-15.3,,,,,,
717663,-0.8601296,9.947716,-3.6068022,-0.07622,-0.777444,-1.158544,127.50001,-153.3,-20.7,,,,,,
717703,-0.46834594,9.505688,-3.2712438,-0.358234,-0.708846,-1.48629,132.3,-155.70001,-18.900002,,,,,,
717766,-0.3786245,9.251477,-3.4064243,0.0,-0.602138,-0.083841994,139.5,-153.3,-10.5,,,,,,
717808,-0.37802637,8.606679,-3.514688,-0.20579399,-0.030488,-0.81555396,120.3,-153.3,-17.7,,,,,,
717961,2.3794127,7.1244807,-3.9088643,-1.1128119,0.548784,-1.783548,146.70001,-153.3,-13.500001,,,,,,
718003,3.30474,5.0525136,-4.9304924,0.83842,0.30488,-2.164648,153.90001,-153.3,-15.900001,,,,x,,
718023,4.395753,7.7585125,-4.1194105,-0.106708,-3.2317278,-1.097568,151.5,-150.90001,-17.1,,,,x,,
718086,3.4530795,3.459061,-1.3422328,-2.522882,1.516778,-8.795788,158.70001,-148.5,-18.300001,,,,x,,
718126,1.5461996,1.8578321,-1.1041719,-1.3643379,7.3628516,-6.36437,168.3,-143.70001,-19.5,,,,x,,
718146,0.9157569,3.2855992,-1.2214079,-1.166166,6.638762,-4.9543,185.1,-136.5,-21.300001,,,,x,,
718166,-0.88465345,3.3035436,-0.86132586,-0.548784,7.309498,-6.44059,173.1,-143.70001,-23.1,,,,x,,
718190,-1.8034011,5.158983,-1.1711639,0.487808,4.9314337,-6.753092,189.90001,-134.1,-15.900001,,,,x,,
718214,-3.3137121,6.26794,-0.5843857,1.158544,5.4878397,-7.149436,201.90001,-141.3,-9.900001,,,,x,,
718234,-4.5010257,9.368115,-1.6323322,2.492394,6.036624,-4.321674,197.1,-126.9,-11.700001,,,,x,,
718254,-4.036867,11.661994,-1.3308681,-0.94512796,3.841488,-6.692116,199.50002,-114.9,-15.900001,,,,x,,
718274,-5.0016713,7.601201,-0.81945586,0.579272,2.6981878,-10.02293,197.1,-124.50001,-11.1,,,,x,,
718294,-6.513179,8.973341,-1.3829066,0.53354,3.986306,-5.3811316,204.3,-100.50001,-16.5,,,,x,,
718314,-6.4408035,10.475876,-3.1695597,1.06708,4.0015497,-4.11588,206.70001,-112.50001,-14.1,,,,x,,
718337,-6.7165475,10.551242,-3.0212202,1.3643379,-1.318606,-3.35368,223.50002,-105.3,-7.5000005,,,,x,,
718357,-7.212408,11.135628,-2.2831118,0.67073596,-2.850628,-2.2789779,211.50002,-100.50001,-10.5,,,,x,,
718377,-7.3200736,12.625004,-3.6235502,1.288118,-0.769822,-1.044214,221.1,-102.9,-9.3,,,,x,,
718397,-6.7793527,12.738651,-3.7072902,0.884152,-5.670768,-1.059458,209.1,-107.700005,-8.1,,,,x,,
718417,-6.2410235,13.025162,-2.7604299,1.044214,-8.529017,-0.259148,225.90001,-90.9,-11.700001,,,,x,,
718437,-8.701784,12.287053,-2.4200864,1.18141,-3.833866,-0.426832,230.70001,-112.50001,-5.1000004,,,,x,,
718461,-6.517964,15.269992,-4.9609976,1.036592,-6.112844,3.025934,223.50002,-88.5,-10.5,,,,x,,
718482,-7.806962,14.386535,-3.0487347,-1.082324,-8.498529,1.806414,233.1,-93.3,-8.700001,,,,x,,
718502,-8.1251745,13.86615,-4.0177264,0.998482,-4.733262,2.85825,225.90001,-107.700005,-17.7,,,,x,,
718523,-7.106537,14.891367,-5.0728507,0.91463995,-6.730226,3.856732,221.1,-107.700005,-14.700001,,,,x,,
718543,-6.6340036,13.867945,-3.7976098,0.434454,-9.6723175,3.948196,223.50002,-114.9,-9.3,,,,x,,
718566,-7.2794,13.504273,-3.6875515,0.3811,-7.92688,3.940574,233.1,-105.3,-16.5,,,,x,,
718586,-6.814045,12.981497,-5.3940535,2.080806,-3.102154,4.626554,216.3,-122.100006,-12.3,,,,x,,
718606,-6.2021446,13.042507,-6.498225,1.928366,-6.234796,4.969544,209.1,-110.100006,-17.7,,,,x,,
718626,-5.819931,12.6716585,-5.7882295,0.82317597,-9.062558,4.474114,201.90001,-112.50001,-20.1,,,,x,,
718687,-4.5159793,11.787603,-6.1847982,0.20579399,-7.385718,7.225656,189.90001,-122.100006,-21.300001,,,,x,,
718707,-4.556055,11.327033,-5.9760466,0.099086,-5.846074,7.027484,204.3,-129.3,-21.300001,,,,x,,
718731,-3.6743922,10.051194,-7.460637,-0.030488,-0.81555396,8.147918,189.90001,-131.70001,-21.900002,,,,x,,
718751,-2.07436,10.6738615,-7.2327447,-1.989342,-5.243936,9.489389,177.90001,-141.3,-23.7,,,,x,,
718773,-1.949946,10.498606,-5.5292335,-3.2774599,-6.082356,7.461938,177.90001,-138.90001,-21.300001,,,,x,,
718793,-2.3166077,7.448674,-6.334334,-0.99086,0.94512796,6.471078,173.1,-141.3,-26.1,,,,x,,
718814,-1.4463097,7.964872,-6.92829,-1.509156,0.45731997,8.544262,158.70001,-146.1,-20.7,,,,x,,
718834,-0.9636083,8.569594,-4.8946037,-3.003068,-2.606724,8.315601,151.5,-146.1,-22.5,,,,x,,
718854,-0.96958977,7.818925,-4.6421876,-1.5929979,-0.297258,7.0960817,141.90001,-155.70001,-27.300001,,,,x,,
718874,0.14534874,7.349981,-5.560337,0.67835796,1.3719599,6.9283977,132.3,-148.5,-23.1,,,,x,,
718897,0.69564027,7.5114794,-4.429249,-0.64787,1.204276,7.911636,122.700005,-150.90001,-24.300001,,,,x,,
718917,1.196884,7.4097953,-4.6074953,0.358234,3.330814,6.547298,125.100006,-172.5,-27.300001,,,,x,,
718937,1.4319543,6.894196,-4.3813972,1.051836,2.93447,4.908568,122.700005,-158.1,-31.500002,,,,x,,
718957,1.4881797,6.380391,-3.785647,1.189032,2.2256238,2.89636,117.9,-150.90001,-20.7,,,,x,,
718977,1.8231398,5.6440773,-3.350797,1.8750119,4.1921,1.669218,105.9,-160.5,-24.900002,,,,x,,
718997,2.033088,5.945541,-3.2150185,1.089946,4.710396,0.94512796,105.9,-167.70001,-22.5,,,,x,,
719019,1.2572966,4.9352775,-2.7347097,0.67073596,5.3658876,-1.189032,110.700005,-160.5,-24.300001,,,,x,,
719040,0.8840553,4.6517577,-2.1634831,0.853664,4.9161897,-1.989342,103.50001,-167.70001,-19.5,,,,x,,
719101,1.2309783,4.1804214,-0.4827014,0.35061198,4.131124,-3.2622159,110.700005,-172.5,-23.1,,,,x,,
719121,1.9607127,5.5687113,-0.73511773,0.708846,3.521364,-1.554888,108.3,-160.5,-21.900002,,,,x,,
719184,2.074958,8.183792,-0.3158195,-0.15244,2.843006,-0.22865999,117.9,-167.70001,-20.7,,,,x,,
719362,0.6238631,8.788515,-2.3225892,-0.716468,-0.099086,-1.051836,110.700005,-165.3,-15.900001,,,,,,
719422,0.14714317,9.111512,-3.128886,-0.480186,0.22865999,-0.45731997,115.50001,-155.70001,-20.1,,,,,,
719458,0.49586052,9.188074,-3.0654826,-0.777444,-0.754578,0.602138,120.3,-155.70001,-12.3,,,,,,
719478,0.5455064,8.810646,-2.6928396,-0.94512796,-0.72409,0.602138,115.50001,-153.3,-21.300001,,,,,,
719518,0.4384388,8.406899,-2.9255173,-0.11432999,-0.045732,0.33536798,127.50001,-160.5,-15.3,,,,,,
719540,0.4940661,8.472695,-3.1246989,0.373478,-0.28201398,0.754578,125.100006,-160.5,-14.1,,,,,,
719560,0.42408335,8.692214,-3.0762494,0.426832,-0.525918,0.87653,117.9,-155.70001,-15.3,,,,,,
719582,0.54371196,9.292749,-3.299955,0.785066,-0.26677,0.632626,115.50001,-155.70001,-12.3,,,,,,
719642,0.4551868,8.894984,-3.8227317,0.548784,0.46494198,-0.221038,117.9,-162.90001,-18.300001,,,,,,
719662,0.73691213,8.886012,-3.7025049,0.34298998,-0.34298998,-0.22865999,120.3,-174.90001,-15.3,,,,,,
719682,1.0138524,8.766981,-3.8861349,0.160062,0.586894,-0.121952,115.50001,-155.70001,-14.700001,,,,,,
719702,1.2943814,8.566604,-4.009352,-0.312502,0.93750596,-0.221038,115.50001,-155.70001,-21.900002,,,,x,,
719762,3.3083289,5.806174,-4.6780763,1.8597679,4.809482,-2.01983,122.700005,-160.5,-16.5,,,,x,,
719785,4.7414794,6.930084,-5.4604473,2.568614,2.073184,0.30488,125.100006,-158.1,-12.900001,,,,x,,
719805,5.773276,8.495424,-4.0296893,0.19055,-0.899396,-0.434454,115.50001,-162.90001,-19.5,,,,x,,
719827,6.2739215,8.100052,-2.986528,-0.93750596,2.949714,-4.5122237,113.100006,-158.1,-16.5,,,,x,,
719847,5.730808,6.123788,-3.4883697,-0.967994,7.6067557,-8.010722,125.100006,-150.90001,-15.900001,,,,x,,
719869,5.071056,4.862304,-3.5751004,-1.288118,7.58389,-9.054935,127.50001,-148.5,-13.500001,,,,x,,
719889,4.3359385,4.38379,-2.5624444,-2.111294,5.4725957,-9.123534,134.70001,-143.70001,-20.1,,,,x,,
719909,3.1073527,3.371732,-1.1597992,-2.568614,5.647902,-10.373542,144.3,-148.5,-17.1,,,,x,,
719929,1.9678904,2.2585878,-0.614891,-2.164648,7.69822,-11.044278,153.90001,-153.3,-25.500002,,,,x,,
719949,0.5754135,0.9348975,-0.3923818,-2.2484899,7.721086,-11.753123,158.70001,-148.5,-18.300001,,,,x,,
719969,-2.1736515,-0.09630102,-0.21413518,0.129574,7.9802337,-10.807996,165.90001,-117.3,-10.5,,,,x,,
719989,-2.4308531,2.4900692,-0.9588232,1.684462,6.0747337,-7.294254,173.1,-136.5,-15.3,,,,x,,
720009,-2.4236753,4.4442024,-0.50363636,1.577754,3.2850819,-6.4786997,185.1,-131.70001,-14.700001,,,,x,,
720049,-4.246815,8.433218,-2.4308531,2.888738,5.358266,-5.3658876,185.1,-117.3,-12.900001,,,,x,,
720069,-4.6637206,7.4546556,-1.8440747,1.326228,-1.722572,-7.881148,189.90001,-126.9,-7.5000005,,,,x,,
720149,-6.4814773,11.64046,-2.2316713,-0.160062,-4.580822,-3.170752,213.90001,-107.700005,-13.500001,,,,x,,
720180,-6.0011683,12.230827,-2.978752,0.91463995,-1.8445239,-2.347576,204.3,-100.50001,-12.3,,,,x,,
720200,-7.3075128,13.41216,-3.3854892,0.35061198,-5.823208,-2.149404,218.70001,-100.50001,-13.500001,,,,x,,
720240,-6.3959427,14.779514,-3.6767848,-0.510674,-6.8521776,0.45731997,218.70001,-98.100006,-6.3,,,,x,,
720284,-9.515857,13.129238,-4.8545284,2.6677,1.166166,0.045732,228.3,-110.100006,-15.3,,,,x,,
720304,-5.8564177,16.022455,-7.7914104,3.132642,-2.995446,4.161612,221.1,-98.100006,-9.900001,,,,x,,
720324,-6.284688,15.445846,-4.4627447,-2.7210538,-16.42541,-0.03811,209.1,-95.700005,-12.900001,,,,x,,
720366,-7.3063164,13.753101,-7.015021,4.138746,1.4024479,2.59148,223.50002,-114.9,-21.900002,,,,x,,
720387,-6.316988,14.315954,-7.927189,1.6539739,-7.286632,3.3155699,218.70001,-112.50001,-17.7,,,,x,,
720407,-7.64008,13.348159,-5.505906,0.099086,-12.141846,2.644834,216.3,-117.3,-14.1,,,,x,,
720427,-6.5418897,12.644144,-5.543589,1.966476,-8.849142,5.061008,213.90001,-117.3,-17.7,,,,x,,
720448,-5.7056856,12.102825,-4.34192,0.121952,-8.033587,6.257662,228.3,-112.50001,-20.1,,,,x,,
720468,-5.3563704,11.171516,-5.1326647,2.621968,-3.170752,6.4482117,204.3,-129.3,-21.300001,,,,x,,
720488,-4.559046,10.478269,-5.819931,2.43904,-2.317088,7.8125496,194.70001,-119.700005,-24.300001,,,,x,,
720512,-4.1152234,10.768368,-5.4819803,1.02897,-3.071666,9.07018,189.90001,-119.700005,-24.300001,,,,x,,
720532,-4.0978775,10.803061,-5.397642,1.242386,-1.48629,8.978716,185.1,-136.5,-12.3,,,,x,,
720552,-4.141542,10.358042,-5.4149885,0.121952,-0.92226195,8.940606,177.90001,-114.9,-14.700001,,,,x,,
720572,-3.3286657,10.140318,-5.5029154,-0.983238,-0.35061198,9.56561,177.90001,-143.70001,-15.3,,,,x,,
720594,-3.4034336,9.462024,-5.3749127,-1.56251,-0.365856,8.780544,175.5,-150.90001,-17.7,,,,x,,
720614,-2.1401556,9.603186,-5.6680026,-1.516778,-1.1204339,8.696702,151.5,-150.90001,-15.900001,,,,x,,
720634,-1.4092249,8.345889,-4.5949345,-2.850628,-3.528986,6.699738,151.5,-146.1,-13.500001,,,,x,,
720654,-1.0563204,7.061676,-4.313209,-1.760682,-0.55640596,7.16468,161.1,-150.90001,-17.7,,,,x,,
720714,1.6018269,7.632304,-5.304332,-0.259148,0.106708,8.856764,129.90001,-158.1,-21.900002,,,,x,,
720734,1.8081862,7.537798,-5.0979724,-0.091464,3.330814,6.70736,108.3,-167.70001,-17.1,,,,x,,
720754,2.1766422,7.0090394,-5.3916607,0.93750596,4.0777698,5.86894,103.50001,-165.3,-23.7,,,,x,,
720774,2.5708184,6.24222,-5.199657,0.67073596,1.821658,5.37351,103.50001,-170.1,-16.5,,,,x,,
720794,3.1031656,6.857111,-4.07455,-0.320124,2.088428,5.739366,96.3,-167.70001,-23.1,,,,x,,
720814,2.8980026,6.6178536,-3.7383935,-0.82317597,4.740884,3.2241058,96.3,-170.1,-16.5,,,,x,,
720836,2.095893,4.72832,-3.7042994,-0.541162,6.0747337,1.417692,93.9,-170.1,-15.3,,,,x,,
720898,2.455975,4.2103286,-1.7567459,-1.6311079,3.7347798,1.547266,93.9,-165.3,-24.900002,,,,x,,
720918,3.1522136,5.036962,-1.3912805,-1.661596,4.4055157,1.67684,79.5,-158.1,-25.500002,,,,x,,
720938,3.3938632,5.449681,-1.0359837,-1.9131219,3.8186219,0.861286,81.9,-162.90001,-18.900002,,,,x,,
720959,3.6127834,5.6123757,-0.46296266,-1.974098,4.253076,0.792688,74.700005,-177.3,-18.300001,,,,x,,
720979,3.8047874,5.977841,-0.27454764,-2.545748,5.686012,0.365856,81.9,-174.90001,-14.700001,,,,x,,
721000,4.0087543,6.6178536,-0.6711164,-2.012208,6.227174,-0.091464,72.3,-158.1,-21.900002,,,,x,,
721020,3.4596589,6.77696,-0.41212052,-1.8292799,5.846074,-0.975616,86.700005,-160.5,-23.1,,,,x,,
721041,3.1444376,7.484563,-0.6615461,-1.288118,5.419242,-1.1356779,93.9,-158.1,-17.1,,,,x,,
721061,2.3895812,7.785429,-0.60472256,-0.67073596,4.474114,-1.9131219,86.700005,-174.90001,-22.5,,,,x,,
721081,2.0193307,8.432021,-1.108957,0.213416,3.2088618,-1.5929979,96.3,-167.70001,-24.300001,,,,x,,
721141,0.60232997,9.786816,-1.6795855,0.34298998,1.48629,-1.9131219,84.3,-167.70001,-17.1,,,,,,
721378,0.974973,8.99966,-2.4087217,-0.17530599,-0.060976,0.320124,91.5,-170.1,-19.5,,,,,,
721398,1.1011813,9.13125,-2.61867,0.20579399,-0.312502,0.777444,96.3,-162.90001,-20.1,,,,,,
721441,1.3649622,9.079212,-2.4464047,0.259148,-1.173788,1.1204339,96.3,-165.3,-14.1,,,,,,
721461,1.3942713,9.00923,-2.5415094,0.07622,-1.1204339,0.67835796,101.100006,-162.90001,-26.1,,,,x,,
721483,2.0217233,9.16056,-2.631829,0.274392,-1.493912,0.30488,74.700005,-162.90001,-19.5,,,,x,,
721503,2.2280827,9.127064,-2.4900692,-0.16768399,-1.250008,-0.144818,93.9,-158.1,-18.900002,,,,x,,
721523,2.171857,8.597707,-2.6431937,-0.82317597,-0.17530599,-0.792688,84.3,-170.1,-18.900002,,,,x,,
721543,2.4123106,8.518752,-3.258683,-0.46494198,0.830798,-0.95274997,89.100006,-170.1,-24.300001,,,,x,,
721566,2.535528,7.960087,-3.794619,0.045732,0.861286,-1.6539739,86.700005,-167.70001,-17.1,,,,x,,
721586,3.3023474,8.322561,-4.253993,-0.396344,0.053354,-1.463424,93.9,-179.70001,-18.900002,,,,x,,
721606,4.0261,7.486357,-4.40951,0.0,1.18141,-2.576236,93.9,-158.1,-18.300001,,,,x,,
721627,4.601514,7.1597714,-4.9849234,1.227142,1.516778,-2.332332,89.100006,-155.70001,-20.7,,,,x,,
721647,5.4407086,7.9714513,-5.1601796,1.044214,1.3490939,-2.484772,98.700005,-162.90001,-15.3,,,,x,,
721667,6.0615807,8.070145,-4.9011836,0.67835796,2.080806,-4.8857017,96.3,-153.3,-19.5,,,,x,,
721730,3.8723776,3.8514426,-1.9439646,-0.663114,1.501534,-10.510737,120.3,-165.3,-17.7,,,,x,,
721750,3.0361738,3.1121378,-0.6388167,-0.11432999,3.650938,-10.777508,129.90001,-158.1,-20.1,,,,x,,
721770,2.6539605,3.5081086,-0.47492552,0.60976,5.541194,-10.541225,144.3,-148.5,-13.500001,,,,x,,
721790,2.1012762,3.6809719,0.046655152,-0.16768399,4.634176,-10.754642,144.3,-138.90001,-23.1,,,,x,,
721813,0.43365365,2.915947,1.4720298,-0.579272,5.03052,-11.433,173.1,-153.3,-15.900001,,,,x,,
721874,-2.0737617,8.18439,1.7388016,0.213416,-0.594516,-8.452798,189.90001,-143.70001,-12.3,,,,x,,
721938,-6.422859,7.5318165,0.3481192,2.82014,-1.265252,-8.551884,213.90001,-124.50001,-11.1,,,,x,,
721977,-7.221978,9.447668,-1.836897,2.469528,-4.169234,-7.9192576,223.50002,-110.100006,-12.900001,,,,x,,
721998,-7.4187675,7.4923387,-0.25779963,2.522882,-6.196686,-6.814068,211.50002,-93.3,-8.700001,,,,x,,
722038,-7.1944637,12.707547,-3.1342692,2.7744079,-2.865872,-2.080806,237.90001,-95.700005,-14.1,,,,x,,
722094,-9.950109,10.171421,-3.3501987,2.560992,-5.0228977,0.899396,228.3,-93.3,-9.3,,,,x,,
722118,-6.795502,13.366103,-4.4705205,3.605206,-7.6524878,4.45887,240.3,-90.9,-17.7,,,,x,,
722160,-8.638381,10.51655,-6.370821,4.550334,-4.718018,3.6661818,249.90001,-93.3,-17.1,,,,x,,
722180,-7.534807,13.300905,-4.2270765,-0.55640596,-14.939119,6.0747337,233.1,-86.100006,-13.500001,,,,x,,
722220,-8.170034,13.511452,-8.044425,5.388754,1.6158639,5.358266,230.70001,-100.50001,-11.700001,,,,x,,
722240,-6.4898515,14.419433,-8.287869,0.45731997,-11.410133,5.5335717,233.1,-93.3,-18.300001,,,,x,,
722261,-8.375796,13.183071,-4.9053707,-0.899396,-13.208925,4.23021,223.50002,-105.3,-15.3,,,,x,,
722281,-7.309905,13.905029,-7.0419374,2.599102,-3.7119138,5.929916,230.70001,-112.50001,-20.7,,,,x,,
722341,-5.614768,12.112993,-5.270238,0.47256398,-9.542744,4.5579557,221.1,-105.3,-28.500002,,,,x,,
722361,-5.7385836,11.202022,-5.7762666,1.920744,-1.920744,5.663146,206.70001,-107.700005,-18.300001,,,,x,,
722382,-4.9233146,11.755902,-7.4331226,2.621968,0.449698,7.568646,189.90001,-129.3,-25.500002,,,,x,,
722402,-4.4771004,12.178191,-7.220782,0.525918,-2.942092,8.018344,201.90001,-122.100006,-21.300001,,,,x,,
722424,-4.1899915,11.376679,-6.0430384,-0.449698,-2.088428,7.896392,206.70001,-124.50001,-30.300001,,,,x,,
722444,-3.816152,10.564402,-6.352278,-0.274392,2.32471,8.483286,185.1,-129.3,-27.900002,,,,x,,
722464,-2.7137747,9.688122,-6.994086,-0.091464,1.6234859,9.321706,173.1,-146.1,-29.1,,,,x,,
722484,-2.2741396,9.618737,-6.4055133,-0.67073596,0.137196,9.5275,180.3,-138.90001,-16.5,,,,x,,
722504,-1.3458217,9.384863,-4.907763,-1.280496,2.195136,7.629622,151.5,-158.1,-20.1,,,,x,,
722525,-1.4199914,8.534304,-5.096178,-0.221038,4.626554,6.265284,151.5,-153.3,-20.7,,,,x,,
722545,-1.2321745,6.547273,-5.921017,0.868908,6.3567476,5.731744,158.70001,-148.5,-23.7,,,,x,,
722565,-0.51799184,7.382879,-6.1184044,-1.02897,4.30643,10.449761,149.1,-146.1,-18.900002,,,,x,,
722629,0.67291087,5.723032,-3.7742822,-0.640248,6.638762,5.670768,115.50001,-165.3,-22.5,,,,x,,
722649,0.78715616,5.048925,-3.1109416,0.426832,5.625036,4.0320377,108.3,-162.90001,-23.1,,,,x,,
722669,1.1777436,5.3850813,-2.4493954,0.518296,4.024416,3.361302,103.50001,-165.3,-21.300001,,,,x,,
722689,1.2249968,5.647068,-1.5378256,0.091464,5.350644,2.2637339,98.700005,-165.3,-21.900002,,,,x,,
722709,0.5652451,4.7169557,-1.6454914,-0.221038,7.85066,0.434454,98.700005,-158.1,-19.5,,,,x,,
722749,1.5874715,6.9336734,-1.6006306,0.28201398,5.914672,2.416174,89.100006,-158.1,-23.1,,,,x,,
722813,1.8075881,4.32577,-0.4928698,-0.891774,4.100636,2.949714,89.100006,-160.5,-20.7,,,,x,,
722835,3.212626,5.5525613,-0.07117901,-0.69360197,4.9619217,3.978684,93.9,-162.90001,-20.1,,,,x,,
722855,3.7641137,6.521553,0.14953575,-1.150922,4.664664,3.910086,91.5,-174.90001,-20.1,,,,x,,
722897,4.1092424,7.84943,-0.058618013,-0.579272,4.519846,1.5929979,74.700005,-174.90001,-22.5,,,,,,
722956,3.1217082,7.538994,-0.62027425,0.121952,2.2180018,-1.3872039,98.700005,-162.90001,-21.300001,,,,,,
722996,1.8817577,9.684533,-1.9092723,1.051836,1.935988,-1.661596,81.9,-172.5,-17.7,,,,,,
723016,1.5671346,9.902855,-2.6366143,1.463424,1.1051899,-1.8826339,77.100006,-162.90001,-15.3,,,,,,
723056,0.9145606,9.319068,-2.5881646,0.30488,-0.716468,-2.080806,89.100006,-165.3,-21.300001,,,,,,
723076,0.8547463,9.622326,-2.8226366,0.40396598,-0.884152,-1.8673899,79.5,-170.1,-17.7,,,,,,
723096,0.81168,8.93506,-2.6976247,0.182928,-1.3719599,-1.775926,91.5,-165.3,-18.900002,,,,,,
723116,0.95523435,8.878236,-2.8375902,0.22865999,-1.6539739,-0.72409,86.700005,-158.1,-15.900001,,,,,,
723139,0.96899164,8.664101,-2.6880546,0.40396598,-1.94361,-0.045732,86.700005,-177.3,-19.5,,,,,,
723159,1.0700778,9.097157,-2.7131765,0.320124,-1.8445239,0.625004,98.700005,-165.3,-14.700001,,,,,,
723180,1.2076507,8.927882,-2.6473808,-0.121952,-1.3490939,0.396344,91.5,-170.1,-17.7,,,,,,
723201,1.3344569,9.040931,-2.832207,-0.19055,-0.769822,0.289636,69.9,-177.3,-19.5,,,,,,
723221,1.2608854,8.927284,-3.0577068,0.182928,-0.55640596,0.060976,91.5,-170.1,-18.900002,,,,,,
723241,1.4732262,9.393835,-3.1282878,0.57164997,-0.967994,0.35061198,91.5,-158.1,-15.900001,,,,,,
723262,1.5456015,9.276001,-2.9560225,0.396344,-1.3795819,0.35061198,91.5,-167.70001,-18.900002,,,,,,
723282,1.4792075,8.609072,-2.3417296,-0.160062,-1.1051899,0.625004,89.100006,-162.90001,-17.1,,,,,,
723302,1.1352754,8.722121,-2.7550466,-0.259148,0.487808,1.265252,91.5,-174.90001,-18.900002,,,,,,
723365,2.1892033,9.166541,-3.3244786,0.243904,0.487808,1.318606,74.700005,-172.5,-18.300001,,,,x,,
723387,2.363263,9.015211,-3.8735738,0.396344,1.3643379,0.160062,79.5,-170.1,-13.500001,,,,x,,
723407,2.4840877,8.704177,-4.2839,-0.007622,1.5929979,-0.792688,72.3,-153.3,-19.5,,,,x,,
723427,3.0092573,8.521743,-4.657739,-0.259148,1.6234859,-1.272874,79.5,-162.90001,-19.5,,,,x,,
723451,3.576895,8.569594,-4.857519,-1.166166,1.173788,-1.471046,81.9,-167.70001,-12.900001,,,,x,,
723471,3.7007105,8.166446,-4.777966,-1.722572,0.777444,-1.996964,81.9,-162.90001,-17.1,,,,x,,
723491,4.342518,7.8841224,-4.631421,-1.6158639,0.884152,-2.309466,74.700005,-167.70001,-18.300001,,,,x,,
723514,4.6338134,6.994086,-3.5547638,-2.62959,1.722572,-4.054904,89.100006,-167.70001,-14.700001,,,,x,,
723534,5.0178213,6.031674,-3.8107688,-1.9131219,4.0472817,-4.817104,86.700005,-162.90001,-16.5,,,,x,,
723554,5.3276596,6.2476034,-3.6151762,-1.9131219,3.833866,-5.198204,96.3,-167.70001,-15.3,,,,x,,
723574,5.083617,5.5453835,-2.7598317,-1.928366,4.771372,-7.599134,103.50001,-162.90001,-19.5,,,,x,,
723595,5.2528915,4.958007,-2.4876766,-1.1280559,6.25004,-8.849142,110.700005,-165.3,-21.900002,,,,x,,
723615,5.0519156,4.245021,-1.7088945,-1.8673899,6.318638,-9.801891,108.3,-158.1,-18.900002,,,,x,,
723635,3.380106,2.0809393,-0.757249,-2.126538,7.713464,-11.20434,122.700005,-153.3,-11.1,,,,x,,
723655,2.568426,1.83271,-0.59694666,-0.602138,9.512256,-9.489389,134.70001,-155.70001,-14.700001,,,,x,,
723675,1.9038891,2.9183395,-0.56165624,-0.960372,9.207376,-9.329328,125.100006,-155.70001,-14.1,,,,x,,
723698,0.027514577,1.8967113,0.32897863,-1.234764,7.743952,-11.2195835,137.1,-150.90001,-13.500001,,,,x,,
723718,-0.4007558,3.0517254,1.5001426,-0.739334,4.428382,-9.436036,144.3,-153.3,-21.300001,,,,x,,
723778,-4.674487,7.915226,1.6915483,0.846042,3.864354,-11.265316,180.3,-134.1,-12.3,,,,x,,
723798,-6.258968,5.550767,1.9003003,3.8262439,-0.251526,-10.678422,185.1,-134.1,-17.1,,,,x,,
723818,-7.48875,9.057081,-0.3134269,3.643316,2.614346,-6.4634557,197.1,-119.700005,-18.900002,,,,x,,
723838,-7.5366015,10.312583,-1.4983481,4.123502,2.355198,-6.394858,201.90001,-124.50001,-8.1,,,,x,,
723898,-8.245999,8.913527,-0.22849062,2.545748,-4.283564,-6.562542,206.70001,-107.700005,-9.900001,,,,x,,
723918,-6.547273,11.7756405,-3.4297519,5.205826,-1.1280559,-2.332332,216.3,-105.3,-10.5,,,,x,,
723938,-6.773371,13.797962,-2.0821357,0.94512796,-10.74702,-4.085392,221.1,-105.3,-8.1,,,,x,,
723958,-9.439294,11.085981,-1.6161823,3.567096,-4.550334,-5.556438,230.70001,-100.50001,-13.500001,,,,x,,
723978,-8.157474,12.775736,-4.0715594,4.390272,-4.054904,-1.539644,221.1,-93.3,-12.900001,,,,x,,
723998,-6.969562,13.7405405,-2.584576,1.6234859,-9.1463995,-1.783548,237.90001,-78.9,-9.900001,,,,x,,
724021,-10.755209,14.353637,-5.841464,6.920776,4.855214,0.22865999,235.50002,-88.5,-15.3,,,,x,,
724085,-10.510569,12.975515,-4.864697,2.538126,-5.846074,4.0777698,228.3,-90.9,-12.900001,,,,x,,
724105,-7.351775,16.242573,-9.076221,3.7728899,0.129574,6.775958,233.1,-93.3,-15.3,,,,x,,
724125,-6.887616,14.848301,-9.14441,0.106708,-11.2195835,3.033556,221.1,-81.3,-15.900001,,,,x,,
724146,-8.514565,11.955084,-6.4114947,0.17530599,-15.426928,2.873494,233.1,-90.9,-12.900001,,,,x,,
724166,-6.6555367,14.350048,-8.225662,2.339954,-6.814068,7.8277936,218.70001,-107.700005,-15.3,,,,x,,
724186,-6.437813,13.77942,-8.420657,1.318606,-8.521396,7.057972,235.50002,-107.700005,-21.900002,,,,x,,
724206,-5.3707256,13.172903,-7.2136045,-0.03811,-12.279041,7.0808377,211.50002,-105.3,-26.1,,,,x,,
724226,-7.4941335,11.853997,-6.3911576,0.503052,-8.170784,6.181442,206.70001,-114.9,-18.900002,,,,x,,
724246,-5.80737,11.541168,-8.947022,2.987824,-2.484772,9.75616,216.3,-122.100006,-21.300001,,,,x,,
724266,-3.8263206,12.309184,-8.9865,0.160062,-8.750056,11.554952,189.90001,-124.50001,-22.5,,,,x,,
724286,-3.138456,12.0777025,-6.924701,-0.95274997,-10.327809,11.272938,192.3,-131.70001,-21.900002,,,,x,,
724306,-3.2443275,10.606271,-6.0191126,-0.30488,-6.21193,9.436036,189.90001,-141.3,-21.300001,,,,x,,
724326,-2.3291688,9.536194,-6.880439,0.23628199,0.129574,9.969576,177.90001,-143.70001,-26.1,,,,x,,
724346,-1.3201015,10.112803,-7.3434014,-0.53354,-0.91463995,10.274456,168.3,-136.5,-27.900002,,,,x,,
724366,-1.070676,8.699989,-5.569309,-1.509156,-2.949714,7.690598,156.3,-146.1,-27.900002,,,,x,,
724386,-1.305148,7.9008703,-5.129674,-1.8902559,-1.3719599,7.6067557,173.1,-148.5,-23.1,,,,x,,
724406,-0.05682358,8.553445,-5.5202613,-1.8445239,2.62959,9.832379,137.1,-155.70001,-28.500002,,,,x,,
724473,0.47014037,5.0572987,-2.6031182,-0.137196,3.475632,3.7805119,129.90001,-165.3,-28.500002,,,,x,,
724513,1.196286,5.7194433,-2.6742973,0.7622,4.283564,4.0167937,110.700005,-165.3,-26.1,,,,x,,
724583,1.799214,4.0978775,-1.6825762,0.87653,8.7653,2.6829438,108.3,-170.1,-27.900002,,,,x,,
724737,1.0132542,8.128763,-1.4780113,0.72409,5.8918056,-0.625004,98.700005,-167.70001,-18.300001,,,,x,,
724757,1.1998748,8.328543,-0.6095077,0.503052,2.355198,0.19055,108.3,-162.90001,-17.7,,,,,,
724800,0.8631203,9.1294565,-2.0606024,0.579272,1.920744,1.250008,105.9,-162.90001,-24.300001,,,,,,
724820,1.4965537,10.329331,-1.9523387,0.434454,0.327746,1.56251,81.9,-172.5,-15.3,,,,,,
724842,1.6149861,10.6630945,-1.8775707,-0.846042,0.16768399,0.80030996,89.100006,-165.3,-17.1,,,,,,
724862,0.95044917,9.419556,-2.0061715,-1.189032,0.640248,-0.46494198,93.9,-170.1,-14.1,,,,,,
724882,1.3159145,8.992481,-2.467938,-0.640248,0.30488,-0.083841994,86.700005,-167.70001,-17.1,,,,,,
724902,1.3488123,9.524829,-1.9068798,-1.074702,-0.884152,0.72409,96.3,-170.1,-18.900002,,,,,,
724922,1.3272792,9.951304,-2.0803413,-1.516778,-0.099086,0.20579399,91.5,-172.5,-14.700001,,,,,,
724946,1.5216757,9.132447,-1.9218334,-1.493912,-0.19055,-0.746956,84.3,-158.1,-10.5,,,,,,
724986,0.80689484,8.262149,-2.6324272,0.434454,-0.525918,0.053354,93.9,-172.5,-23.1,,,,,,
725006,1.271652,9.275403,-1.8680005,0.160062,-2.89636,1.310984,91.5,-165.3,-29.7,,,,,,
725029,1.4702355,9.220972,-1.7214555,-0.297258,-1.547266,0.442076,89.100006,-184.5,-21.900002,,,,,,
725049,1.4050379,8.792702,-2.301056,-0.17530599,-0.846042,0.07622,93.9,-162.90001,-23.1,,,,,,
725090,1.564742,9.175513,-2.1844182,0.274392,-1.760682,0.41158798,96.3,-155.70001,-18.900002,,,,,,
725152,1.3547938,8.90276,-2.8997972,0.67073596,-1.310984,-0.731712,86.700005,-162.90001,-18.900002,,,,x,,
725173,1.5420126,9.042128,-2.6425955,0.731712,-2.187514,-0.45731997,93.9,-170.1,-21.900002,,,,x,,
725194,1.7286332,9.309497,-2.8896286,0.434454,-1.440558,-0.830798,81.9,-170.1,-20.7,,,,x,,
725215,1.6664263,9.526623,-3.3771152,0.289636,-0.983238,-1.280496,93.9,-165.3,-20.7,,,,x,,
725235,1.9415721,9.064857,-3.7246363,-0.487808,-0.525918,-2.6829438,96.3,-174.90001,-18.900002,,,,x,,
725255,2.1598942,8.244802,-3.9483418,-0.625004,-0.708846,-3.597584,96.3,-153.3,-21.900002,,,,x,,
725277,2.4446104,7.73997,-4.6284304,-0.03811,0.708846,-3.460388,101.100006,-167.70001,-20.7,,,,x,,
725297,2.5445,6.041244,-5.4490824,0.731712,2.507638,-3.833866,103.50001,-160.5,-20.1,,,,x,,
725337,4.726526,8.406899,-4.6188602,-0.70122397,-3.368924,-2.530504,113.100006,-160.5,-20.7,,,,x,,
725400,4.6463747,4.9275017,-2.2849061,-2.2789779,1.67684,-9.885734,117.9,-158.1,-17.1,,,,x,,
725441,3.937575,4.282704,-1.3829066,-1.3414719,9.5275,-8.376577,139.5,-148.5,-17.7,,,,x,,
725539,0.24882747,3.5200713,-2.5122006,3.033556,10.068662,-7.987856,192.3,-136.5,-9.3,,,,x,,
725715,-7.911039,14.378758,-2.6156793,0.602138,-0.57164997,-3.498498,218.70001,-93.3,-2.7,,,,x,,
725761,-8.094668,13.19623,-1.7358109,0.449698,-5.686012,-0.960372,237.90001,-81.3,-8.1,,,,x,,
725802,-8.95121,13.587416,-2.7179615,0.030488,-8.292736,-0.144818,252.3,-86.100006,-15.3,,,,x,,
725822,-9.088782,12.113591,-2.2741396,-1.204276,-9.268352,0.82317597,254.70001,-88.5,-14.700001,,,,x,,
725842,-9.941136,10.931063,-2.5702202,0.434454,-7.881148,1.8445239,252.3,-86.100006,-19.5,,,,x,,
725886,-7.0539002,18.921057,-4.794714,-1.250008,-7.3323636,7.4848037,237.90001,-93.3,-19.5,,,,x,,
725906,-9.95609,12.464702,-3.9381733,0.510674,-10.358297,0.602138,247.50002,-93.3,-22.5,,,,x,,
725926,-8.910536,12.68422,-4.321583,1.1280559,-10.457384,3.628072,240.3,-95.700005,-18.300001,,,,x,,
725946,-6.8553166,15.502071,-4.1828136,0.92226195,-10.907082,5.94516,240.3,-95.700005,-23.1,,,,x,,
725988,-7.5198536,12.253557,-5.7852387,2.957336,-5.9985137,5.114362,221.1,-110.100006,-22.5,,,,x,,
726009,-6.7285104,12.959964,-4.5955324,1.3414719,-10.792751,6.692116,223.50002,-114.9,-25.500002,,,,x,,
726030,-6.005954,12.016094,-4.526746,2.51526,-8.711946,5.7165,213.90001,-112.50001,-21.900002,,,,x,,
726050,-5.4203715,11.56988,-4.2366467,1.1204339,-7.5610237,6.93602,218.70001,-117.3,-27.300001,,,,x,,
726070,-6.372017,10.834762,-4.3813972,1.082324,-2.339954,6.676872,211.50002,-114.9,-29.1,,,,x,,
726091,-5.5687113,9.759301,-6.3582597,3.513742,0.70122397,7.225656,206.70001,-131.70001,-23.1,,,,x,,
726112,-4.0296893,10.317966,-6.589143,1.8597679,-5.480218,9.474146,194.70001,-126.9,-24.300001,,,,x,,
726194,-1.6042194,8.75442,-6.307418,0.60976,-2.55337,10.503116,163.5,-141.3,-23.1,,,,x,,
726316,1.4750205,5.782248,-4.4041266,0.47256398,1.18141,4.474114,122.700005,-172.5,-24.900002,,,,x,,
726497,1.4415245,6.212911,-1.0198338,-0.015244,8.300358,-1.432936,101.100006,-172.5,-20.1,,,,x,,
726542,1.5198812,7.361346,-0.7434917,-0.327746,6.4024796,-1.051836,113.100006,-162.90001,-21.900002,,,,x,,
726582,1.275839,6.23265,-0.5000475,-0.34298998,6.3872356,-1.059458,108.3,-177.3,-22.5,,,,x,,
726602,1.4606651,6.7171454,-0.6124984,0.045732,5.4421077,1.036592,98.700005,-172.5,-17.7,,,,x,,
726662,1.7220536,8.787318,-1.3535975,0.289636,2.881116,2.454284,91.5,-162.90001,-10.5,,,,x,,
726705,0.8086893,11.545954,-2.6515677,0.884152,1.501534,0.41921,96.3,-162.90001,-20.1,,,,x,,
726745,0.9510473,10.143309,-2.4039366,-0.594516,-1.8521459,-2.073184,103.50001,-162.90001,-17.7,,,,x,,
726774,0.5108141,9.168934,-2.8136644,-0.33536798,-0.975616,-1.6463519,101.100006,-158.1,-22.5,,,,x,,
726842,1.6221638,8.964369,-1.6472857,-1.1432999,-2.408552,0.60976,93.9,-165.3,-20.7,,,,,,
726882,0.91755134,8.503201,-2.438629,-0.80030996,-0.297258,0.007622,105.9,-158.1,-16.5,,,,,,
726902,1.0114597,9.139027,-2.9895186,0.34298998,-0.655492,0.045732,101.100006,-172.5,-25.500002,,,,,,
726922,0.9390845,9.124671,-2.6258476,0.17530599,-2.065562,0.015244,89.100006,-167.70001,-26.7,,,,,,
726960,0.96420646,9.067847,-2.3249817,-0.312502,-0.49543,0.160062,93.9,-174.90001,-25.500002,,,,,,
726981,0.5233751,8.911134,-2.8728807,-0.106708,-0.053354,0.41921,110.700005,-167.70001,-23.1,,,,,,
727021,1.3212978,9.462622,-2.0468452,-0.41921,-3.132642,1.242386,93.9,-172.5,-16.5,,,,,,
727061,1.4953574,8.499014,-1.836299,-0.68597996,-2.393308,0.16768399,91.5,-160.5,-21.300001,,,,,,
727202,3.4273593,9.524829,-4.129579,-0.213416,-0.480186,-0.746956,108.3,-158.1,-23.1,,,,x,,
727223,3.795217,9.64685,-4.7271237,0.19055,2.05794,-2.393308,110.700005,-160.5,-18.900002,,,,x,,
727263,4.150514,6.4120927,-5.036962,0.625004,2.51526,-3.6966698,122.700005,-167.70001,-20.7,,,,x,,
727303,5.016625,6.5568433,-4.3102183,0.11432999,3.6585598,-4.161612,129.90001,-177.3,-18.900002,,,,x,,
727323,5.321678,6.7494454,-3.477005,-0.41921,4.260698,-6.0594897,115.50001,-155.70001,-18.900002,,,,x,,
727343,4.5040164,5.05371,-2.8160572,-1.71495,6.0442457,-9.634208,134.70001,-150.90001,-15.900001,,,,x,,
727383,3.6624293,2.1114447,-0.631639,-1.8826339,5.14485,-10.510737,137.1,-148.5,-25.500002,,,,x,,
727403,2.5654352,2.4697323,0.16209674,-2.149404,8.948228,-10.487872,151.5,-155.70001,-19.5,,,,x,,
727423,1.8374952,2.5486872,-0.5443101,-0.365856,10.426896,-11.463488,161.1,-138.90001,-21.900002,,,,x,,
727446,-0.64898515,1.6347247,-0.0681883,0.70122397,7.461938,-13.239413,163.5,-148.5,-15.3,,,,x,,
727466,-2.8040943,3.580484,-0.38640037,3.84911,6.8521776,-10.983302,182.70001,-141.3,-17.1,,,,x,,
727488,-2.7179615,7.613762,-0.8511574,2.2637339,2.446662,-10.21348,185.1,-129.3,-8.700001,,,,x,,
727508,-4.3909674,6.5777783,2.3507018,0.586894,-1.6311079,-13.407098,187.5,-131.70001,-13.500001,,,,x,,
727532,-6.4898515,7.628117,-0.33017492,0.785066,5.75461,-13.07173,213.90001,-122.100006,-16.5,,,,x,,
727552,-6.9241033,6.866681,-0.4743274,1.8902559,0.94512796,-12.324774,206.70001,-110.100006,-17.7,,,,x,,
727572,-7.208221,8.88661,-0.64180744,1.455802,-1.48629,-9.771403,223.50002,-105.3,-14.700001,,,,x,,
727593,-7.7184367,8.350674,-0.6896588,1.234764,-2.964958,-10.449761,235.50002,-114.9,-9.900001,,,,x,,
727613,-7.1173034,8.269326,-0.35110992,0.060976,-5.5488157,-7.5457797,230.70001,-102.9,-16.5,,,,x,,
727635,-6.899579,10.963363,0.07117901,-2.957336,-5.701256,-5.0228977,247.50002,-90.9,-14.1,,,,x,,
727655,-8.299233,8.899769,0.8906349,-3.650938,-5.5945477,-7.58389,245.1,-83.700005,-26.1,,,,x,,
727675,-8.697597,8.587539,-0.19140574,-2.2027578,-4.9466777,-3.986306,252.3,-81.3,-14.700001,,,,x,,
727738,-9.331629,14.153259,-1.7603347,-0.160062,-8.772922,2.492394,266.7,-83.700005,-16.5,,,,x,,
727758,-10.649338,11.758294,-1.3242885,0.20579399,-9.131156,-2.09605,245.1,-83.700005,-14.700001,,,,x,,
727778,-11.928167,11.826483,-3.5463896,4.009172,-5.5488157,2.2484899,252.3,-78.9,-23.1,,,,x,,
727801,-7.446282,17.688883,-4.9137444,1.189032,-11.39489,4.832348,249.90001,-90.9,-23.7,,,,x,,
727861,-8.109024,17.511831,-6.1387415,2.32471,-11.082388,5.350644,240.3,-88.5,-26.1,,,,x,,
727939,-9.953099,11.992766,-3.7922266,3.628072,-7.4238276,5.312534,230.70001,-102.9,-33.300003,,,,x,,
727979,-5.782248,13.259633,-6.1106286,0.579272,-11.615928,9.626586,223.50002,-114.9,-33.300003,,,,x,,
727999,-5.5429907,11.005831,-3.8771627,0.449698,-11.2195835,8.666214,211.50002,-114.9,-30.900002,,,,x,,
728041,-4.2779183,8.752626,-4.8479486,3.071666,-1.166166,10.297321,197.1,-126.9,-36.9,,,,x,,
728061,-3.8879292,9.232337,-5.586655,3.536608,0.15244,12.393372,192.3,-136.5,-28.500002,,,,x,,
728084,-2.9087694,9.707262,-6.095675,3.7271578,0.861286,12.972644,173.1,-153.3,-33.300003,,,,x,,
728104,-1.4104211,9.50509,-6.0232997,3.2622159,0.083841994,12.103736,153.90001,-146.1,-33.9,,,,x,,
728124,-0.6124984,8.791506,-5.3773055,2.964958,0.72409,10.510737,151.5,-150.90001,-27.900002,,,,x,,
728144,-0.1531246,7.580864,-5.5370097,2.881116,3.2545938,8.788166,153.90001,-158.1,-36.9,,,,x,,
728164,0.8182596,7.8793373,-5.0931873,1.8445239,2.065562,8.323224,132.3,-148.5,-29.7,,,,x,,
728184,0.933103,7.425945,-4.6027102,1.6234859,2.149404,6.9893737,132.3,-155.70001,-31.500002,,,,x,,
728244,2.0450509,6.088497,-4.3150034,0.861286,6.067112,7.6219997,110.700005,-162.90001,-24.900002,,,,x,,
728301,2.16767,4.5961304,-2.6826713,0.716468,8.26987,2.317088,113.100006,-179.70001,-23.7,,,,x,,
728415,3.2969642,6.086105,-0.5054308,0.3811,8.910118,-1.1204339,91.5,-189.3,-16.5,,,,x,,
728460,2.2938783,6.739277,-0.23925719,-0.289636,9.207376,-3.147886,98.700005,-170.1,-23.1,,,,x,,
728480,1.8967113,7.584453,-0.30804363,-0.129574,7.8125496,-3.46801,98.700005,-165.3,-15.3,,,,x,,
728520,0.4731311,8.024686,0.16508746,-0.525918,4.329296,-2.926848,98.700005,-172.5,-14.700001,,,,x,,
728543,0.73691213,9.868163,0.38101706,-1.310984,3.323192,-1.6463519,108.3,-165.3,-27.900002,,,,x,,
728563,-0.5317491,9.082801,-0.9588232,-0.731712,5.838452,-2.423796,105.9,-172.5,-18.900002,,,,x,,
728583,-1.1047701,8.501406,-2.640203,1.303362,0.40396598,-0.11432999,113.100006,-165.3,-21.900002,,,,x,,
728603,-0.4258778,9.298731,-2.380609,1.56251,-1.951232,1.242386,101.100006,-165.3,-21.300001,,,,x,,
728623,0.45458865,10.590121,-1.7094926,0.785066,-3.140264,1.3567159,105.9,-172.5,-16.5,,,,x,,
728643,0.6172835,10.233628,-2.14195,-0.030488,-1.532022,0.060976,98.700005,-165.3,-18.900002,,,,x,,
728706,0.6914533,9.508678,-2.5911553,-0.518296,-2.012208,0.449698,105.9,-158.1,-23.7,,,,x,,
728728,0.89542,9.374695,-2.3118227,-0.40396598,-2.568614,0.586894,86.700005,-167.70001,-18.900002,,,,x,,
728748,0.8344094,8.845338,-2.2035587,-0.388722,-2.09605,0.327746,105.9,-165.3,-20.1,,,,x,,
728768,0.86132586,9.002051,-2.5169857,0.121952,-1.29574,0.41921,103.50001,-162.90001,-20.7,,,,x,,
728788,0.86132586,9.073829,-2.6736991,0.259148,-1.1051899,0.129574,103.50001,-170.1,-22.5,,,,x,,
728808,1.0018895,8.876442,-2.7412891,0.396344,-0.548784,-0.106708,108.3,-167.70001,-19.5,,,,,,
728829,1.000095,8.821412,-3.0523236,0.487808,-0.07622,0.03811,105.9,-170.1,-10.5,,,,,,
728849,0.9618139,8.775355,-3.2969642,0.708846,-0.137196,0.47256398,101.100006,-167.70001,-18.300001,,,,,,
728870,1.0276096,9.081007,-3.3525913,0.541162,-1.1128119,0.92988396,98.700005,-162.90001,-20.1,,,,,,
728890,1.3613734,9.227551,-2.8710864,0.30488,-1.539644,0.998482,96.3,-162.90001,-23.1,,,,,,
728910,1.5641439,9.5661,-2.7592335,-0.243904,-0.602138,0.480186,103.50001,-165.3,-17.1,,,,,,
728932,1.1801361,8.945827,-3.116325,-0.525918,0.60976,-0.47256398,98.700005,-184.5,-23.7,,,,,,
728952,1.0539279,8.728701,-3.4333405,0.0,0.57164997,-0.510674,93.9,-170.1,-16.5,,,,,,
728972,1.1729584,8.972144,-3.2030556,0.03811,-0.518296,-0.15244,89.100006,-162.90001,-17.1,,,,,,
728992,1.1448456,9.358545,-3.099577,-0.137196,0.03811,-0.30488,105.9,-158.1,-20.1,,,,,,
729012,0.8852516,9.36333,-3.1318767,-0.358234,0.053354,-0.56402797,98.700005,-165.3,-20.7,,,,,,
729032,0.77040815,8.975135,-3.222196,-0.41921,-0.20579399,-0.82317597,108.3,-162.90001,-17.7,,,,,,
729054,0.82364285,9.069044,-2.9338913,-0.503052,-0.64787,-0.861286,96.3,-167.70001,-18.900002,,,,,,
729074,0.9438696,9.183289,-2.8298144,-0.518296,-0.510674,-0.640248,103.50001,-158.1,-18.300001,,,,,,
729115,0.6932477,8.8919935,-2.5869684,-0.87653,-0.099086,-0.289636,98.700005,-167.70001,-19.5,,,,,,
729136,0.70521057,9.15099,-2.61867,-0.7622,0.16768399,-0.15244,93.9,-158.1,-20.1,,,,,,
729176,0.5263658,9.185083,-3.0319867,0.19055,-0.015244,-0.3811,101.100006,-153.3,-18.900002,,,,,,
729196,0.69982725,9.338806,-2.941667,0.121952,-0.327746,-0.46494198,108.3,-172.5,-19.5,,,,,,
729216,0.8110819,9.104933,-2.840581,-0.091464,-0.144818,-0.45731997,110.700005,-158.1,-8.1,,,,,,
729240,0.748875,9.217981,-2.9183395,-0.274392,0.11432999,-0.137196,101.100006,-162.90001,-21.300001,,,,x,,
729302,0.7410991,9.250879,-2.7963183,-0.312502,-0.11432999,0.07622,108.3,-170.1,-20.1,,,,x,,
729362,1.0569186,8.83517,-3.0134442,-0.586894,0.586894,0.015244,103.50001,-160.5,-15.900001,,,,x,,
729435,1.9092723,8.521743,-4.2228894,-1.417692,2.431418,-1.79117,115.50001,-167.70001,-19.5,,,,x,,
729658,1.9864328,1.5695271,-1.0425632,-1.71495,7.5305357,-12.103736,158.70001,-150.90001,-18.900002,,,,x,,
729721,-3.476407,4.0506244,-0.45877567,2.141782,7.4848037,-10.426896,199.50002,-131.70001,-13.500001,,,,x,,
729742,-4.0560074,6.4437943,0.5700303,2.164648,1.425314,-8.414688,194.70001,-134.1,-14.1,,,,x,,
729782,-6.303231,8.744252,0.4372425,1.501534,5.190582,-9.71805,206.70001,-114.9,-14.1,,,,x,,
729803,-8.875844,7.4444876,-0.28112718,1.272874,3.323192,-10.51836,218.70001,-110.100006,-18.900002,,,,x,,
729823,-9.28617,8.08151,-1.0407687,2.7058098,-0.15244,-6.3872356,218.70001,-112.50001,-14.1,,,,x,,
729863,-9.312488,14.616819,-2.685662,1.3948259,-6.814068,-2.888738,213.90001,-90.9,-14.1,,,,x,,
729918,-7.7967935,15.059445,-1.5551717,0.099086,-9.436036,2.17227,247.50002,-95.700005,-15.3,,,,x,,
729977,-9.134839,12.180583,-2.6748953,-2.7896519,-17.370537,-0.602138,230.70001,-86.100006,-22.5,,,,x,,
730140,-5.305528,13.442067,-8.23284,5.137228,-2.423796,8.361334,206.70001,-119.700005,-27.300001,,,,x,,
730160,-5.23076,13.021572,-4.9394646,-1.737816,-14.67235,7.5305357,201.90001,-117.3,-24.300001,,,,x,,
730200,-5.513682,11.082393,-6.173434,4.4360037,5.75461,7.0960817,199.50002,-136.5,-29.1,,,,x,,
730220,-3.602615,11.080599,-8.443386,4.054904,2.01983,8.666214,187.5,-138.90001,-23.7,,,,x,,
730243,-2.9530318,11.510663,-7.448674,0.907018,-4.778994,10.1372595,185.1,-138.90001,-30.900002,,,,x,,
730263,-2.488873,11.397017,-6.129171,0.891774,-3.399412,9.22262,168.3,-148.5,-27.300001,,,,x,,
730283,-1.0766573,10.531504,-6.866083,2.423796,2.073184,7.942124,173.1,-131.70001,-24.300001,,,,x,,
730304,-0.3104362,10.011119,-7.424749,1.4024479,1.9054999,7.6067557,158.70001,-148.5,-21.900002,,,,x,,
730324,-0.17585403,9.37649,-6.5065994,-0.41158798,0.57164997,6.981752,149.1,-150.90001,-23.7,,,,x,,
730344,0.014953574,8.710756,-5.7409763,-0.41921,0.602138,5.137228,151.5,-150.90001,-23.1,,,,x,,
730408,1.3912805,6.224874,-3.246122,-1.798792,4.176856,5.9375377,134.70001,-153.3,-26.1,,,,x,,
730434,1.4696373,4.8186398,-2.6892507,-1.280496,5.14485,4.603688,127.50001,-155.70001,-32.7,,,,x,,
730458,1.6843706,4.6039066,-2.1539128,-0.34298998,7.9040136,5.0838737,125.100006,-167.70001,-22.5,,,,x,,
730498,2.1287909,4.6039066,-1.8231398,-0.442076,7.690598,2.7667859,120.3,-155.70001,-26.7,,,,x,,
730518,2.4003477,4.01653,-1.585677,0.23628199,7.972612,2.13416,105.9,-167.70001,-27.300001,,,,x,,
730538,2.8597217,4.7923217,-1.2082489,-0.297258,6.51681,2.644834,115.50001,-162.90001,-21.900002,,,,x,,
730560,2.9255173,5.007055,-0.4815051,-1.097568,7.3323636,2.164648,105.9,-162.90001,-18.900002,,,,x,,
730580,2.849553,5.020812,-0.81945586,-1.02897,9.03207,1.493912,98.700005,-167.70001,-20.7,,,,x,,
730600,2.794524,5.405418,-1.1107515,-0.983238,8.605238,1.29574,103.50001,-167.70001,-17.7,,,,x,,
730624,3.301151,6.6669016,-0.60651696,-0.754578,6.143332,0.518296,101.100006,-172.5,-24.900002,,,,x,,
730644,2.714971,6.869074,-0.3881948,-1.097568,6.471078,-1.059458,96.3,-165.3,-18.900002,,,,x,,
730664,2.7065969,7.7286053,-1.0210301,0.03811,6.272906,-1.250008,105.9,-165.3,-23.1,,,,x,,
730684,2.0952947,8.397329,-0.9085792,0.198172,3.536608,-1.996964,89.100006,-165.3,-24.300001,,,,x,,
730704,1.6341265,8.819618,-0.5496934,0.26677,2.126538,-1.989342,105.9,-167.70001,-15.900001,,,,x,,
730728,0.9839452,9.710253,-0.61070395,-0.015244,1.8521459,-2.088428,105.9,-167.70001,-20.7,,,,x,,
730812,-1.1358736,10.362228,-2.4828916,0.655492,0.083841994,-0.586894,110.700005,-162.90001,-17.7,,,,x,,
730921,0.1447506,9.612756,-2.1246037,-0.586894,-1.425314,1.06708,101.100006,-158.1,-19.5,,,,,,
730941,0.6459944,9.406396,-1.9684886,-0.510674,-1.9054999,0.960372,93.9,-160.5,-21.300001,,,,,,
730981,1.2728482,8.897975,-2.2388492,0.289636,-0.617382,0.594516,113.100006,-172.5,-12.3,,,,,,
731001,1.4929649,8.876442,-2.334552,1.036592,-0.95274997,0.68597996,103.50001,-165.3,-21.900002,,,,,,
731022,1.5234702,9.1294565,-2.4087217,0.92988396,-1.036592,0.655492,103.50001,-172.5,-17.1,,,,,,
731042,1.677791,8.983509,-2.6049128,0.983238,-0.60976,0.137196,93.9,-167.70001,-20.1,,,,,,
731063,1.5115073,8.843544,-2.5367243,0.853664,-0.3811,-0.060976,101.100006,-167.70001,-16.5,,,,,,
731083,1.1932952,9.063063,-2.8519456,0.746956,0.327746,-0.091464,113.100006,-172.5,-21.300001,,,,,,
731103,1.0485446,9.198242,-3.317301,1.013726,0.22865999,-0.17530599,108.3,-172.5,-23.1,,,,,,
731167,1.3876917,9.114503,-2.6617362,-0.548784,-1.745438,0.099086,115.50001,-167.70001,-18.300001,,,,,,
731214,1.3619715,8.506191,-2.7711964,-0.55640596,-1.189032,-0.426832,89.100006,-167.70001,-15.3,,,,,,
731238,1.7100908,9.005641,-2.7000175,-0.60976,-1.98172,-0.251526,105.9,-170.1,-24.300001,,,,x,,
731279,2.179633,8.518752,-2.765813,-0.853664,-0.861286,-1.760682,86.700005,-174.90001,-10.5,,,,x,,
731339,2.7682056,7.2261653,-3.1109416,1.051836,0.396344,-4.30643,108.3,-158.1,-18.300001,,,,x,,
731401,4.9065666,7.1184993,-2.1234076,1.493912,-0.144818,-5.44973,115.50001,-158.1,-17.1,,,,x,,
731421,4.6074953,5.699704,-2.1204169,0.777444,3.92533,-7.477182,132.3,-165.3,-18.300001,,,,x,,
731461,3.179728,2.9901166,-1.5964435,-0.17530599,6.303394,-8.376577,144.3,-148.5,-20.1,,,,x,,
731504,0.73033255,2.673101,-1.4857872,0.121952,9.931466,-7.782062,153.90001,-134.1,-15.3,,,,x,,
731544,-1.3224941,4.848547,-2.0133493,1.814036,7.210412,-8.91774,170.70001,-134.1,-14.1,,,,x,,
731637,-5.232555,11.13503,-3.350797,1.996964,6.714982,-5.091496,189.90001,-114.9,-10.5,,,,x,,
731657,-4.9047723,9.392041,-1.187912,0.198172,-0.731712,-10.40403,197.1,-102.9,-9.3,,,,x,,
731697,-5.1189075,11.21219,-2.4105163,1.6539739,-1.3414719,-5.464974,213.90001,-107.700005,-12.900001,,,,x,,
731720,-5.0943837,9.847826,0.29428634,1.013726,-6.74547,-5.9680257,221.1,-122.100006,-5.7000003,,,,x,,
731740,-6.2194905,11.811529,-1.2136321,1.669218,-2.339954,-3.978684,223.50002,-107.700005,-8.1,,,,x,,
731760,-5.8929048,12.705753,-3.0756512,2.843006,-2.995446,-3.7042918,235.50002,-105.3,-4.5,,,,x,,
731780,-6.849933,11.194245,-1.0054784,0.144818,-11.768368,-4.984788,218.70001,-98.100006,-15.3,,,,x,,
731801,-8.8704605,10.849117,-0.8433816,1.463424,-4.626554,-2.55337,230.70001,-95.700005,-13.500001,,,,x,,
731821,-7.4911427,13.918787,-4.113429,2.97258,-2.7286758,0.388722,228.3,-95.700005,-14.700001,,,,x,,
731841,-9.123475,12.532291,-2.8411791,-0.23628199,-11.66166,-2.843006,247.50002,-90.9,-14.1,,,,x,,
731864,-10.694199,9.536792,-2.3656554,2.01983,-3.605206,-0.868908,242.70001,-88.5,-13.500001,,,,x,,
731884,-9.384863,11.673358,-6.0262904,5.0533857,2.980202,5.5793037,233.1,-86.100006,-6.3,,,,x,,
731904,-7.329046,13.812916,-8.337515,3.1936178,-2.530504,7.370474,237.90001,-90.9,-11.1,,,,x,,
731924,-8.682643,11.51186,-6.681855,-0.365856,-11.006167,5.304912,230.70001,-86.100006,-14.1,,,,x,,
731944,-7.300933,12.334306,-5.977841,0.259148,-10.701288,7.881148,223.50002,-93.3,-10.5,,,,x,,
731968,-6.217696,11.600385,-6.5155716,1.1356779,-5.320156,5.785098,211.50002,-107.700005,-12.900001,,,,x,,
731988,-6.97973,11.18647,-7.4169726,1.8521459,-5.061008,6.5854077,218.70001,-110.100006,-9.3,,,,x,,
732010,-6.0466275,11.89826,-8.106631,1.6311079,-6.5244317,8.780544,209.1,-119.700005,-15.3,,,,x,,
732030,-4.6248417,12.531693,-7.1567807,-0.07622,-10.396408,8.346089,206.70001,-112.50001,-20.1,,,,x,,
732050,-5.2696395,11.993364,-6.8834295,0.739334,-6.8521776,8.368956,194.70001,-119.700005,-15.3,,,,x,,
732070,-5.3139024,11.139216,-8.040836,0.541162,-2.835384,9.07018,194.70001,-126.9,-17.7,,,,x,,
732090,-2.911162,11.444868,-9.007435,0.47256398,-4.237832,10.990924,189.90001,-129.3,-17.1,,,,x,,
732114,-2.1449406,12.184771,-8.076126,-1.8292799,-8.064075,10.929948,192.3,-134.1,-21.900002,,,,x,,
732175,-0.73511773,10.8144245,-7.2889705,-0.998482,-2.2103798,9.611341,173.1,-158.1,-22.5,,,,x,,
732195,-1.0036839,10.39393,-7.5162644,-0.617382,0.541162,8.46042,151.5,-146.1,-21.300001,,,,x,,
732216,0.031103434,9.405798,-7.8267007,-0.503052,-2.01983,7.179924,153.90001,-150.90001,-23.7,,,,x,,
732236,0.38041893,8.56122,-6.083114,-2.301844,-5.061008,6.036624,125.100006,-150.90001,-22.5,,,,x,,
732256,0.59515226,7.7842326,-4.9304924,-1.8826339,-2.355198,6.0442457,127.50001,-153.3,-26.1,,,,x,,
732276,0.5467027,7.3780937,-4.8635006,-1.280496,1.158544,5.823208,127.50001,-158.1,-17.1,,,,x,,
732296,1.2566984,7.312298,-4.685254,-0.884152,1.173788,5.625036,117.9,-158.1,-23.7,,,,x,,
732382,1.3171108,3.9052753,-2.4697323,0.327746,9.085423,1.44818,108.3,-170.1,-23.1,,,,x,,
732421,1.7214555,3.6085966,-1.2022674,-1.006104,6.0594897,0.731712,113.100006,-172.5,-20.7,,,,x,,
732441,1.9062816,3.4423127,-0.3397452,-1.189032,6.608274,0.868908,93.9,-182.1,-14.700001,,,,x,,
732461,2.564239,4.0201187,-0.26916432,-1.211898,7.942124,1.1051899,89.100006,-160.5,-21.900002,,,,x,,
732481,2.9847333,4.8042846,-0.06519759,-1.3795819,7.85066,1.3719599,96.3,-170.1,-26.7,,,,x,,
732541,3.2778234,7.366729,0.5610581,-1.8445239,7.8277936,1.1356779,98.700005,-172.5,-19.5,,,,x,,
732561,2.7831593,7.8081584,0.24284604,-1.082324,8.010722,-0.137196,105.9,-162.90001,-17.7,,,,x,,
732621,0.97616935,8.661709,-1.531246,1.288118,2.347576,0.03811,89.100006,-167.70001,-24.900002,,,,x,,
732657,1.3015591,10.580551,-2.2986634,1.684462,0.846042,-1.059458,98.700005,-174.90001,-15.900001,,,,x,,
732677,1.1203218,10.840743,-2.4966488,0.777444,0.82317597,-1.692084,98.700005,-167.70001,-25.500002,,,,x,,
732717,0.38340965,9.211402,-2.18382,-0.632626,0.67835796,-1.18141,96.3,-162.90001,-23.1,,,,,,
732761,0.2685662,9.415967,-2.313617,-0.625004,-0.53354,-1.1432999,91.5,-167.70001,-20.1,,,,,,
732861,0.35110992,8.848329,-2.6665213,-0.106708,-1.021348,-0.23628199,98.700005,-162.90001,-20.1,,,,,,
732958,1.1101533,8.972144,-2.6013238,-0.221038,-0.975616,0.731712,96.3,-158.1,-18.900002,,,,,,
732978,1.2315763,8.788515,-2.9847333,0.22865999,-0.861286,0.746956,96.3,-165.3,-15.900001,,,,x,,
733018,2.1521184,9.23114,-3.1558022,-0.868908,-0.480186,0.15244,91.5,-165.3,-18.300001,,,,x,,
733058,2.6449883,7.602397,-4.8174434,-0.3811,-0.365856,-0.518296,103.50001,-160.5,-18.300001,,,,x,,
733083,3.4363313,7.220782,-4.3568735,-0.586894,-3.437522,-0.487808,96.3,-167.70001,-23.1,,,,x,,
733124,4.0853167,4.5865602,-3.7048976,0.80793196,-0.99086,-3.4299,103.50001,-148.5,-24.300001,,,,x,,
733278,2.6240532,2.899199,-0.15491903,0.243904,7.08846,-5.0991178,117.9,-155.70001,-21.300001,,,,x,,
733318,-0.6848737,5.242723,-0.99710435,2.865872,9.03207,-7.149436,144.3,-158.1,-19.5,,,,x,,
733338,-1.0198338,5.952121,-0.8086893,3.071666,3.7576458,-10.015307,149.1,-148.5,-14.700001,,,,x,,
733378,-5.89111,7.250091,-0.55208594,3.368924,3.940574,-7.271388,163.5,-148.5,-15.3,,,,x,,
733398,-4.3903694,11.919195,-1.3697474,0.53354,2.050318,-3.460388,161.1,-129.3,-11.700001,,,,x,,
733418,-5.216405,11.146395,0.046655152,-0.198172,-1.173788,-7.477182,161.1,-138.90001,-18.300001,,,,x,,
733438,-8.293851,8.761,-1.1017793,2.004586,4.618932,-8.597616,187.5,-138.90001,-15.900001,,,,x,,
733458,-6.137545,11.385652,-4.117616,4.565578,2.926848,-2.987824,180.3,-131.70001,-17.1,,,,x,,
733502,-7.291961,12.133928,-2.012751,1.935988,2.2789779,-3.7119138,168.3,-119.700005,-12.3,,,,x,,
733543,-4.0685687,14.596483,-2.1664739,0.297258,-9.67994,1.79117,182.70001,-119.700005,-8.1,,,,x,,
733563,-6.9139347,14.206493,-0.76801556,0.548784,-3.384168,-0.022866,199.50002,-129.3,-14.1,,,,x,,
733583,-5.9413543,13.839234,-4.669702,2.82014,-0.434454,1.196654,185.1,-134.1,-17.7,,,,x,,
733603,-5.26306,12.969534,-2.7478688,-0.625004,-11.50922,1.75306,175.5,-110.100006,-13.500001,,,,x,,
733623,-6.865485,12.827176,-2.1401556,1.516778,-4.359784,2.919226,192.3,-131.70001,-12.3,,,,x,,
733646,-6.1393394,14.631175,-5.714658,4.131124,-0.594516,4.397894,182.70001,-126.9,-12.3,,,,x,,
733666,-4.8000975,14.588109,-5.7720795,0.663114,-9.916222,3.422278,187.5,-129.3,-14.1,,,,x,,
733686,-5.8588104,13.519826,-3.6319242,-0.251526,-10.388785,2.7591639,185.1,-134.1,-16.5,,,,x,,
733706,-5.7379856,13.452833,-5.7248263,2.195136,-2.13416,3.155508,177.90001,-138.90001,-15.3,,,,x,,
733726,-4.178627,12.766764,-7.806962,3.1859958,-1.6463519,3.6890478,189.90001,-134.1,-17.1,,,,x,,
733747,-4.122401,13.248269,-7.413982,0.792688,-8.178406,5.350644,175.5,-134.1,-12.3,,,,x,,
733768,-4.350892,13.256642,-7.4032154,1.021348,-4.9771657,5.83083,161.1,-131.70001,-17.7,,,,x,,
733788,-2.5277522,13.488124,-8.571389,1.585376,-1.958854,7.149436,173.1,-138.90001,-10.5,,,,x,,
733810,-1.8051955,13.3086815,-9.180897,0.16768399,-3.109776,7.248522,163.5,-143.70001,-19.5,,,,x,,
733830,-1.1245087,12.348661,-8.975734,-0.49543,-5.0533857,7.400962,163.5,-143.70001,-15.900001,,,,x,,
733850,-0.24763119,12.010711,-8.2765045,-1.730194,-5.79272,7.66011,134.70001,-155.70001,-16.5,,,,x,,
733870,0.8685036,11.769061,-7.80756,-1.814036,-3.132642,6.78358,141.90001,-146.1,-21.300001,,,,x,,
733891,0.8015116,10.608066,-8.00076,-0.716468,-0.30488,4.8857017,127.50001,-153.3,-16.5,,,,x,,
733911,0.8726906,9.44707,-8.464321,-1.02897,0.480186,5.25918,139.5,-143.70001,-23.1,,,,x,,
733931,1.5761068,9.684533,-8.228653,-2.93447,-0.87653,7.271388,122.700005,-160.5,-20.7,,,,x,,
733951,1.7519608,9.407593,-6.9241033,-4.321674,-2.40093,6.4177237,120.3,-170.1,-19.5,,,,x,,
733973,1.3960657,8.430825,-5.798398,-3.4299,-1.3490939,4.618932,127.50001,-165.3,-27.300001,,,,x,,
734037,2.7137747,8.204129,-4.6051025,-2.835384,0.426832,4.504602,108.3,-165.3,-19.5,,,,x,,
734057,2.354889,6.955805,-3.4064243,-2.43904,1.951232,2.355198,103.50001,-150.90001,-26.1,,,,x,,
734097,1.9104687,6.0603848,-2.807683,-1.554888,4.5427117,-0.312502,101.100006,-165.3,-24.300001,,,,x,,
734120,1.2507169,4.894006,-2.292084,-1.074702,4.5579557,-2.035074,108.3,-172.5,-30.900002,,,,x,,
734141,0.7309307,3.8598166,-1.4995444,-0.95274997,3.993928,-2.385686,108.3,-162.90001,-19.5,,,,x,,
734161,0.53653425,3.8568258,-0.5963485,-1.3490939,4.4207597,-1.471046,108.3,-179.70001,-22.5,,,,x,,
734182,0.31522134,3.3513951,0.11903045,-1.6234859,5.9832697,-1.821658,91.5,-162.90001,-15.3,,,,x,,
734202,0.47971067,3.1653726,-0.0723753,-1.06708,7.0808377,-0.94512796,101.100006,-179.70001,-17.1,,,,x,,
734224,0.8487649,4.1229997,0.71478087,-0.3811,5.5945477,1.06708,113.100006,-172.5,-21.900002,,,,x,,
734245,1.4929649,5.9341764,1.3171108,-1.326228,5.4268637,1.310984,101.100006,-174.90001,-18.300001,,,,x,,
734265,0.71179014,5.690732,1.2351652,-1.189032,8.071698,-0.617382,103.50001,-162.90001,-21.900002,,,,x,,
734328,1.3290737,8.702382,0.30146405,-0.80793196,1.3414719,2.141782,98.700005,-174.90001,-23.7,,,,x,,
734519,0.9103736,9.319666,-1.6783892,0.007622,-0.640248,0.16768399,81.9,-165.3,-21.900002,,,,,,
734539,0.88943857,9.0654545,-2.167072,0.045732,-0.35061198,-0.23628199,101.100006,-165.3,-24.300001,,,,,,
734581,1.0222263,8.548659,-2.1909976,0.16768399,-0.716468,-0.03811,93.9,-165.3,-24.300001,,,,,,
734602,1.5569662,9.451257,-2.4858823,0.396344,-0.891774,0.388722,96.3,-172.5,-12.900001,,,,,,
734622,1.568929,9.515259,-2.560052,0.35061198,-0.95274997,0.030488,98.700005,-155.70001,-16.5,,,,,,
734642,1.6425006,8.755617,-2.32558,0.099086,-1.33385,-0.731712,89.100006,-167.70001,-15.3,,,,,,
734662,2.2292788,9.366321,-2.4356382,-0.45731997,-1.006104,-1.082324,101.100006,-172.5,-23.1,,,,,,
734722,3.0780437,7.459441,-3.9710712,-0.35061198,1.6311079,-3.3155699,101.100006,-155.70001,-21.300001,,,,,,
734757,3.5571563,6.0185146,-4.8078732,1.250008,0.64787,-3.993928,101.100006,-167.70001,-17.1,,,,,,
734777,4.7881346,6.7458563,-5.1864977,2.423796,-1.3643379,-2.7591639,113.100006,-158.1,-21.900002,,,,,,
734817,5.3862777,6.4928417,-3.0020795,-1.265252,-1.25763,-6.920776,122.700005,-162.90001,-18.900002,,,,,,
734837,4.638599,5.539402,-3.2198036,-0.861286,1.288118,-8.3842,125.100006,-155.70001,-18.300001,,,,,,
734858,4.121205,4.476502,-2.606707,-1.02897,-0.099086,-9.67994,127.50001,-162.90001,-23.7,,,,,,
734878,3.3053381,2.0821357,-1.0742648,-1.29574,-0.853664,-11.311048,139.5,-153.3,-20.7,,,,,,
734941,-0.25301448,3.1689615,-0.86611104,0.3811,5.8765616,-6.608274,168.3,-141.3,-22.5,,,,,,
734961,-2.5821831,1.9481517,0.30086592,0.739334,5.495462,-9.390304,168.3,-141.3,-17.1,,,,,,
734981,-3.3065343,4.949633,-1.6993241,4.298808,6.699738,-4.771372,180.3,-136.5,-17.7,,,,x,,
735001,-0.95942134,9.512866,-1.0270115,0.26677,-0.541162,-2.469528,189.90001,-129.3,-19.5,,,,x,,
735024,-4.0906997,7.368523,3.1701577,-2.187514,-0.67073596,-9.18451,173.1,-124.50001,-22.5,,,,x,,
735088,-4.125392,15.818489,-5.8731656,1.189032,-2.179892,-1.669218,189.90001,-129.3,-13.500001,,,,x,,
735118,-6.943842,11.123665,-0.6364241,1.3948259,-4.0320377,-4.38265,197.1,-122.100006,-9.900001,,,,x,,
735139,-5.810959,14.019873,-2.0923042,0.23628199,-0.632626,-0.93750596,194.70001,-124.50001,-12.3,,,,x,,
735179,-6.370821,15.1228485,-2.2520082,-0.083841994,-4.5427117,-2.042696,197.1,-122.100006,-23.7,,,,x,,
735200,-6.752436,12.7900915,0.41570938,-2.51526,-8.056454,-1.1051899,201.90001,-119.700005,-21.900002,,,,x,,
735220,-7.8835244,12.1100025,-0.91097176,0.60976,-1.539644,0.998482,213.90001,-122.100006,-15.900001,,,,x,,
735241,-6.1847982,15.249057,-3.5577543,2.6677,-2.660078,3.7728899,197.1,-131.70001,-11.1,,,,x,,
735261,-4.7540402,16.588299,-3.1593912,0.891774,-9.481768,3.407034,199.50002,-126.9,-21.300001,,,,x,,
735301,-6.0986657,12.836148,-3.0188277,2.2103798,-5.807964,3.871976,201.90001,-129.3,-18.300001,,,,x,,
735361,-6.2105184,12.240397,-7.1561823,5.114362,-0.487808,7.2409,194.70001,-126.9,-17.7,,,,x,,
735418,-7.092779,8.592922,-3.7832544,3.551852,3.376546,1.539644,182.70001,-126.9,-17.7,,,,x,,
735438,-4.2749276,10.5661955,-9.238318,6.638762,5.960404,7.3933396,173.1,-134.1,-21.900002,,,,x,,
735478,-4.0578017,11.41197,-5.9246063,1.554888,-10.609824,7.743952,165.90001,-143.70001,-17.7,,,,x,,
735522,-0.9253272,11.929363,-9.847228,4.4055157,5.64028,7.789684,161.1,-138.90001,-15.900001,,,,x,,
735542,-0.04067372,11.501093,-11.40539,3.071666,3.12502,7.301876,139.5,-143.70001,-12.3,,,,x,,
735562,0.94327146,11.499299,-11.425129,-0.099086,-1.8521459,8.894874,137.1,-138.90001,-15.3,,,,x,,
735605,1.393075,9.930967,-7.6592207,-4.733262,-4.03966,6.737848,137.1,-150.90001,-24.900002,,,,x,,
735647,1.7429886,7.4923387,-5.9036713,-2.59148,-1.6387299,3.7728899,120.3,-155.70001,-23.1,,,,x,,
735667,1.3147182,6.5532546,-3.9190328,-4.15399,-3.2469718,4.4207597,108.3,-170.1,-20.7,,,,x,,
735687,1.070676,6.5658154,-2.5199764,-4.756128,2.47715,5.83083,122.700005,-162.90001,-18.900002,,,,x,,
735709,1.8500562,7.1352477,-3.5541656,-3.513742,7.77444,6.280528,110.700005,-160.5,-25.500002,,,,x,,
735769,2.074958,6.358858,-2.6162775,-1.3643379,5.015276,4.237832,84.3,-160.5,-25.500002,,,,x,,
735792,1.907478,6.366634,-1.6478839,-1.745438,4.504602,3.7576458,84.3,-177.3,-17.7,,,,x,,
735852,2.0600045,5.7798557,-2.1527166,-0.045732,8.361334,0.640248,84.3,-170.1,-26.7,,,,x,,
735898,1.384701,3.8879292,-1.8554395,0.396344,5.647902,0.34298998,84.3,-170.1,-24.300001,,,,x,,
735918,1.8195509,4.8288083,-1.0946016,-0.480186,3.96344,1.25763,74.700005,-177.3,-19.5,,,,x,,
735960,2.9309006,5.6201515,-0.43066293,-1.48629,5.510706,1.478668,74.700005,-170.1,-28.500002,,,,x,,
736002,2.707195,8.367422,0.04426258,-1.3643379,6.02138,0.55640596,67.5,-162.90001,-24.900002,,,,x,,
736042,2.5439022,8.510378,0.29129562,-1.310984,3.917708,-1.29574,74.700005,-158.1,-26.1,,,,x,,
736137,1.2483244,9.994969,-0.9965062,0.045732,-0.41921,-1.570132,79.5,-172.5,-19.5,,,,x,,
736157,1.0898165,9.598998,-1.2566984,0.70122397,-0.769822,-2.027452,81.9,-172.5,-25.500002,,,,x,,
736198,1.2979703,9.252673,-0.8649147,0.663114,-1.3490939,-0.11432999,89.100006,-174.90001,-22.5,,,,x,,
736218,1.2261931,9.272412,-1.1334809,0.426832,-0.274392,0.19055,77.100006,-172.5,-23.7,,,,x,,
736258,1.0951998,8.8602915,-1.7382035,0.777444,0.16768399,-0.33536798,81.9,-177.3,-15.900001,,,,x,,
736281,1.4953574,8.808253,-2.1742496,1.21952,-0.251526,0.243904,81.9,-167.70001,-17.7,,,,x,,
736322,1.6706133,9.294543,-2.3812072,0.81555396,-1.150922,0.510674,77.100006,-174.90001,-21.300001,,,,,,
736342,1.8315138,9.271814,-2.4924617,0.64787,-1.6387299,0.144818,69.9,-170.1,-15.3,,,,,,
736364,1.8386915,8.917115,-2.4751155,0.358234,-1.669218,-0.251526,72.3,-172.5,-21.900002,,,,,,
736384,1.9284129,9.340002,-2.9177413,0.80793196,-1.265252,0.26677,72.3,-174.90001,-22.5,,,,,,
736408,2.0073678,9.678552,-3.0463421,0.312502,-1.71495,-0.045732,77.100006,-172.5,-21.900002,,,,,,
736428,2.0318916,9.121082,-2.8100758,-0.068598,-1.8597679,-0.47256398,69.9,-174.90001,-18.900002,,,,,,
736449,1.9858347,8.690419,-2.7526538,-0.053354,-1.21952,-0.373478,84.3,-158.1,-23.7,,,,,,
736469,2.2615786,9.074427,-2.7747853,-0.33536798,-1.051836,-0.022866,93.9,-165.3,-16.5,,,,,,
736490,2.5995293,9.359143,-2.970378,-0.663114,-0.19055,-0.55640596,86.700005,-174.90001,-23.7,,,,,,
736510,2.3572814,8.595913,-3.1157267,-0.907018,0.388722,-1.158544,81.9,-182.1,-18.900002,,,,,,
736552,3.6929348,8.65154,-4.1875987,-0.907018,1.532022,-2.111294,86.700005,-167.70001,-20.7,,,,,,
736573,3.564932,6.4168777,-3.8963034,-0.80793196,1.044214,-3.1859958,77.100006,-174.90001,-20.1,,,,x,,
736593,4.5710087,5.790622,-4.509998,1.074702,2.2332458,-2.103672,98.700005,-165.3,-12.900001,,,,x,,
736656,5.7415743,4.6714964,-2.0695746,-0.716468,4.34454,-6.6006517,89.100006,-170.1,-20.7,,,,x,,
736859,-4.2904797,7.2405205,1.2973721,3.2241058,2.042696,-9.779026,182.70001,-136.5,-13.500001,,,,x,,
736879,-4.4992313,11.039925,-1.4170007,4.245454,2.903982,-7.9954777,168.3,-141.3,-12.3,,,,x,,
736921,-8.171231,9.134839,-0.3576895,2.888738,-0.022866,-6.875044,197.1,-124.50001,-6.9,,,,x,,
736961,-8.5139675,11.699079,-3.2748327,3.1859958,-5.198204,-4.489358,213.90001,-122.100006,-13.500001,,,,x,,
736981,-6.9857116,12.831363,-2.6013238,1.6234859,-11.036655,-0.94512796,213.90001,-112.50001,-17.1,,,,x,,
737001,-7.78184,13.034134,-0.6878644,0.67835796,-8.91774,-1.242386,201.90001,-119.700005,-12.900001,,,,x,,
737044,-7.819523,11.670367,-3.016435,1.79117,-6.486322,0.137196,221.1,-117.3,-17.1,,,,x,,
737064,-8.285477,12.712931,-3.4363313,2.7362978,-6.1204658,2.2027578,225.90001,-119.700005,-15.900001,,,,x,,
737084,-6.1842003,14.983481,-5.0016713,2.942092,-6.9283977,4.664664,216.3,-126.9,-11.700001,,,,x,,
737104,-5.1978626,14.646129,-3.5715117,-0.548784,-13.559538,2.888738,213.90001,-112.50001,-14.700001,,,,x,,
737128,-8.129959,10.707955,-2.2825136,0.830798,-6.9741297,0.35061198,221.1,-110.100006,-17.1,,,,x,,
737149,-5.2026477,14.8423195,-7.5886397,4.672286,-0.35061198,8.109808,211.50002,-117.3,-16.5,,,,x,,
737212,-4.780359,14.951181,-7.8332806,2.13416,-7.4848037,7.271388,206.70001,-129.3,-17.7,,,,x,,
737232,-4.1475234,14.494201,-6.6573315,0.060976,-8.468041,5.0076537,194.70001,-131.70001,-26.7,,,,x,,
737252,-5.8875213,12.606462,-7.274615,2.7362978,-2.431418,3.978684,189.90001,-122.100006,-25.500002,,,,x,,
737272,-4.04225,13.263223,-9.770665,4.5122237,-0.182928,7.865904,192.3,-119.700005,-20.1,,,,x,,
737292,-3.05352,13.6759405,-8.847133,-1.089946,-10.510737,8.315601,189.90001,-131.70001,-17.7,,,,x,,
737315,-3.250309,12.186564,-5.8133516,-2.492394,-11.006167,7.972612,170.70001,-138.90001,-23.7,,,,x,,
737375,-1.5294516,11.141011,-6.831989,-2.035074,-1.3795819,9.489389,149.1,-143.70001,-19.5,,,,x,,
737397,-1.3601772,10.581149,-5.7852387,-2.911604,-1.158544,7.721086,151.5,-155.70001,-26.7,,,,x,,
737418,-1.1849213,9.08639,-5.5926366,-3.437522,0.34298998,6.890288,127.50001,-150.90001,-25.500002,,,,x,,
737458,0.18542433,8.036051,-5.0806265,-3.414656,-2.7591639,6.9131536,137.1,-150.90001,-26.1,,,,x,,
737478,0.581395,7.0257874,-3.636111,-3.117398,-3.948196,7.027484,122.700005,-170.1,-26.7,,,,x,,
737499,1.6568561,7.9050574,-3.0965862,-2.2942219,-1.21952,8.673836,110.700005,-177.3,-25.500002,,,,x,,
737519,1.8087844,7.957096,-2.9093673,-1.3643379,2.7286758,6.737848,103.50001,-184.5,-26.7,,,,x,,
737539,1.5988362,6.623237,-3.8765645,0.663114,5.4573517,4.504602,103.50001,-174.90001,-32.7,,,,x,,
737562,2.020527,6.2488,-3.8047874,0.792688,3.54423,5.853696,101.100006,-167.70001,-29.1,,,,x,,
737582,1.9529368,7.166351,-2.811272,-0.983238,4.085392,6.562542,101.100006,-167.70001,-21.900002,,,,x,,
737602,2.2765322,6.861896,-3.1145306,0.17530599,8.086942,4.939056,77.100006,-170.1,-26.7,,,,x,,
737623,2.3788147,6.9175234,-3.100773,0.46494198,7.103704,3.96344,84.3,-167.70001,-26.1,,,,x,,
737643,2.1473334,5.977841,-2.1563053,-0.11432999,6.051868,1.56251,77.100006,-167.70001,-27.900002,,,,x,,
737706,1.8249342,4.5524664,-1.4570763,0.22865999,9.390304,-0.503052,91.5,-172.5,-25.500002,,,,x,,
737729,1.9936105,5.169152,-0.9073829,-0.15244,8.544262,-0.358234,72.3,-165.3,-27.300001,,,,x,,
737750,1.8063917,5.4018292,-0.80988556,-0.30488,9.634208,-0.967994,77.100006,-160.5,-27.300001,,,,x,,
737770,1.7178667,6.5424876,-1.16279,-0.030488,8.80341,-0.68597996,65.100006,-174.90001,-22.5,,,,x,,
737790,1.5623494,7.044928,-0.815867,-0.518296,7.324742,-1.440558,74.700005,-177.3,-23.7,,,,x,,
737810,2.0223215,7.564116,-0.6663313,-0.68597996,5.586926,-1.318606,79.5,-162.90001,-27.900002,,,,x,,
737830,1.9290111,7.577873,0.04246815,-1.539644,4.214966,-1.6158639,86.700005,-170.1,-24.300001,,,,x,,
737850,2.1162298,8.113212,0.15073203,-1.6539739,4.138746,-1.204276,79.5,-162.90001,-28.500002,,,,x,,
737870,1.8799634,8.865077,0.19678904,-1.48629,3.330814,-1.554888,77.100006,-189.3,-29.7,,,,x,,
737930,2.0797431,8.943434,0.55029154,-0.586894,2.012208,-1.006104,81.9,-184.5,-22.5,,,,x,,
737950,1.6030232,9.238916,-0.15133017,-0.07622,2.179892,-1.158544,72.3,-182.1,-22.5,,,,x,,
737974,0.974973,8.680251,-0.9139625,0.861286,0.93750596,-0.82317597,86.700005,-177.3,-24.900002,,,,,,
737995,1.0359837,9.191663,-1.2112396,1.570132,-0.083841994,-0.26677,91.5,-177.3,-27.900002,,,,,,
738015,1.029404,9.637877,-1.5456015,1.71495,-0.388722,-0.221038,84.3,-172.5,-24.300001,,,,,,
738036,1.0012913,9.79818,-1.7830642,1.3414719,-0.426832,-0.07622,89.100006,-172.5,-17.1,,,,,,
738056,0.95463616,9.8747425,-2.2693543,0.830798,0.160062,-0.060976,84.3,-182.1,-18.300001,,,,,,
738079,0.75366014,8.987098,-2.5122006,0.47256398,0.053354,-0.320124,74.700005,-167.70001,-23.7,,,,,,
738099,0.757249,9.357946,-2.9757612,0.7622,-0.388722,0.53354,96.3,-165.3,-25.500002,,,,,,
738119,0.8272317,9.39563,-2.873479,0.289636,-1.760682,0.548784,86.700005,-167.70001,-21.300001,,,,,,
738139,1.393075,9.74016,-2.5331354,0.0,-2.6677,0.884152,86.700005,-174.90001,-20.1,,,,,,
738161,1.6131916,9.435107,-2.1269965,-0.64787,-2.2484899,0.579272,79.5,-172.5,-15.900001,,,,,,
738181,1.6520709,9.100745,-2.1371648,-0.80793196,-1.745438,0.602138,98.700005,-167.70001,-19.5,,,,,,
738242,1.7214555,8.961378,-2.1407537,-0.57164997,-1.02897,0.213416,81.9,-155.70001,-20.1,,,,,,
738302,1.8967113,8.881227,-2.1820257,-0.083841994,-1.21952,0.70122397,79.5,-167.70001,-24.300001,,,,,,
738323,2.0169382,8.982911,-2.3435242,-0.198172,-1.478668,0.068598,77.100006,-170.1,-15.900001,,,,,,
738367,2.459564,9.228149,-2.6294365,-0.388722,-1.189032,-0.739334,91.5,-174.90001,-32.7,,,,,,
738388,2.7119803,9.159962,-2.6096978,-0.40396598,-1.021348,-1.211898,77.100006,-174.90001,-24.900002,,,,,,
738408,3.2933753,9.258655,-2.773589,-0.899396,-0.030488,-2.187514,84.3,-179.70001,-18.900002,,,,,,
738428,3.359171,7.780644,-3.3902743,-0.49543,2.62959,-4.390272,91.5,-165.3,-18.900002,,,,,,
738472,4.673889,7.3954396,-4.4621468,0.899396,-2.126538,-0.899396,101.100006,-162.90001,-24.300001,,,,,,
738535,5.004064,4.2276745,-2.0737617,-0.213416,2.560992,-8.971094,108.3,-160.5,-21.300001,,,,,,
738556,4.166664,3.3531895,-1.3111295,-0.11432999,4.4817357,-9.123534,105.9,-155.70001,-24.900002,,,,,,
738577,3.785647,3.4877717,-1.004282,0.891774,5.686012,-8.140296,113.100006,-158.1,-19.5,,,,x,,
738597,3.2413368,3.2694495,-0.099291734,0.129574,5.320156,-8.559505,125.100006,-165.3,-26.1,,,,x,,
738617,2.208942,2.2095401,0.9133643,-0.663114,6.166198,-9.237864,132.3,-158.1,-19.5,,,,x,,
738639,1.1753509,1.6957353,1.1466401,0.099086,8.53664,-9.291218,137.1,-150.90001,-14.1,,,,x,,
738659,-0.4982531,2.5331354,0.723753,1.768304,8.551884,-8.940606,151.5,-146.1,-19.5,,,,x,,
738679,-1.7382035,4.6457763,0.26677176,3.132642,6.0594897,-9.237864,156.3,-148.5,-22.5,,,,x,,
738699,-1.8219435,6.6507516,0.25301448,3.864354,2.05794,-9.009204,170.70001,-129.3,-20.1,,,,x,,
738721,-3.999782,5.159581,3.0385664,1.760682,-0.099086,-11.410133,182.70001,-138.90001,-17.1,,,,x,,
738781,-7.1388364,10.227647,-1.878767,3.2698379,-2.911604,-9.382682,197.1,-117.3,-12.3,,,,x,,
738801,-7.184295,9.470398,-0.5652451,3.2850819,-6.17382,-5.205826,199.50002,-124.50001,-12.3,,,,x,,
738824,-6.791315,14.171802,-2.3883848,2.865872,-1.432936,-0.045732,209.1,-124.50001,-9.3,,,,x,,
738847,-7.6759686,14.738841,-3.870583,1.730194,-3.7957559,-3.033556,199.50002,-114.9,-8.1,,,,x,,
738867,-8.000162,11.392829,-3.4381258,1.661596,-7.309498,-3.018312,201.90001,-105.3,-17.7,,,,x,,
738891,-7.6837444,12.7147255,-1.7513626,-0.106708,-7.9192576,0.785066,218.70001,-114.9,-18.300001,,,,x,,
738911,-8.641372,12.927664,-4.2408338,2.675322,1.478668,1.798792,209.1,-110.100006,-18.300001,,,,x,,
738973,-6.5789747,11.654816,-2.3590758,1.166166,-12.286664,2.903982,206.70001,-126.9,-13.500001,,,,x,,
739139,-2.7939258,15.751497,-10.807845,-1.478668,-10.358297,7.6524878,182.70001,-129.3,-14.1,,,,x,,
739159,-3.6755886,13.284756,-7.587444,-3.940574,-14.466556,5.015276,177.90001,-134.1,-18.900002,,,,x,,
739201,-2.1706607,12.538273,-7.870365,-1.9131219,-2.195136,8.948228,168.3,-131.70001,-23.7,,,,x,,
739241,-2.375824,10.917306,-5.4108014,-3.7424018,-5.228692,7.820172,158.70001,-146.1,-26.7,,,,x,,
739580,2.6031182,5.3695292,-0.874485,-2.042696,3.056422,0.426832,79.5,-170.1,-25.500002,,,,x,,
739616,2.4344418,4.6960206,-0.2619866,-1.94361,8.567128,-1.75306,72.3,-170.1,-24.300001,,,,x,,
739656,2.6623344,6.2141075,0.5490953,-1.768304,7.682976,-0.967994,89.100006,-172.5,-24.300001,,,,x,,
739794,1.4546837,9.695897,-0.37922263,0.640248,3.7881339,-1.1432999,81.9,-172.5,-24.300001,,,,x,,
739854,0.17346147,9.193458,-2.012751,0.46494198,2.926848,-1.951232,96.3,-170.1,-23.1,,,,x,,
