time,sensor_accX,sensor_accY,sensor_accZ,sensor_gyroX,sensor_gyroY,sensor_gyroZ,sensor_magX,sensor_magY,sensor_magZ,label_Boxing_slip_left,label_Boxing_slip_right,label_Boxing_pullback,label_Boxing_roll_left,label_Boxing_roll_right,label_Boxing_recording_cut
1450400,1.7382035,9.364527,-2.4105163,-0.297258,1.1051899,0.198172,45.9,-191.70001,-35.100002,,,,,,
1450440,2.883049,9.185681,-1.0006932,0.022866,0.93750596,0.373478,29.1,-165.3,-26.7,,,,,,
1450460,2.9063766,9.213795,-0.9839452,-0.274392,0.34298998,1.272874,26.7,-172.5,-32.7,,,,,,
1450480,3.1402507,9.254468,-0.97138417,-0.34298998,-1.493912,1.56251,29.1,-184.5,-26.7,,,,,,
1450500,3.0900066,9.155774,-0.8726906,-0.388722,-3.3155699,1.6006199,36.300003,-177.3,-35.7,,,,,,
1450520,3.017033,9.019398,-0.9085792,-0.22865999,-4.855214,1.6006199,41.100002,-182.1,-30.900002,,,,,,
1450540,3.125297,9.479968,-0.08134744,-0.53354,-4.397894,1.463424,31.500002,-196.50002,-26.7,,,,,,
1450560,3.0313885,9.115101,-0.28112718,-0.510674,0.137196,0.22865999,33.9,-189.3,-32.100002,,,,,,
1450581,3.5972319,10.416061,0.61429286,-0.442076,8.064075,-0.548784,33.9,-189.3,-33.300003,,,,,,
1450601,3.9591084,7.835075,-1.7561477,0.67835796,7.0960817,-6.265284,29.1,-177.3,-28.500002,,,,,,
1450621,1.07905,7.882328,-0.9444677,-0.144818,0.144818,-1.6006199,36.300003,-179.70001,-27.300001,,,,,,
1450641,3.647476,9.456042,-1.3224941,-0.47256398,-1.6387299,0.69360197,38.7,-198.90001,-30.300001,,,,,,
1450661,2.740093,8.298038,-0.0035888578,-0.358234,-2.2256238,-0.525918,38.7,-186.90001,-30.300001,,,,,,
1450681,2.8537402,8.19396,-0.6238631,0.34298998,-0.868908,-0.129574,21.900002,-177.3,-30.900002,,,,,,
1450701,2.5827813,7.587444,-0.35589507,0.11432999,-1.06708,-0.41158798,38.7,-189.3,-32.7,,,,,,
1450721,2.668316,7.82371,-0.5221788,0.716468,-0.449698,0.060976,24.300001,-189.3,-23.1,,,,,,
1450741,3.250309,9.4375,-0.90977544,1.6082419,0.20579399,0.34298998,29.1,-177.3,-23.1,,,,,,
1450764,3.7240381,9.845433,-1.6102009,1.806414,1.082324,-0.213416,31.500002,-174.90001,-27.300001,,,,,,
1450784,3.2407386,8.604286,-1.9983957,2.157026,0.198172,-1.1280559,21.900002,-191.70001,-30.900002,,,,,,
1450804,3.4668367,9.12168,-2.1389592,3.2088618,-0.57164997,-0.510674,26.7,-179.70001,-35.7,,,,,,
1450827,3.8747702,9.953099,-2.469134,2.7210538,-0.17530599,-1.25763,26.7,-189.3,-27.300001,,,,,,
1450847,4.112831,9.5984,-2.7705982,2.865872,-0.106708,-1.8597679,31.500002,-172.5,-34.5,,,,,,
1450867,3.9022849,8.622829,-2.627044,2.370442,-1.3795819,-1.935988,33.9,-186.90001,-29.1,,,,,,
1450929,3.9543233,8.134745,-2.175446,0.26677,-1.06708,-0.57164997,33.9,-182.1,-30.900002,,,,,,
1450949,4.01653,7.9935827,-2.1114447,-0.053354,-0.907018,-0.41158798,41.100002,-184.5,-24.900002,,,,,,
1450972,4.0476336,7.905656,-2.1389592,-0.23628199,-0.94512796,-0.20579399,29.1,-189.3,-23.7,,,,,,
1450992,4.0506244,7.8601966,-2.1317816,-0.3811,-1.059458,-0.091464,36.300003,-184.5,-19.5,,,,,,
1451013,4.2019544,8.117398,-2.2125309,-0.213416,-1.204276,0.015244,36.300003,-172.5,-23.1,,,,,,
1451034,4.108644,8.019901,-2.180231,-0.121952,-1.150922,-0.137196,50.7,-177.3,-20.1,,,,,,
1451054,4.045839,8.069547,-2.2681582,0.106708,-1.059458,-0.106708,41.100002,-186.90001,-32.7,,,,,,
1451094,3.7994041,8.192764,-2.2615786,0.327746,-1.3567159,-0.785066,38.7,-189.3,-25.500002,,,,,,
1451160,3.7222438,8.766981,-1.9547312,0.121952,-1.3567159,-1.5929979,48.300003,-177.3,-25.500002,,,,,,
1451202,3.3645542,8.451162,-1.7591385,-0.46494198,-2.2180018,-4.634176,48.300003,-186.90001,-27.900002,,,,,,
1451291,0.52457136,8.176615,-1.4923667,-0.82317597,-1.29574,-1.722572,50.7,-179.70001,-23.7,,,,,,
1451311,-0.73451954,8.994874,-2.3572814,0.94512796,0.754578,0.792688,43.5,-167.70001,-27.300001,,,,,,
1451331,-0.28770676,11.052485,-3.2688513,0.40396598,0.99086,2.126538,45.9,-184.5,-23.1,,,,,,
1451351,0.46714967,12.053179,-3.410013,-0.777444,-1.250008,0.769822,43.5,-170.1,-27.300001,,,,,,
1451374,0.026916433,10.090074,-2.530743,-0.41921,-3.117398,-2.59148,43.5,-184.5,-27.300001,,,,,,
1451395,-0.3020622,9.383069,-2.2825136,-0.259148,-2.103672,-1.8445239,53.100002,-177.3,-23.7,,,,,,
1451415,-0.032897864,9.856798,-2.338739,-0.297258,-1.501534,-0.625004,55.500004,-191.70001,-24.900002,,,,,,
1451435,0.1782466,10.254563,-2.2244937,0.099086,-1.25763,-0.708846,41.100002,-184.5,-23.7,,,,,,
1451455,0.39896137,10.337107,-2.167072,-0.099086,-1.234764,-1.539644,65.100006,-174.90001,-27.900002,,,,,,
1451475,0.4133168,9.161756,-1.9212352,0.198172,-0.92226195,-2.332332,65.100006,-186.90001,-23.7,,,,,,
1451495,0.4581775,8.89618,-1.6789873,0.15244,-1.074702,-1.6387299,62.7,-184.5,-29.1,,,,,,
1451515,0.58318937,8.614455,-1.426571,0.16768399,-0.312502,-1.33385,60.300003,-194.1,-15.900001,,,,,,
1451539,0.6083114,8.623427,-1.5216757,0.56402797,0.41921,-1.3795819,65.100006,-194.1,-26.7,,,,,,
1451560,0.6794904,8.510977,-1.5749104,0.87653,0.47256398,-1.71495,60.300003,-177.3,-24.300001,,,,,,
1451580,0.7309307,8.635988,-1.4917686,1.074702,0.320124,-1.6234859,62.7,-177.3,-16.5,,,,,,
1451600,0.94028074,8.464919,-1.468441,0.655492,0.80030996,-1.79117,60.300003,-179.70001,-17.1,,,,,,
1451620,1.3069423,9.246094,-1.5796956,0.92988396,1.02897,-0.907018,62.7,-170.1,-21.900002,,,,,,
1451640,0.6711164,8.948817,-1.6347247,-0.160062,1.3414719,-1.6082419,65.100006,-186.90001,-19.5,,,,,,
1451660,0.65496653,8.303421,-1.6526691,0.426832,1.051836,-2.141782,81.9,-182.1,-23.7,,,,,,
1451683,1.079648,9.427331,-1.7184647,0.213416,0.731712,-1.6311079,67.5,-182.1,-20.1,,,,,,
1451703,0.9660009,8.799879,-1.8177565,0.129574,1.745438,-2.454284,72.3,-167.70001,-28.500002,,,,,,
1451723,1.0401707,8.620437,-2.2017643,0.80030996,2.164648,-2.32471,62.7,-172.5,-18.900002,,,,,,
1451743,1.0425632,8.390151,-2.4087217,0.80793196,1.8826339,-2.065562,79.5,-170.1,-18.900002,,,,,,
1451763,1.2537076,8.38716,-2.3877866,0.7622,1.44818,-1.570132,69.9,-174.90001,-21.900002,,,,,,
1451783,1.3882898,8.7843275,-2.6473808,0.907018,2.126538,-1.493912,86.700005,-177.3,-23.7,,,,,,
1451824,1.9272166,9.283179,-3.7054956,1.501534,2.599102,-1.6387299,91.5,-174.90001,-15.3,,,,,,
1451844,2.5050228,10.201328,-3.9638934,0.846042,2.01983,-0.998482,89.100006,-177.3,-21.900002,,,,,,
1451864,2.707195,10.373593,-4.299452,0.518296,1.661596,-1.928366,84.3,-158.1,-15.900001,,,,,,
1451884,2.2370548,9.55653,-4.602112,0.92988396,0.983238,-2.7362978,98.700005,-170.1,-18.300001,,,,,,
1451904,2.226288,9.38606,-4.8880243,1.3414719,-0.274392,-2.012208,91.5,-177.3,-20.7,,,,,,
1451924,2.4912655,9.7886095,-4.882641,1.06708,-2.05794,-1.1204339,84.3,-160.5,-20.1,,,,,,
1451944,2.7203543,9.555932,-4.3383307,0.28201398,-3.361302,-1.158544,84.3,-174.90001,-20.1,,,,,,
1452009,2.012153,7.3601494,-3.1276896,-1.425314,-1.532022,-0.67073596,89.100006,-170.1,-20.7,,,,,,
1452029,2.1634831,7.420562,-2.5552669,-1.760682,-1.29574,0.64787,74.700005,-177.3,-24.300001,,,,,,
1452049,2.3423278,7.8135414,-2.18382,-1.8978779,-0.137196,0.67835796,84.3,-174.90001,-31.500002,,,,,,
1452071,2.313617,7.6119676,-2.2280827,-1.440558,0.82317597,-0.053354,105.9,-155.70001,-24.300001,,,,,,
1452091,3.0840251,8.994874,-2.7137747,-0.007622,0.602138,1.204276,81.9,-158.1,-22.5,,,,,,
1452133,3.4195833,8.533108,-1.4546837,-0.41921,-1.242386,-0.34298998,86.700005,-179.70001,-19.5,,,,,,
1452153,2.9458542,8.498415,-1.6634356,-0.41921,0.221038,-0.07622,86.700005,-170.1,-25.500002,,,,,,
1452173,2.635418,9.005641,-2.0940986,0.07622,0.975616,0.221038,89.100006,-172.5,-25.500002,,,,,,
1452197,2.1778386,9.420154,-2.522369,0.11432999,0.87653,-0.251526,93.9,-167.70001,-20.1,,,,,,
1452217,1.4666466,9.101942,-2.4440122,0.358234,0.28201398,-0.64787,91.5,-162.90001,-21.900002,,,,,,
1452239,0.6011337,11.656013,-3.0146406,0.198172,1.532022,0.548784,86.700005,-177.3,-20.7,,,,,,
1452259,0.079553016,11.021382,-3.209037,-0.259148,1.783548,-2.454284,86.700005,-174.90001,-23.7,,,,,,
1452279,-0.7333233,8.977528,-3.1241007,0.57164997,-0.67073596,-4.070148,103.50001,-172.5,-25.500002,,,,,,
1452299,-1.1245087,8.417068,-2.4254696,-0.57164997,-1.554888,-1.478668,89.100006,-172.5,-18.300001,,,,,,
1452319,-1.2596891,8.483461,-2.0306954,-1.036592,0.72409,-0.442076,101.100006,-165.3,-16.5,,,,,,
1452339,-1.6299396,8.161661,-2.9984908,0.80793196,3.079288,-0.92988396,101.100006,-170.1,-21.300001,,,,,,
1452362,-1.4164026,7.7824383,-3.8651998,1.577754,1.6539739,-0.754578,96.3,-177.3,-15.900001,,,,,,
1452382,-1.1825286,8.064762,-3.5152862,0.72409,-1.8902559,0.160062,93.9,-162.90001,-18.900002,,,,,,
1452405,-0.71597713,8.794497,-2.7969165,0.243904,-2.179892,0.0,93.9,-167.70001,-11.700001,,,,,,
1452425,0.9630102,10.797079,-3.0553143,-1.059458,0.7622,1.189032,103.50001,-170.1,-18.900002,,,,,,
1452445,1.2010711,11.101534,-3.0032759,-1.775926,1.006104,0.160062,96.3,-189.3,-20.1,,,,,,
1452465,0.03588858,8.512173,-2.9177413,-0.434454,1.67684,-3.407034,103.50001,-172.5,-20.1,,,,,,
1452485,-0.80749303,7.835075,-2.9769576,-0.320124,0.967994,-1.509156,101.100006,-162.90001,-25.500002,,,,,,
1452505,-0.7087994,8.470303,-2.8728807,-0.708846,1.158544,0.213416,101.100006,-160.5,-21.900002,,,,,,
1452525,-0.6406111,9.934557,-3.0427532,-0.3811,2.126538,1.250008,103.50001,-172.5,-18.300001,,,,,,
1452547,-2.1551092,9.167139,-3.9333882,0.983238,2.408552,-0.46494198,105.9,-172.5,-23.7,,,,,,
1452568,-3.627139,9.639074,-4.329957,1.272874,0.55640596,-0.259148,108.3,-174.90001,-22.5,,,,,,
1452588,-4.2013564,10.715732,-4.6248417,0.82317597,-0.785066,-0.579272,122.700005,-177.3,-15.900001,,,,,,
1452608,-4.971166,10.913118,-4.969372,0.259148,-2.01983,-2.606724,103.50001,-172.5,-15.3,,,,,,
1452628,-5.7595186,10.586533,-5.534019,1.059458,-2.7286758,-3.132642,93.9,-170.1,-18.300001,,,,,,
1452648,-5.3468,10.654122,-5.9054656,1.082324,-5.75461,-3.117398,113.100006,-162.90001,-19.5,,,,,,
1452669,-3.831704,10.084092,-5.0345693,-0.297258,-12.019894,-4.336918,110.700005,-170.1,-15.900001,,,,,,
1452690,-3.5703154,8.560024,-2.7335134,-1.707328,-14.992474,-6.234796,125.100006,-165.3,-17.1,,,,,,
1452710,-2.857329,6.526936,-1.619173,-0.23628199,-9.618964,-6.844556,127.50001,-165.3,-18.900002,,,,,,
1452730,-2.840581,5.3587627,-2.2406435,1.234764,-4.672286,-4.862836,132.3,-158.1,-16.5,,,,,,
1452750,-1.83271,6.2655478,-2.623455,0.884152,-4.169234,-0.41158798,129.90001,-162.90001,-20.1,,,x,,,
1452770,-1.5844808,6.2787066,-1.8464674,-0.57164997,-3.330814,0.053354,132.3,-162.90001,-17.1,,,x,,,
1452790,-1.957722,4.7917233,-2.2962708,1.44818,1.089946,0.221038,151.5,-165.3,-24.900002,,,x,,,
1452810,-0.7961283,6.0597863,-3.4799957,1.722572,1.3948259,4.214966,129.90001,-165.3,-20.1,,,x,,,
1452830,1.0975924,7.422954,-3.2568884,-0.69360197,0.198172,6.32626,120.3,-170.1,-20.7,,,x,,,
1452850,2.2520082,8.265738,-2.681475,-0.69360197,-0.81555396,6.654006,132.3,-165.3,-23.1,,,x,,,
1452870,3.2766273,8.954201,-2.1903996,-2.13416,0.541162,6.257662,120.3,-162.90001,-21.300001,,,x,,,
1452891,3.2688513,8.572585,-2.3847961,-1.966476,3.475632,4.641798,108.3,-172.5,-24.300001,,,x,,,
1452911,4.855725,9.388453,-2.9476485,-2.370442,1.8902559,6.5244317,93.9,-162.90001,-21.300001,,,x,,,
1452931,5.4771953,9.825695,-2.6449883,-2.835384,0.49543,7.103704,96.3,-167.70001,-15.3,,,x,,,
1452952,6.3779984,10.127757,-1.8668042,-3.12502,0.30488,6.638762,91.5,-174.90001,-18.900002,,,x,,,
1452972,6.355269,9.796386,-2.058808,-1.196654,2.004586,5.464974,74.700005,-172.5,-27.300001,,,x,,,
1452992,8.030069,11.185273,-2.527154,-0.144818,3.2469718,5.975648,72.3,-172.5,-25.500002,,,x,,,
1453032,7.233343,10.703769,-3.539212,2.164648,2.926848,2.141782,72.3,-160.5,-26.1,,,x,,,
1453052,7.7884197,11.21518,-3.8759665,1.920744,1.8902559,1.8369019,57.9,-179.70001,-21.300001,,,x,,,
1453075,7.3182793,10.645748,-3.7742822,1.6234859,0.503052,-0.87653,60.300003,-196.50002,-21.300001,,,x,,,
1453095,6.757221,10.658908,-4.1062517,1.814036,0.754578,-1.699706,69.9,-174.90001,-21.300001,,,x,,,
1453116,6.7500434,10.816219,-4.2516003,0.93750596,0.091464,-2.987824,86.700005,-172.5,-23.1,,,x,,,
1453137,6.543684,9.9848,-3.8980978,-0.510674,-0.891774,-3.7347798,77.100006,-172.5,-24.900002,,,x,,,
1453157,5.8929048,9.718627,-3.4447055,-0.434454,-0.67073596,-2.62959,67.5,-167.70001,-18.900002,,,x,,,
1453221,4.655347,8.430825,-2.6868582,-2.073184,-2.027452,-4.72564,84.3,-186.90001,-20.7,,,x,,,
1453267,3.2144203,7.726213,-2.0899115,-1.8902559,-0.655492,-2.942092,79.5,-186.90001,-21.900002,,,x,,,
1453287,2.7245412,7.7417645,-1.8039992,-2.111294,0.022866,-3.132642,86.700005,-170.1,-16.5,,,x,,,
1453328,1.183725,7.0012636,-1.8315138,-1.196654,1.1432999,-4.329296,103.50001,-182.1,-23.7,,,x,,,
1453349,0.12919888,6.644172,-1.824336,-0.480186,1.3795819,-4.131124,113.100006,-172.5,-22.5,,,x,,,
1453390,-0.77280074,7.00246,-1.7118852,-0.55640596,0.967994,-2.568614,129.90001,-165.3,-22.5,,,x,,,
1453450,-1.8105788,8.49064,-1.865608,-0.49543,2.522882,-1.6463519,115.50001,-172.5,-19.5,,,x,,,
1453470,-1.9565257,8.013321,-2.0109568,-0.251526,2.850628,-2.2484899,117.9,-165.3,-17.7,,,x,,,
1453512,-3.1342692,9.406396,-3.0236127,0.41921,4.474114,-0.49543,122.700005,-172.5,-19.5,,,x,,,
1453532,-2.7795703,10.122374,-3.2730384,0.487808,2.995446,-0.92988396,122.700005,-155.70001,-18.900002,,,x,,,
1453572,-3.2078407,10.01411,-3.2162147,0.92988396,2.6905658,-3.2927039,137.1,-162.90001,-18.900002,,,,,,
1453594,-3.3167028,10.169627,-3.6845608,1.8826339,2.545748,-2.484772,125.100006,-158.1,-23.1,,,,,,
1453614,-3.107951,10.511765,-3.7330103,0.40396598,1.6082419,-1.8369019,132.3,-165.3,-17.7,,,,,,
1453634,-3.3537877,9.866966,-3.6175687,0.442076,1.280496,-2.522882,129.90001,-155.70001,-14.700001,,,,,,
1453658,-2.9990888,9.5834465,-3.8478537,0.716468,1.044214,-1.8902559,134.70001,-158.1,-21.300001,,,,,,
1453678,-2.530743,9.803563,-3.9309957,0.312502,0.16768399,-0.830798,122.700005,-170.1,-21.900002,,,,,,
1453698,-1.8494581,9.896873,-3.82333,0.053354,-1.166166,-0.57164997,127.50001,-165.3,-17.1,,,,,,
1453718,-1.6807817,9.161756,-3.4793978,0.35061198,-1.6387299,-1.082324,132.3,-158.1,-23.7,,,,,,
1453738,-1.2854092,8.900966,-3.4841828,0.144818,-1.516778,-0.56402797,127.50001,-160.5,-10.5,,,,,,
1453758,-0.95523435,8.75143,-3.309525,-0.274392,-1.6006199,-0.663114,117.9,-158.1,-21.900002,,,,,,
1453778,-0.3911855,8.74485,-3.1133342,-0.358234,-1.417692,-0.41158798,127.50001,-153.3,-14.1,,,,,,
1453798,-0.08792701,8.626418,-2.661138,-0.739334,-0.23628199,-0.510674,129.90001,-158.1,-23.1,,,,,,
1453818,-0.04187001,8.596511,-2.7460744,-0.53354,0.67835796,-0.541162,129.90001,-155.70001,-20.1,,,,,,
1453858,0.45279422,8.930275,-2.9309006,-0.045732,0.03811,-0.365856,144.3,-155.70001,-15.900001,,,,,,
1453881,0.41212052,8.893189,-2.6330254,0.320124,0.480186,-0.72409,129.90001,-158.1,-17.7,,,,,,
1453901,0.40494278,9.377686,-3.109147,0.274392,1.33385,-1.021348,139.5,-155.70001,-20.7,,,,,,
1453962,-0.95523435,8.866872,-3.0600994,-0.19055,0.0,0.655492,139.5,-158.1,-26.1,,,x,,,
1453987,-1.677791,9.036744,-3.1785316,0.0,-0.03811,0.907018,149.1,-160.5,-17.1,,,x,,,
1454007,-2.4673398,9.198242,-2.8788621,-1.036592,-0.55640596,1.440558,122.700005,-165.3,-16.5,,,x,,,
1454050,-5.4371195,10.194749,-3.8508444,0.30488,3.018312,1.501534,127.50001,-158.1,-15.900001,,,x,,,
1454070,-6.303231,10.971138,-4.910156,1.3795819,1.974098,0.983238,132.3,-155.70001,-23.1,,,x,,,
1454090,-6.5843577,10.096055,-5.600413,1.8750119,-0.663114,0.35061198,137.1,-165.3,-21.900002,,,x,,,
1454112,-6.316988,9.810741,-5.291771,1.158544,-5.282046,2.6981878,129.90001,-160.5,-20.1,,,x,,,
1454174,-2.8501513,8.360245,-3.8077781,0.35061198,-4.024416,0.091464,127.50001,-165.3,-21.300001,,,x,,,
1454194,-1.9648997,7.2327447,-3.1976724,0.708846,-4.5884438,-1.6311079,129.90001,-150.90001,-16.5,,,x,,,
1454216,-1.0024877,6.672883,-2.610894,1.425314,-4.169234,-1.989342,122.700005,-160.5,-14.1,,,x,,,
1454236,0.26916432,6.7751656,-2.3536925,1.75306,-2.888738,-1.1051899,122.700005,-167.70001,-23.7,,,x,,,
1454258,0.6430037,6.2852864,-2.313617,0.884152,-1.6463519,0.33536798,141.90001,-162.90001,-18.300001,,,x,,,
1454278,1.6054157,7.5419846,-2.7012136,0.434454,-1.722572,2.560992,132.3,-155.70001,-25.500002,,,x,,,
1454298,2.3471131,7.8422527,-2.6850638,-0.26677,-1.532022,1.966476,125.100006,-167.70001,-21.300001,,,x,,,
1454318,2.8800583,7.580266,-2.9649947,-0.23628199,-1.02897,1.425314,110.700005,-165.3,-23.1,,,x,,,
1454338,3.7413843,8.0390415,-3.2018592,-0.33536798,-1.6006199,2.027452,120.3,-160.5,-18.900002,,,x,,,
1454358,4.593738,8.761599,-2.8226366,-0.541162,-2.7362978,2.62959,132.3,-160.5,-22.5,,,x,,,
1454398,4.8676877,10.256956,-2.8812547,-0.891774,0.28201398,1.3872039,113.100006,-165.3,-20.7,,,x,,,
1454418,4.8120604,9.786217,-2.9446578,-0.716468,0.47256398,0.60976,117.9,-172.5,-19.5,,,x,,,
1454439,4.581177,9.780834,-3.0648847,-0.967994,1.3795819,1.1432999,108.3,-165.3,-17.1,,,x,,,
1454459,4.33235,10.005137,-3.3902743,-1.044214,2.545748,1.4024479,115.50001,-165.3,-18.900002,,,x,,,
1454479,3.9417622,10.166636,-3.5691192,-0.87653,1.974098,0.80793196,122.700005,-165.3,-15.900001,,,x,,,
1454499,3.698318,9.844835,-3.6426907,-0.625004,3.35368,-0.510674,110.700005,-160.5,-17.1,,,x,,,
1454519,4.375416,10.6523285,-4.672095,0.868908,4.519846,0.137196,101.100006,-160.5,-19.5,,,x,,,
1454562,4.8545284,11.495111,-3.9842303,-1.173788,0.830798,-0.846042,122.700005,-165.3,-23.1,,,x,,,
1454588,4.1517105,10.649936,-3.965688,-1.6387299,3.7957559,-1.8673899,122.700005,-170.1,-11.700001,,,x,,,
1454609,4.221095,10.55842,-4.3102183,-1.8369019,4.0472817,-1.044214,108.3,-174.90001,-20.7,,,x,,,
1454649,3.580484,10.068541,-3.2144203,-2.080806,2.195136,-0.716468,113.100006,-167.70001,-24.900002,,,x,,,
1454669,3.212626,9.115699,-3.0230145,-1.3490939,2.370442,-1.5244,113.100006,-162.90001,-15.900001,,,x,,,
1454689,2.807085,8.058182,-2.5403132,-1.250008,1.1051899,-1.6006199,117.9,-165.3,-22.5,,,x,,,
1454713,2.6390069,7.4857593,-2.0809393,-1.21952,0.67835796,-1.211898,110.700005,-174.90001,-25.500002,,,x,,,
1454733,1.9816476,6.77696,-1.7274369,-1.227142,1.67684,-1.204276,122.700005,-160.5,-19.5,,,x,,,
1454753,1.6078084,6.8128486,-1.9200389,-1.089946,2.339954,-0.81555396,120.3,-162.90001,-14.1,,,x,,,
1454773,0.8792702,6.95401,-2.3668518,-1.074702,2.47715,-0.16768399,110.700005,-162.90001,-19.5,,,x,,,
1454836,-1.4086267,9.125867,-2.7927296,-1.173788,1.463424,1.532022,117.9,-165.3,-15.900001,,,x,,,
1454856,-1.5743123,8.964369,-1.786055,-1.8292799,-1.463424,-0.487808,115.50001,-167.70001,-20.7,,,x,,,
1454876,-2.6431937,8.734084,-1.3482143,-1.806414,1.707328,-1.25763,122.700005,-162.90001,-28.500002,,,x,,,
1454900,-3.1617837,10.420249,-2.903984,-1.082324,5.3963757,-1.097568,115.50001,-177.3,-17.7,,,x,,,
1454920,-3.368143,10.527316,-3.9525287,-0.28201398,4.1921,-2.446662,117.9,-165.3,-22.5,,,,,,
1454940,-3.3842928,9.919603,-3.7144678,-0.26677,-0.579272,-2.8048959,122.700005,-162.90001,-21.900002,,,,,,
1454960,-3.1785316,9.989586,-2.8848436,-0.23628199,-1.692084,-2.301844,115.50001,-172.5,-17.7,,,,,,
1454980,-2.957817,10.280283,-2.9984908,-0.16768399,0.20579399,-2.012208,129.90001,-167.70001,-20.1,,,,,,
1455000,-2.515191,10.002147,-3.439322,0.137196,0.93750596,-2.080806,134.70001,-155.70001,-16.5,,,,,,
1455060,-1.6466876,8.649147,-3.602017,0.83842,0.289636,0.11432999,129.90001,-158.1,-20.1,,,,,,
1455121,-0.77938026,9.165345,-2.6348197,-0.251526,0.015244,0.144818,125.100006,-165.3,-23.1,,,,,,
1455144,-0.38998923,9.0654545,-3.5176787,0.23628199,1.02897,0.060976,132.3,-150.90001,-23.7,,,,,,
1455164,-0.2075556,9.107325,-3.2616737,-0.068598,-1.158544,0.442076,129.90001,-158.1,-17.7,,,,,,
1455184,0.14594689,9.426135,-2.8818529,-0.243904,-1.707328,0.7622,132.3,-162.90001,-18.300001,,,,,,
1455245,0.80689484,8.453554,-2.861516,-0.67073596,-0.746956,-0.503052,127.50001,-170.1,-25.500002,,,,,,
1455310,0.5634507,8.622231,-2.7036061,-0.16768399,0.525918,-0.47256398,120.3,-165.3,-23.7,,,,,,
1455331,0.11364716,8.415274,-2.6707084,-0.106708,0.045732,-0.510674,127.50001,-160.5,-18.300001,,,,,,
1455372,-2.7215505,9.317273,-3.2066445,-0.617382,0.739334,1.920744,134.70001,-158.1,-21.900002,,,,,,
1455413,-5.301341,11.251069,-4.079335,0.45731997,4.390272,2.660078,110.700005,-158.1,-24.300001,,,x,,,
1455550,-2.7430837,4.95382,-1.8464674,-2.05794,-10.02293,-1.577754,110.700005,-165.3,-24.900002,,,x,,,
1455570,-2.2454288,4.810864,-0.89003676,-1.94361,-9.29884,-0.106708,110.700005,-177.3,-22.5,,,x,,,
1455612,1.5862751,5.8013887,-1.0521334,-1.56251,-1.234764,4.138746,115.50001,-170.1,-21.300001,,,x,,,
1455633,3.0463421,5.381492,-0.58378756,-2.2789779,-1.509156,6.547298,113.100006,-172.5,-28.500002,,,x,,,
1455653,4.4830813,6.4007277,-0.5867783,-1.669218,1.021348,10.853727,98.700005,-165.3,-24.300001,,,x,,,
1455673,6.104049,8.851918,-0.9181495,-2.2789779,2.347576,13.330877,96.3,-186.90001,-31.500002,,,x,,,
1455737,7.6119676,9.628307,-0.8571389,-1.3643379,0.23628199,6.9131536,55.500004,-189.3,-23.1,,,x,,,
1455757,7.3535695,10.206114,-1.4337487,-0.480186,1.539644,5.556438,53.100002,-189.3,-29.1,,,x,,,
1455777,7.3314385,9.570288,-1.9798533,-0.083841994,1.1204339,3.833866,55.500004,-194.1,-26.7,,,x,,,
1455799,7.8859167,10.684628,-1.6185749,0.297258,0.15244,3.2317278,48.300003,-184.5,-27.300001,,,x,,,
1455819,7.4540577,10.247984,-2.363263,1.18141,1.021348,1.6082419,48.300003,-186.90001,-20.7,,,x,,,
1455839,7.5772753,9.604382,-2.7299244,1.79117,0.106708,0.327746,43.5,-182.1,-27.900002,,,x,,,
1455862,8.494826,10.561411,-2.07436,0.3811,-1.722572,1.211898,31.500002,-182.1,-20.1,,,x,,,
1455882,8.698793,10.433408,-2.1126409,-0.251526,0.396344,0.846042,36.300003,-170.1,-24.300001,,,x,,,
1455902,8.641372,10.519541,-2.7855518,0.144818,1.1128119,-0.007622,33.9,-179.70001,-21.900002,,,x,,,
1455922,8.254373,9.311292,-2.39317,-0.137196,-0.22865999,-1.242386,41.100002,-186.90001,-22.5,,,x,,,
1455942,8.728103,9.880724,-1.8715893,-0.49543,0.068598,-1.48629,29.1,-182.1,-30.300001,,,x,,,
1455962,8.108426,9.242505,-1.8028029,-0.94512796,1.1356779,-3.399412,53.100002,-177.3,-32.100002,,,x,,,
1455986,7.287774,8.159866,-1.3589808,-0.640248,0.731712,-4.794238,48.300003,-182.1,-27.300001,,,x,,,
1456006,5.355772,7.0640683,-0.8696999,0.53354,0.83842,-4.710396,57.9,-174.90001,-24.900002,,,x,,,
1456026,4.91195,7.0592833,-0.9965062,0.60976,1.036592,-4.329296,57.9,-184.5,-27.300001,,,x,,,
1456046,4.16786,6.6298165,-0.8816627,0.548784,0.45731997,-4.359784,67.5,-179.70001,-33.300003,,,x,,,
1456066,3.1869059,5.844455,-0.68666816,0.91463995,0.251526,-4.5884438,72.3,-177.3,-24.900002,,,x,,,
1456086,1.4989463,5.339024,-1.0539279,1.8750119,1.6006199,-4.253076,67.5,-170.1,-23.1,,,x,,,
1456110,-1.0533298,5.8851285,-2.4194884,3.407034,2.843006,-3.445144,81.9,-174.90001,-25.500002,,,x,,,
1456130,-1.5360311,7.8081584,-3.183317,2.987824,1.67684,-2.09605,74.700005,-167.70001,-26.1,,,x,,,
1456151,-2.1102483,9.174317,-3.3322544,2.103672,0.884152,-3.018312,79.5,-170.1,-19.5,,,x,,,
1456171,-2.8680956,9.910631,-3.5463896,1.3872039,1.06708,-4.0320377,79.5,-167.70001,-24.300001,,,x,,,
1456191,-3.2748327,10.317966,-3.7958152,0.525918,1.8369019,-5.114362,86.700005,-170.1,-24.900002,,,x,,,
1456211,-3.109147,9.996763,-4.0296893,0.442076,1.082324,-5.884184,81.9,-177.3,-25.500002,,,x,,,
1456233,-3.4871736,9.92379,-3.5697172,-0.198172,-0.510674,-5.746988,105.9,-167.70001,-25.500002,,,x,,,
1456253,-3.8077781,9.393835,-3.9405658,0.67073596,2.36282,-4.855214,110.700005,-174.90001,-21.300001,,,x,,,
1456273,-3.4417148,9.278992,-4.154103,0.060976,-0.03811,-2.987824,108.3,-172.5,-24.300001,,,x,,,
1456334,-2.0653877,9.671972,-2.9548264,-0.274392,0.586894,-1.189032,108.3,-170.1,-18.300001,,,x,,,
1456409,-0.15432088,9.30531,-2.6575491,0.594516,-0.640248,-0.83842,117.9,-165.3,-21.300001,,,,,,
1456473,0.5796005,9.267627,-2.819048,0.15244,-0.81555396,0.3811,105.9,-172.5,-16.5,,,,,,
1456507,0.8433816,9.558923,-2.5319393,-0.480186,-0.449698,-0.99086,129.90001,-165.3,-19.5,,,,,,
1456527,0.820054,8.936854,-2.393768,-0.67073596,-0.46494198,-1.1432999,113.100006,-174.90001,-22.5,,,,,,
1456567,0.6124984,8.758608,-2.3411317,-0.182928,0.053354,-0.23628199,117.9,-167.70001,-23.7,,,,,,
1456587,0.36247465,9.100147,-2.5678277,-0.17530599,0.41921,-0.289636,132.3,-167.70001,-21.300001,,,,,,
1456608,0.34752107,8.91891,-2.794524,0.053354,-0.34298998,-0.426832,120.3,-158.1,-17.1,,,,,,
1456628,-0.1016843,8.787318,-2.5498836,-0.137196,-1.303362,0.030488,115.50001,-172.5,-23.1,,,,,,
1456648,-1.510311,9.082801,-2.5803888,-0.259148,0.87653,0.632626,125.100006,-160.5,-20.1,,,,,,
1456668,-2.6461844,9.890294,-3.6032133,0.388722,3.330814,0.80793196,108.3,-160.5,-31.500002,,,,,,
1456691,-4.565027,10.543467,-4.648767,0.23628199,3.92533,0.69360197,110.700005,-165.3,-28.500002,,,x,,,
1456711,-6.6316113,9.71444,-4.87666,0.34298998,5.114362,-0.40396598,125.100006,-167.70001,-25.500002,,,x,,,
1456733,-6.6920238,11.050094,-6.702192,0.81555396,4.80186,2.461906,110.700005,-165.3,-12.3,,,x,,,
1456753,-7.140033,10.776144,-6.743464,-2.339954,0.746956,2.606724,120.3,-165.3,-20.1,,,x,,,
1456775,-5.6368995,9.447668,-5.175731,-3.551852,-6.760714,3.445144,105.9,-165.3,-12.3,,,x,,,
1456795,-3.9567158,8.5576315,-3.2144203,-3.84911,-10.327809,2.621968,108.3,-165.3,-20.1,,,x,,,
1456815,-2.5462947,7.160968,-1.3954675,-2.2561119,-9.489389,1.478668,108.3,-167.70001,-24.900002,,,x,,,
1456835,-0.9797582,6.497029,-0.70760316,-0.525918,-6.4024796,2.149404,98.700005,-170.1,-24.300001,,,x,,,
1456855,0.5514878,6.607087,-0.3229972,-0.525918,-4.131124,3.2469718,91.5,-172.5,-25.500002,,,x,,,
1456879,1.238156,6.4246535,0.38221335,-1.189032,-1.478668,3.521364,98.700005,-167.70001,-23.7,,,x,,,
1456941,3.7796655,7.159173,-0.9827489,-0.95274997,3.071666,5.929916,96.3,-179.70001,-22.5,,,x,,,
1456988,5.2158065,8.8381605,-1.7423905,-0.449698,2.987824,3.971062,69.9,-186.90001,-26.7,,,x,,,
1457010,5.735593,8.63539,-1.8715893,0.007622,0.891774,3.39179,69.9,-177.3,-23.7,,,x,,,
1457051,7.467217,10.2103,-2.0354805,0.22865999,2.2942219,4.618932,53.100002,-179.70001,-28.500002,,,x,,,
1457071,7.8930945,10.486643,-2.5540705,0.28201398,1.3795819,3.7119138,43.5,-177.3,-21.900002,,,x,,,
1457111,9.139625,10.188767,-1.9619089,0.0,0.769822,3.521364,48.300003,-177.3,-30.900002,,,x,,,
1457168,9.246693,10.076317,-3.1839151,-0.586894,-3.1936178,-0.541162,36.300003,-177.3,-29.7,,,x,,,
1457188,10.42324,9.777245,-1.6347247,-2.17227,-3.170752,-0.777444,41.100002,-191.70001,-20.7,,,x,,,
1457228,8.129959,9.27002,-2.6623344,0.47256398,1.265252,-3.376546,45.9,-186.90001,-23.1,,,x,,,
1457248,7.3864675,8.472695,-1.9768625,-0.182928,-0.60976,-5.625036,41.100002,-179.70001,-21.900002,,,x,,,
1457268,6.510188,7.429534,-1.4355432,-0.442076,-1.478668,-7.103704,60.300003,-184.5,-23.1,,,x,,,
1457289,5.217003,6.3899612,-0.6878644,-0.23628199,-1.8902559,-6.875044,60.300003,-189.3,-24.300001,,,x,,,
1457309,3.9256122,7.068854,-0.6615461,0.33536798,0.015244,-5.0533857,69.9,-184.5,-21.300001,,,x,,,
1457369,-0.073571585,5.621946,-1.2040617,1.989342,1.806414,-6.1204658,81.9,-182.1,-30.900002,,,x,,,
1457404,-1.9290111,7.912833,-3.0870159,1.814036,3.932952,-2.82014,81.9,-165.3,-23.7,,,x,,,
1457427,-2.467938,8.426639,-3.4453034,1.3719599,2.568614,-2.621968,89.100006,-167.70001,-24.300001,,,x,,,
1457469,-2.9990888,9.563708,-3.6911402,0.716468,1.928366,-2.652456,93.9,-177.3,-19.5,,,x,,,
1457489,-3.3962557,9.689318,-3.9148457,0.449698,1.3643379,-2.7972739,105.9,-184.5,-18.900002,,,x,,,
1457509,-3.6540554,9.618737,-3.672598,-0.243904,0.655492,-2.7667859,89.100006,-165.3,-20.1,,,x,,,
1457551,-2.9943037,10.05598,-3.877761,-0.022866,0.388722,-2.01983,101.100006,-167.70001,-24.300001,,,x,,,
1457587,-2.292084,10.260545,-3.4704256,-0.67073596,-0.17530599,-1.661596,105.9,-155.70001,-21.300001,,,x,,,
1457609,-2.1778386,9.050501,-3.6379056,0.015244,0.3811,-1.737816,105.9,-170.1,-22.5,,,x,,,
1457650,-1.2913907,8.933266,-3.1659708,0.213416,-2.2713559,-0.548784,105.9,-174.90001,-27.300001,,,x,,,
1457690,-0.4133168,8.799281,-2.075556,-0.358234,-0.3811,-0.663114,117.9,-167.70001,-23.7,,,,,,
1457710,-0.32359535,8.6437645,-2.7460744,0.40396598,1.989342,-0.259148,115.50001,-174.90001,-26.1,,,,,,
1457730,0.0,8.974537,-3.1982706,0.487808,1.280496,0.708846,120.3,-174.90001,-23.1,,,,,,
1457771,0.5933578,9.636682,-2.5546687,0.099086,-0.449698,0.579272,108.3,-165.3,-21.900002,,,,,,
1457791,0.64180744,9.312488,-2.7807667,0.0,0.41921,-0.33536798,98.700005,-172.5,-15.3,,,,,,
1457831,1.2596891,9.462622,-2.9632003,-0.15244,-1.3643379,0.655492,115.50001,-167.70001,-21.900002,,,,,,
1457852,1.4373375,9.433911,-2.423077,-0.853664,-2.187514,0.746956,105.9,-172.5,-30.300001,,,,,,
1457872,1.032993,8.975734,-2.1467352,-1.3872039,-0.72409,0.030488,108.3,-165.3,-21.900002,,,,,,
1457892,1.1239107,8.704177,-2.652764,-0.754578,0.137196,-0.47256398,108.3,-160.5,-15.3,,,,,,
1457915,1.276437,8.885414,-2.484686,-0.625004,-1.432936,-0.426832,110.700005,-172.5,-19.5,,,,,,
1457935,1.0987886,8.72571,-2.0420601,-0.746956,-1.036592,-0.868908,113.100006,-172.5,-25.500002,,,,,,
1457955,0.7458843,8.576772,-2.3028505,-0.434454,-0.015244,-1.25763,117.9,-170.1,-21.900002,,,,,,
1458018,-2.0653877,9.198841,-2.836992,0.34298998,0.45731997,0.541162,125.100006,-165.3,-24.900002,,,,,,
1458124,-5.3067245,11.182282,-5.359361,1.1204339,-1.29574,-0.160062,101.100006,-179.70001,-15.900001,,,,,,
1458144,-5.108141,10.445371,-5.108141,-0.160062,-3.2012398,-0.45731997,120.3,-158.1,-21.300001,,,,,,
1458188,-2.8387866,8.187979,-3.8759665,1.3872039,-7.3933396,-4.30643,105.9,-162.90001,-28.500002,,,x,,,
1458208,-2.0151436,7.1729307,-3.3208897,1.707328,-8.940606,-5.647902,120.3,-165.3,-23.7,,,x,,,
1458230,-0.49047723,6.814643,-2.4242735,1.48629,-10.922326,-4.550334,127.50001,-172.5,-17.1,,,x,,,
1458250,0.47073853,6.848139,-0.6711164,-0.731712,-10.655556,-2.7058098,141.90001,-155.70001,-20.1,,,x,,,
1458271,0.21772404,6.5466747,0.25720146,-1.326228,-3.2545938,-1.661596,141.90001,-162.90001,-23.7,,,x,,,
1458292,0.001196286,6.652546,-1.594051,-0.480186,3.567096,-0.891774,127.50001,-158.1,-26.1,,,x,,,
1458312,0.76323044,6.948627,-2.6635306,0.251526,1.669218,1.021348,137.1,-167.70001,-21.900002,,,x,,,
1458332,1.116733,7.6927166,-2.4535825,0.3811,0.67835796,2.187514,132.3,-174.90001,-19.5,,,x,,,
1458352,2.0935004,9.27002,-2.3076355,0.11432999,1.532022,3.368924,129.90001,-170.1,-24.300001,,,x,,,
1458372,3.5380156,9.568493,-2.4093199,-0.106708,1.699706,2.6677,146.70001,-158.1,-21.300001,,,x,,,
1458392,4.0434465,10.237815,-2.2705507,-0.56402797,3.2012398,3.6814258,122.700005,-172.5,-25.500002,,,x,,,
1458413,4.4256597,10.917904,-2.6958303,-0.503052,4.4664917,4.15399,122.700005,-162.90001,-20.1,,,x,,,
1458435,4.542298,10.051793,-3.2054482,-0.388722,3.6738038,1.684462,129.90001,-165.3,-15.900001,,,x,,,
1458455,5.4819803,11.596198,-3.3244786,-0.243904,1.204276,3.2927039,115.50001,-165.3,-12.900001,,,x,,,
1458475,5.6327124,11.717023,-2.041462,-2.149404,0.853664,1.5244,113.100006,-174.90001,-18.300001,,,x,,,
1458496,5.319884,10.324546,-2.2232974,-1.951232,3.460388,-0.11432999,120.3,-172.5,-26.1,,,x,,,
1458517,5.1326647,10.754611,-3.4381258,0.320124,4.580822,0.739334,103.50001,-174.90001,-18.900002,,,x,,,
1458538,5.609983,11.655414,-3.928603,0.106708,2.2484899,0.983238,115.50001,-172.5,-22.5,,,x,,,
1458562,5.72363,11.320454,-2.8387866,-1.3414719,-1.547266,0.365856,110.700005,-172.5,-23.1,,,x,,,
1458582,5.392259,10.695992,-1.606612,-1.920744,0.053354,-0.891774,110.700005,-165.3,-22.5,,,x,,,
1458604,5.0393543,10.076915,-3.075053,-0.099086,3.4299,-2.873494,113.100006,-165.3,-14.1,,,x,,,
1458624,4.584766,9.312488,-3.1683633,0.083841994,1.585376,-2.40093,115.50001,-165.3,-12.900001,,,x,,,
1458646,3.7647119,8.498415,-2.530743,-0.777444,0.396344,-1.158544,117.9,-158.1,-23.7,,,x,,,
1458666,3.852639,8.5899315,-2.6605399,-1.310984,1.577754,0.160062,108.3,-162.90001,-18.300001,,,x,,,
1458750,2.2663636,7.132855,-1.5713216,-1.326228,0.92226195,-1.051836,108.3,-170.1,-24.900002,,,x,,,
1458844,-1.6628375,7.7417645,-3.14683,0.579272,1.928366,-0.72409,120.3,-165.3,-19.5,,,,,,
1458864,-1.7286332,9.11211,-3.6444852,0.99086,1.75306,0.41158798,113.100006,-170.1,-16.5,,,,,,
1458904,-1.2866055,10.59371,-3.5589507,0.129574,-1.29574,-0.87653,115.50001,-155.70001,-20.1,,,,,,
1458924,-2.4105163,8.836366,-2.5319393,-0.487808,-1.051836,-2.187514,125.100006,-155.70001,-24.900002,,,,,,
1458944,-3.017033,9.040931,-2.920732,0.0,2.7820299,-1.006104,120.3,-167.70001,-16.5,,,,,,
1458964,-2.8280199,10.157065,-3.9381733,0.80793196,3.7500238,-0.26677,117.9,-165.3,-19.5,,,,,,
1459046,-3.0983806,8.771767,-3.552371,0.731712,0.47256398,-0.579272,129.90001,-177.3,-15.3,,,,,,
1459092,-2.5887628,7.7848306,-3.460257,0.541162,-1.44818,-1.48629,144.3,-165.3,-21.300001,,,,,,
1459112,-2.1108465,8.246597,-3.476407,0.594516,-2.149404,-0.213416,125.100006,-162.90001,-19.5,,,,,,
1459153,-0.6364241,8.716738,-2.5863702,-0.92226195,-2.080806,-0.22865999,141.90001,-172.5,-14.700001,,,,,,
1459208,-0.656761,8.853712,-2.936882,-0.983238,2.599102,-0.106708,120.3,-158.1,-12.900001,,,,,,
1459230,-0.32359535,8.877638,-2.6719046,-0.92988396,1.3795819,-0.160062,132.3,-150.90001,-26.7,,,,,,
1459270,-0.20097604,9.743749,-2.8483567,-0.442076,3.0488,-0.99086,134.70001,-155.70001,-28.500002,,,,,,
1459293,-0.29727706,9.034351,-3.3430212,0.11432999,1.9131219,-1.56251,129.90001,-160.5,-18.300001,,,,,,
1459313,-0.006579573,9.435705,-3.380106,0.23628199,0.94512796,-1.059458,132.3,-174.90001,-15.900001,,,,,,
1459333,0.013159146,9.53739,-3.3298619,-0.07622,0.92988396,-1.280496,137.1,-165.3,-20.1,,,,,,
1459353,0.18183546,8.826198,-3.4865754,0.33536798,0.92988396,-1.821658,137.1,-150.90001,-19.5,,,,,,
1459373,0.19379832,8.810048,-3.4369295,0.198172,0.0,-1.059458,129.90001,-155.70001,-20.7,,,x,,,
1459393,0.70640683,9.596007,-3.439322,0.35061198,0.243904,-0.998482,144.3,-162.90001,-18.900002,,,x,,,
1459416,0.5801987,9.005641,-3.2455237,-0.129574,0.716468,-1.493912,137.1,-170.1,-18.900002,,,x,,,
1459456,0.43664438,9.281982,-3.3358433,-0.221038,2.2942219,-1.730194,141.90001,-162.90001,-21.300001,,,x,,,
1459509,0.19918162,9.485352,-2.9015915,-0.586894,0.22865999,-0.68597996,141.90001,-158.1,-20.1,,,x,,,
1459529,-0.3702505,8.134745,-2.263373,-1.471046,0.33536798,-1.585376,139.5,-162.90001,-18.900002,,,x,,,
1459569,-1.4953574,8.972743,-2.627044,-1.25763,1.493912,0.34298998,139.5,-158.1,-17.7,,,x,,,
1459612,-4.5411015,9.454247,-3.1199138,-1.8369019,3.01069,2.111294,141.90001,-158.1,-20.7,,,x,,,
1459707,-7.070648,10.0153055,-6.709968,-2.073184,-4.30643,4.024416,132.3,-162.90001,-20.7,,,x,,,
1459767,-3.6618314,6.983917,-2.8609178,-0.739334,-7.5305357,1.44818,127.50001,-165.3,-21.300001,,,x,,,
1459827,0.8529519,6.543684,-1.0276096,0.655492,-2.355198,5.29729,115.50001,-179.70001,-19.5,,,x,,,
1459872,2.8974047,6.0765343,-1.8805615,-1.951232,0.579272,6.806446,101.100006,-177.3,-20.1,,,x,,,
1459893,4.999877,6.2356405,-1.8548414,-1.6082419,-1.440558,8.993959,84.3,-174.90001,-26.7,,,x,,,
1459933,6.4276443,9.320862,-0.6974347,-1.692084,0.03811,9.45128,79.5,-174.90001,-18.900002,,,x,,,
1459955,7.3278494,9.949511,-1.711287,-0.503052,1.8826339,7.339986,67.5,-174.90001,-20.1,,,x,,,
1459975,7.282989,10.216282,-1.5246664,-0.373478,0.129574,5.769854,62.7,-172.5,-22.5,,,x,,,
1459998,6.235042,9.008033,-1.4510949,0.47256398,1.814036,3.993928,55.500004,-189.3,-16.5,,,x,,,
1460018,6.095675,9.61754,-1.7411942,1.280496,1.288118,3.399412,50.7,-189.3,-29.1,,,x,,,
1460040,6.221285,10.640964,-1.9331981,1.3490939,1.051836,2.835384,48.300003,-184.5,-29.7,,,x,,,
1460063,6.776362,9.700683,-1.9290111,0.82317597,1.272874,2.111294,43.5,-179.70001,-23.7,,,x,,,
1460083,7.677763,9.09297,-2.0169382,1.5244,1.6539739,2.980202,38.7,-172.5,-20.1,,,x,,,
1460103,8.267532,11.519635,-3.3292637,1.272874,2.2865999,3.346058,43.5,-179.70001,-20.1,,,x,,,
1460124,8.677858,11.285762,-3.468631,0.708846,1.272874,2.126538,31.500002,-184.5,-18.900002,,,x,,,
1460144,9.3244505,10.2097025,-2.438629,-0.15244,-1.211898,0.67835796,31.500002,-174.90001,-17.1,,,x,,,
1460164,9.620531,9.327441,-1.9846383,-0.95274997,-0.853664,0.23628199,29.1,-182.1,-24.900002,,,x,,,
1460184,9.536194,8.562417,-1.7639236,-0.746956,0.289636,-0.594516,36.300003,-179.70001,-19.5,,,x,,,
1460207,8.392544,8.535501,-1.2991666,0.221038,0.053354,-3.6966698,26.7,-165.3,-22.5,,,x,,,
1460228,7.9044595,8.291458,-1.192697,0.792688,0.586894,-5.762232,29.1,-177.3,-20.1,,,x,,,
1460248,6.543086,7.2650447,-1.0802462,1.1204339,0.632626,-7.4238276,48.300003,-170.1,-27.300001,,,x,,,
1460268,5.275023,6.790119,-1.3189052,1.166166,1.1432999,-7.134192,55.500004,-172.5,-23.1,,,x,,,
1460290,3.9148457,6.062777,-1.2321745,0.92226195,0.53354,-6.4024796,62.7,-189.3,-23.1,,,x,,,
1460310,2.5450983,5.773276,-1.6347247,0.47256398,1.8978779,-5.4878397,55.500004,-182.1,-26.1,,,x,,,
1460330,1.5820881,5.6129737,-2.4649472,0.87653,2.7591639,-5.061008,67.5,-172.5,-15.900001,,,x,,,
1460351,0.6896588,6.819428,-3.1593912,1.303362,1.935988,-4.176856,81.9,-172.5,-26.7,,,x,,,
1460371,-0.29009935,7.710063,-3.3747227,0.907018,1.3872039,-4.672286,79.5,-182.1,-16.5,,,x,,,
1460391,-0.76323044,7.2704277,-3.2144203,-0.022866,0.49543,-6.242418,96.3,-162.90001,-20.1,,,x,,,
1460411,-1.53962,6.8888125,-2.5534723,0.068598,0.34298998,-6.6311398,98.700005,-172.5,-19.5,,,x,,,
1460431,-2.2484195,9.076819,-3.3920689,0.480186,3.414656,-5.266802,98.700005,-184.5,-22.5,,,x,,,
1460451,-2.7299244,9.4321165,-4.594336,1.326228,4.87808,-5.9375377,91.5,-165.3,-24.300001,,,x,,,
1460471,-2.9548264,8.654531,-4.787536,0.731712,0.434454,-5.64028,105.9,-179.70001,-20.7,,,x,,,
1460491,-3.176139,8.607277,-3.5966337,0.060976,-2.385686,-4.489358,110.700005,-167.70001,-14.1,,,x,,,
1460511,-3.564334,9.438696,-3.6432889,1.013726,0.41921,-3.521364,117.9,-167.70001,-18.300001,,,x,,,
1460531,-3.3089268,10.524325,-4.581775,1.493912,1.8369019,-2.93447,120.3,-162.90001,-14.1,,,x,,,
1460551,-3.0971844,10.26832,-4.5997195,0.769822,-0.34298998,-3.498498,122.700005,-158.1,-23.1,,,x,,,
1460571,-2.9943037,10.085289,-4.0344744,0.777444,-1.33385,-2.8048959,120.3,-158.1,-15.900001,,,x,,,
1460591,-3.0744548,9.79818,-3.84905,0.320124,-0.068598,-2.530504,120.3,-158.1,-15.900001,,,x,,,
1460615,-2.187409,9.64685,-3.8628073,0.388722,-1.089946,-1.684462,125.100006,-146.1,-19.5,,,x,,,
1460635,-1.6700152,9.530212,-3.1910927,-0.312502,-1.928366,-1.684462,120.3,-162.90001,-15.3,,,x,,,
1460655,-1.4122156,9.085194,-2.9524338,-0.358234,-0.22865999,-1.471046,134.70001,-153.3,-14.1,,,x,,,
1460675,-1.0383762,8.67427,-3.2945714,-0.160062,0.586894,-1.1204339,132.3,-160.5,-21.900002,,,x,,,
1460699,-0.5473008,8.726906,-3.0798383,-0.137196,-0.60976,-0.503052,129.90001,-165.3,-12.3,,,x,,,
1460719,-0.30684733,8.944032,-2.7382984,-0.053354,-0.45731997,-0.487808,132.3,-160.5,-19.5,,,x,,,
1460779,-0.13996546,8.945827,-3.7198513,0.47256398,0.617382,-1.089946,127.50001,-158.1,-14.700001,,,x,,,
1460800,0.37084866,8.770571,-3.6068022,0.67835796,-1.250008,-0.82317597,137.1,-155.70001,-11.1,,,x,,,
1460820,0.52935654,9.134241,-2.9434617,-0.327746,-2.301844,0.373478,134.70001,-160.5,-21.300001,,,,,,
1460840,0.41092423,9.116895,-2.7843556,-0.67835796,0.053354,-0.320124,144.3,-158.1,-15.900001,,,,,,
1460860,0.15432088,8.659316,-3.3352451,-0.594516,1.1356779,-0.907018,127.50001,-158.1,-18.300001,,,,,,
1460880,0.028710863,8.665895,-3.3962557,-0.518296,0.487808,-0.861286,122.700005,-160.5,-17.1,,,,,,
1460943,-0.83560574,8.617446,-3.5380156,-0.632626,0.70122397,-0.625004,141.90001,-158.1,-17.7,,,x,,,
1460963,-1.1855193,8.563015,-3.3657506,-0.769822,0.007622,0.144818,134.70001,-158.1,-20.1,,,x,,,
1461007,-2.4876766,8.924891,-3.7623193,-0.625004,0.708846,0.7622,141.90001,-153.3,-11.1,,,x,,,
1461027,-3.590054,9.313684,-4.139149,-0.40396598,0.358234,0.907018,132.3,-155.70001,-12.900001,,,x,,,
1461047,-5.4813824,9.265833,-3.6091948,-0.983238,0.967994,-0.17530599,129.90001,-153.3,-21.900002,,,x,,,
1461068,-6.1698446,8.965565,-4.1098404,-0.35061198,3.1936178,-0.57164997,137.1,-150.90001,-21.900002,,,x,,,
1461089,-6.890009,9.657617,-5.840268,1.570132,5.625036,0.68597996,134.70001,-153.3,-20.1,,,x,,,
1461109,-6.7614083,11.344379,-7.4145803,1.425314,3.605206,2.492394,132.3,-155.70001,-12.3,,,x,,,
1461129,-6.1507044,10.674459,-7.216595,-0.297258,-2.6829438,0.907018,117.9,-153.3,-12.900001,,,x,,,
1461153,-3.5416045,9.513464,-4.3311534,-0.95274997,-10.891838,-1.18141,122.700005,-158.1,-15.900001,,,x,,,
1461173,-2.4529843,7.70767,-2.305243,-0.83842,-9.45128,-3.2393498,125.100006,-165.3,-19.5,,,x,,,
1461193,-1.6753985,7.0299745,-2.1688664,0.22865999,-5.061008,-3.2469718,129.90001,-160.5,-17.1,,,x,,,
1461213,-0.97377676,6.607087,-2.6641288,1.1204339,-2.89636,-2.583858,139.5,-158.1,-16.5,,,x,,,
1461233,-0.09450659,7.2016416,-2.4045348,1.158544,-4.923812,-1.585376,146.70001,-160.5,-17.1,,,x,,,
1461253,1.2668668,7.587444,-1.8674023,0.64787,-5.5488157,-1.318606,153.90001,-160.5,-15.900001,,,x,,,
1461273,2.083332,6.568806,-1.1891083,-0.289636,-4.939056,-0.884152,144.3,-155.70001,-18.900002,,,x,,,
1461293,3.1223063,7.125677,-1.3320644,-0.221038,-2.675322,1.8369019,144.3,-165.3,-19.5,,,x,,,
1461313,3.5116973,8.656923,-1.7699051,-0.785066,-0.365856,3.452766,141.90001,-160.5,-13.500001,,,x,,,
1461333,3.8646019,8.997865,-2.7209523,0.274392,1.8750119,2.7286758,139.5,-153.3,-24.300001,,,x,,,
1461353,4.3861823,9.367517,-3.3980503,0.69360197,-0.518296,3.018312,127.50001,-158.1,-19.5,,,x,,,
1461373,4.46753,10.2527685,-2.296869,-0.396344,-3.147886,3.50612,149.1,-158.1,-15.900001,,,x,,,
1461393,4.0673723,9.901659,-2.1329777,-0.388722,0.03811,2.2942219,129.90001,-165.3,-23.7,,,x,,,
1461433,3.259879,10.946614,-3.5326324,1.074702,0.510674,1.684462,117.9,-158.1,-18.900002,,,x,,,
1461453,3.191691,10.847921,-3.2407386,0.434454,-0.708846,0.15244,125.100006,-165.3,-23.1,,,x,,,
1461473,3.5105011,10.591916,-2.9901166,0.007622,-0.60976,0.358234,141.90001,-160.5,-17.1,,,x,,,
1461558,4.1229997,10.012914,-3.7754784,-0.93750596,1.082324,0.899396,122.700005,-160.5,-21.300001,,,x,,,
1461628,5.5836644,10.19774,-3.0469403,-1.8369019,0.579272,0.053354,115.50001,-167.70001,-17.7,,,x,,,
1461729,1.9762644,7.120892,-1.7806716,-0.95274997,3.7652678,-0.998482,125.100006,-155.70001,-24.900002,,,x,,,
1461749,0.96659905,6.149508,-1.9589182,-0.754578,3.856732,-1.6158639,125.100006,-150.90001,-15.3,,,x,,,
1461789,-1.5222739,6.7051826,-2.8106737,-0.03811,3.833866,-0.053354,139.5,-162.90001,-15.900001,,,x,,,
1461812,-2.4996395,7.4026175,-3.3807042,0.182928,4.0777698,-1.158544,125.100006,-162.90001,-18.900002,,,x,,,
1461832,-3.0798383,7.902665,-3.7503564,0.69360197,2.843006,-1.768304,132.3,-160.5,-12.900001,,,x,,,
1461852,-3.509903,9.50509,-3.844863,0.449698,1.707328,-1.463424,108.3,-158.1,-17.1,,,x,,,
1461912,-3.8927145,10.466306,-4.0350723,0.243904,-0.297258,-2.2180018,134.70001,-153.3,-17.1,,,x,,,
1461932,-3.6887476,10.496213,-4.099074,0.358234,-0.28201398,-2.32471,134.70001,-158.1,-20.1,,,x,,,
1461972,-3.1462321,9.931566,-3.886733,0.030488,-0.95274997,-1.56251,139.5,-160.5,-21.900002,,,x,,,
1461995,-2.982939,9.664196,-3.9274068,0.518296,-0.40396598,-1.9054999,149.1,-153.3,-16.5,,,x,,,
1462015,-2.673101,9.061866,-3.9417622,0.868908,-0.69360197,-1.8292799,146.70001,-170.1,-18.300001,,,x,,,
1462035,-1.9989938,9.054688,-3.65585,0.68597996,-0.70122397,-1.044214,141.90001,-160.5,-18.300001,,,x,,,
1462098,-0.8685036,8.215494,-3.5511749,0.41158798,0.716468,-0.56402797,151.5,-143.70001,-17.1,,,,,,
1462138,-0.5209825,9.016407,-3.0475385,-0.129574,0.198172,-0.60976,139.5,-160.5,-15.3,,,,,,
1462178,-0.28830492,9.361536,-3.0445478,-0.67835796,-1.013726,-0.68597996,146.70001,-155.70001,-24.300001,,,,,,
1462391,-2.8411791,8.615651,-3.6809719,-0.640248,0.94512796,0.045732,156.3,-148.5,-14.700001,,,,,,
1462412,-3.7336085,8.251382,-3.6869533,-0.99086,0.731712,0.503052,153.90001,-160.5,-15.3,,,,,,
1462452,-5.6464696,9.473389,-4.313209,-0.830798,1.9131219,1.471046,144.3,-155.70001,-17.7,,,,,,
1462508,-6.5323195,10.201926,-6.0753384,0.129574,-0.41921,2.949714,141.90001,-155.70001,-24.300001,,,x,,,
1462528,-6.0256925,9.615149,-6.034066,-1.21952,-1.669218,3.2469718,149.1,-146.1,-12.900001,,,x,,,
1462569,-4.5094,8.838758,-4.672693,-1.326228,-4.9543,2.660078,141.90001,-158.1,-20.1,,,x,,,
1462611,-2.8094776,7.1860895,-3.0870159,-0.731712,-3.8262439,1.3490939,127.50001,-167.70001,-20.1,,,x,,,
1462631,-2.2496157,6.0777307,-2.682073,-0.434454,-3.35368,1.3643379,127.50001,-167.70001,-18.900002,,,x,,,
1462672,1.0174412,7.936161,-1.6203693,-1.509156,-4.641798,4.314052,129.90001,-160.5,-17.7,,,x,,,
1462712,4.096681,7.3774953,-1.3535975,-1.9054999,-1.25763,4.923812,122.700005,-150.90001,-24.300001,,,x,,,
1462808,4.3496957,9.145008,-1.836299,0.068598,1.570132,2.050318,105.9,-160.5,-22.5,,,x,,,
1462829,3.9884174,9.545764,-2.6079032,1.6082419,1.570132,1.56251,101.100006,-177.3,-20.7,,,x,,,
1462871,4.038063,10.234226,-2.9757612,1.989342,-0.060976,1.501534,86.700005,-174.90001,-19.5,,,x,,,
1462911,4.57699,9.769469,-4.5321293,1.9054999,2.812518,1.6082419,84.3,-174.90001,-17.1,,,x,,,
1462931,4.910156,10.12656,-4.971166,1.3948259,0.396344,2.576236,103.50001,-170.1,-21.300001,,,x,,,
1462951,5.6231422,11.257648,-4.243226,-0.091464,-1.6311079,3.2012398,96.3,-170.1,-17.7,,,x,,,
1462993,6.418672,10.294041,-3.5625396,-1.6006199,0.47256398,2.431418,77.100006,-184.5,-23.1,,,x,,,
1463015,6.8170357,11.417952,-3.7042994,-2.027452,0.487808,2.7667859,89.100006,-167.70001,-16.5,,,x,,,
1463035,6.359456,10.370603,-3.1324747,-2.195136,0.030488,0.274392,86.700005,-167.70001,-21.900002,,,x,,,
1463055,6.798493,10.267124,-2.8256273,-2.004586,-0.602138,-0.213416,91.5,-177.3,-23.1,,,x,,,
1463075,6.811652,10.538083,-2.2514102,-2.888738,-1.158544,-1.204276,86.700005,-165.3,-24.900002,,,x,,,
1463115,5.317491,9.371106,-1.7130815,-2.073184,0.548784,-3.902464,84.3,-170.1,-19.5,,,x,,,
1463135,4.4065194,8.04921,-1.2913907,-1.577754,-0.388722,-4.679908,89.100006,-182.1,-19.5,,,x,,,
1463158,3.8663962,7.7351847,-1.0288059,-1.082324,-0.28201398,-3.605206,101.100006,-167.70001,-12.900001,,,x,,,
1463178,3.3334508,7.4857593,-1.0317966,-1.1280559,0.327746,-2.97258,98.700005,-162.90001,-21.300001,,,x,,,
1463219,1.3870935,6.387569,-1.0856295,-0.525918,1.173788,-3.01069,110.700005,-186.90001,-22.5,,,x,,,
1463279,-0.9911229,7.2106137,-2.4188902,0.548784,1.204276,-3.2164838,115.50001,-174.90001,-20.1,,,x,,,
1463299,-1.4283655,7.4121876,-2.2597842,0.72409,0.64787,-2.995446,117.9,-179.70001,-20.7,,,x,,,
1463321,-1.8841504,7.8966837,-2.4368346,0.81555396,0.87653,-2.2256238,120.3,-172.5,-18.900002,,,x,,,
1463342,-2.5110042,8.357852,-2.4822934,0.297258,1.8826339,-2.347576,132.3,-167.70001,-21.900002,,,x,,,
1463362,-2.9009933,8.1473055,-3.222196,1.021348,3.39179,-3.056422,115.50001,-158.1,-20.7,,,x,,,
1463382,-3.4871736,8.948219,-3.8334982,1.3795819,2.370442,-1.974098,120.3,-189.3,-20.1,,,x,,,
1463402,-3.65585,9.368115,-3.815554,0.731712,1.29574,-1.9131219,117.9,-158.1,-21.300001,,,x,,,
1463462,-3.8687887,9.99138,-4.404725,0.754578,0.47256398,-0.830798,129.90001,-158.1,-15.3,,,x,,,
1463484,-3.0475385,10.738461,-4.505811,0.640248,-0.28201398,-0.46494198,127.50001,-150.90001,-20.1,,,x,,,
1463504,-2.669512,9.953099,-3.5882597,0.07622,-0.487808,-1.539644,122.700005,-165.3,-17.1,,,x,,,
1463525,-2.6790824,9.612756,-3.614578,0.03811,0.182928,-1.71495,129.90001,-150.90001,-17.7,,,,,,
1463545,-2.4685361,8.892591,-3.7581322,0.35061198,0.56402797,-1.8445239,120.3,-165.3,-16.5,,,,,,
1463626,-1.5366293,8.645558,-3.4865754,0.030488,0.297258,-0.53354,141.90001,-158.1,-20.1,,,,,,
1463646,-1.2782315,8.755018,-3.1970742,-0.129574,-0.64787,0.144818,137.1,-170.1,-17.1,,,,,,
1463666,-0.95284176,9.240112,-3.2036538,-0.137196,-0.49543,0.41921,139.5,-153.3,-17.7,,,,,,
1463706,-0.5849838,8.583352,-3.267057,-0.213416,-0.35061198,-0.617382,137.1,-165.3,-18.900002,,,,,,
1463766,0.080151156,8.826796,-2.9990888,-0.160062,-0.022866,-0.67835796,139.5,-160.5,-17.1,,,,,,
1463786,0.05024401,8.9787245,-3.091203,-0.121952,0.388722,-0.7622,149.1,-160.5,-18.300001,,,,,,
1463806,-0.16389118,9.101343,-3.250907,-0.137196,0.640248,-0.55640596,129.90001,-155.70001,-21.900002,,,,,,
1463826,-0.82364285,8.961378,-3.2891881,-0.49543,1.4024479,-0.960372,139.5,-158.1,-15.3,,,,,,
1463846,-1.192697,8.354263,-3.522464,-0.320124,1.478668,-0.625004,134.70001,-155.70001,-20.1,,,,,,
1463870,-1.8045974,8.667689,-3.3866856,-0.586894,0.853664,0.243904,137.1,-160.5,-18.900002,,,,,,
1463890,-2.6838675,9.312488,-3.619363,-0.53354,1.71495,0.274392,146.70001,-158.1,-18.900002,,,,,,
1463975,-6.3540726,10.330527,-6.0896935,0.64787,3.094532,1.044214,144.3,-172.5,-14.1,,,,,,
1464070,-4.0153337,6.9970765,-3.8969014,-0.17530599,-1.8369019,0.30488,129.90001,-162.90001,-12.900001,,,,,,
1464090,-3.0068648,5.966476,-3.5045197,-0.40396598,-3.437522,1.21952,141.90001,-160.5,-19.5,,,,,,
1464132,-0.899607,6.7751656,-1.9427683,-1.585376,-3.589962,4.0015497,132.3,-158.1,-19.5,,,x,,,
1464153,0.34991363,6.3451004,-1.5330404,-1.9131219,-2.7210538,3.6661818,129.90001,-158.1,-21.300001,,,x,,,
1464173,1.7035112,6.5071974,-1.192099,-2.469528,-3.4299,4.618932,125.100006,-155.70001,-24.900002,,,x,,,
1464193,2.8537402,6.6746774,-0.5682358,-2.378064,-2.32471,5.8918056,113.100006,-158.1,-16.5,,,x,,,
1464213,3.6151762,7.781242,-0.6591536,-2.080806,-0.198172,7.27901,113.100006,-158.1,-15.3,,,x,,,
1464253,4.9651847,9.400414,-1.2836149,-1.56251,1.79117,6.638762,103.50001,-170.1,-22.5,,,x,,,
1464273,5.3892684,10.213889,-1.489376,-1.493912,2.2484899,7.0655937,103.50001,-162.90001,-21.300001,,,x,,,
1464293,5.3755107,10.148692,-1.5473958,-1.6082419,2.980202,5.22107,93.9,-167.70001,-20.7,,,x,,,
1464313,5.659629,9.146204,-2.1951847,-0.67835796,3.338436,4.771372,84.3,-170.1,-20.7,,,x,,,
1464333,6.731501,10.76119,-2.6551566,-0.129574,2.050318,6.654006,79.5,-162.90001,-23.7,,,x,,,
1464354,7.0180116,10.984896,-2.3142152,-0.525918,0.884152,4.83997,79.5,-182.1,-29.7,,,x,,,
1464377,6.5042067,9.852013,-2.2376528,-0.259148,0.754578,2.957336,84.3,-165.3,-21.900002,,,x,,,
1464420,7.250689,10.042821,-2.7012136,0.060976,-0.07622,1.326228,62.7,-177.3,-22.5,,,x,,,
1464440,7.078424,10.360435,-2.8543382,0.053354,-0.20579399,1.669218,65.100006,-182.1,-22.5,,,x,,,
1464463,7.087396,10.428024,-2.9811447,0.60976,-0.7622,-1.3414719,60.300003,-182.1,-23.1,,,x,,,
1464483,7.978629,10.3825655,-2.3656554,0.068598,-1.94361,-1.280496,57.9,-174.90001,-20.1,,,x,,,
1464503,7.368523,9.491333,-1.5491903,-1.6387299,-0.396344,-1.6311079,74.700005,-182.1,-23.7,,,x,,,
1464523,6.974347,10.312583,-2.4739194,-0.899396,1.471046,-2.027452,72.3,-189.3,-20.1,,,x,,,
1464543,6.4832716,9.25387,-2.2693543,-0.35061198,0.449698,-4.131124,74.700005,-172.5,-18.900002,,,x,,,
1464563,6.5843577,8.973939,-1.5121055,-0.94512796,-1.41007,-3.513742,48.300003,-189.3,-22.5,,,x,,,
1464586,6.361849,8.271719,-0.7901469,-1.3719599,-0.091464,-3.414656,67.5,-177.3,-23.7,,,x,,,
1464607,5.6464696,8.003751,-0.89422375,-1.1128119,1.25763,-4.070148,74.700005,-174.90001,-18.900002,,,x,,,
1464627,4.6714964,7.5407887,-1.0993868,-0.106708,0.99086,-4.817104,79.5,-172.5,-26.7,,,x,,,
1464647,3.7635155,7.0275817,-0.78835243,0.274392,0.129574,-4.83997,79.5,-174.90001,-18.900002,,,x,,,
1464669,2.5995293,6.383382,-0.77280074,0.129574,0.030488,-4.390272,96.3,-165.3,-18.900002,,,x,,,
1464689,1.2596891,6.173434,-1.2243986,0.548784,1.310984,-4.11588,98.700005,-165.3,-19.5,,,x,,,
1464709,-0.34153965,6.4599442,-2.0606024,1.059458,2.035074,-4.5274677,86.700005,-170.1,-21.900002,,,x,,,
1464729,-2.1778386,6.726716,-3.0026777,1.570132,2.843006,-4.718018,103.50001,-160.5,-18.900002,,,x,,,
1464751,-2.736504,7.64008,-4.176832,1.8750119,0.746956,-3.7424018,101.100006,-167.70001,-23.1,,,x,,,
1464771,-2.7688038,8.46791,-4.0105486,1.48629,-1.798792,-2.987824,117.9,-167.70001,-28.500002,,,x,,,
1464791,-3.263468,9.224561,-3.627139,0.731712,-1.036592,-2.423796,98.700005,-162.90001,-16.5,,,x,,,
1464811,-3.4494905,9.680346,-3.982436,0.030488,0.91463995,-2.309466,117.9,-170.1,-17.1,,,x,,,
1464831,-3.4488924,8.840553,-4.233058,0.22865999,0.754578,-2.903982,117.9,-162.90001,-18.900002,,,x,,,
1464851,-3.6917384,9.001453,-3.9818377,0.221038,0.060976,-2.035074,125.100006,-150.90001,-16.5,,,x,,,
1464916,-3.342423,9.3998165,-3.936379,0.365856,0.20579399,-1.455802,120.3,-155.70001,-24.300001,,,x,,,
1464936,-2.9261155,9.42793,-3.6995144,0.33536798,0.007622,-1.250008,113.100006,-172.5,-19.5,,,x,,,
1464958,-2.5301447,9.438696,-3.526651,0.144818,-0.28201398,-1.1356779,120.3,-167.70001,-21.300001,,,x,,,
1464978,-2.2304752,9.436902,-3.1731484,-0.289636,-0.259148,-1.242386,127.50001,-167.70001,-28.500002,,,x,,,
1464998,-1.828523,9.051698,-3.0391645,-0.442076,0.160062,-1.417692,125.100006,-162.90001,-23.7,,,x,,,
1465018,-1.4732262,9.02837,-3.099577,-0.327746,0.312502,-1.051836,132.3,-160.5,-17.1,,,x,,,
1465038,-1.0922091,9.209607,-3.0684733,-0.121952,0.03811,-0.594516,134.70001,-160.5,-21.900002,,,x,,,
1465058,-0.69564027,9.509875,-3.0935955,0.060976,0.068598,-0.525918,139.5,-160.5,-17.7,,,x,,,
1465078,-0.59275967,9.383069,-3.1145306,0.11432999,0.015244,-0.548784,120.3,-165.3,-17.7,,,x,,,
1465098,-0.57840425,8.851319,-3.0469403,0.030488,-0.07622,-0.503052,125.100006,-160.5,-18.900002,,,x,,,
1465118,-0.1321896,8.8704605,-3.1330729,-0.007622,-0.41921,0.091464,125.100006,-160.5,-15.3,,,x,,,
1465138,-0.040075578,9.203626,-3.1438394,-0.15244,-0.480186,0.106708,127.50001,-167.70001,-17.7,,,x,,,
1465160,0.079553016,8.872254,-3.1282878,-0.259148,0.045732,-0.259148,127.50001,-165.3,-19.5,,,,,,
1465181,0.3134269,9.033155,-3.3268712,-0.221038,-0.274392,0.11432999,129.90001,-158.1,-14.700001,,,,,,
1465241,0.19200389,9.040931,-3.1133342,-0.11432999,0.41921,-1.097568,137.1,-153.3,-25.500002,,,,,,
1465268,0.13817103,8.622231,-2.8932176,-0.41921,-0.449698,-0.891774,137.1,-165.3,-21.300001,,,,,,
1465288,0.09630102,8.498415,-2.6892507,-0.46494198,-0.57164997,-0.82317597,149.1,-165.3,-22.5,,,,,,
1465328,-1.4756187,8.105435,-2.4493954,-0.19055,2.088428,-0.80030996,129.90001,-162.90001,-17.1,,,,,,
1465348,-2.9853315,8.110221,-3.3226843,0.632626,3.635694,-0.091464,125.100006,-150.90001,-17.7,,,x,,,
1465368,-5.0602894,9.127064,-3.9417622,1.669218,4.321674,-0.15244,132.3,-155.70001,-24.900002,,,x,,,
1465388,-6.011935,10.865865,-5.3539777,3.35368,6.9436417,-0.617382,137.1,-165.3,-11.700001,,,x,,,
1465408,-6.8230166,10.844931,-7.3619437,4.794238,7.43145,-2.416174,129.90001,-158.1,-10.5,,,x,,,
1465428,-7.090387,9.386658,-8.700587,3.7119138,1.6463519,-2.050318,125.100006,-146.1,-18.300001,,,x,,,
1465451,-6.4276443,8.826198,-7.296148,0.28201398,-7.690598,-0.22865999,141.90001,-162.90001,-16.5,,,x,,,
1465511,-2.948845,7.1525936,-2.8770678,0.46494198,-5.846074,-3.6890478,146.70001,-153.3,-11.700001,,,x,,,
1465531,-2.2185123,6.3253617,-2.5881646,0.0,-5.289668,-3.071666,146.70001,-146.1,-17.7,,,x,,,
1465554,-0.88465345,6.9378605,-2.2364566,-0.099086,-5.686012,-0.983238,151.5,-158.1,-10.5,,,x,,,
1465574,0.573021,6.930084,-1.2214079,-1.18141,-6.242418,-0.19055,151.5,-160.5,-12.900001,,,x,,,
1465597,0.99172103,7.2237725,0.112450875,-1.25763,-1.6539739,1.44818,149.1,-153.3,-19.5,,,x,,,
1465617,1.3924768,7.5916305,-1.074863,-0.365856,3.513742,2.62959,144.3,-160.5,-20.7,,,x,,,
1465637,2.0384712,8.448172,-2.0354805,-0.137196,3.1783738,4.0167937,141.90001,-158.1,-25.500002,,,x,,,
1465657,2.242438,8.626418,-2.0402656,-0.388722,1.41007,3.39179,132.3,-162.90001,-17.1,,,x,,,
1465677,2.275934,8.425442,-2.149726,0.022866,1.455802,2.911604,144.3,-165.3,-23.1,,,x,,,
1465697,2.8046925,9.1838875,-2.7915332,0.45731997,2.850628,3.96344,134.70001,-160.5,-18.300001,,,x,,,
1465717,3.2975621,10.044615,-3.2700477,0.80030996,2.995446,3.384168,125.100006,-153.3,-20.7,,,x,,,
1465737,3.5864654,10.164244,-3.8436668,1.501534,1.798792,2.2180018,117.9,-174.90001,-17.1,,,x,,,
1465758,4.171449,10.030259,-3.6391017,0.083841994,-0.289636,2.050318,134.70001,-158.1,-18.300001,,,x,,,
1465778,4.5452886,10.701974,-3.2497108,-0.47256398,-0.23628199,3.2927039,113.100006,-165.3,-14.1,,,x,,,
1465798,4.7055907,11.501093,-3.5966337,0.274392,3.4299,3.08691,127.50001,-160.5,-11.700001,,,x,,,
1465818,4.768994,11.171516,-4.6170654,0.41158798,3.460388,0.99086,125.100006,-160.5,-24.300001,,,x,,,
1465838,4.806079,10.57756,-4.111037,-0.69360197,-1.3872039,1.21952,113.100006,-165.3,-19.5,,,x,,,
1465858,5.4903545,11.152974,-2.7418873,-2.2180018,-1.9131219,2.195136,125.100006,-170.1,-17.7,,,x,,,
1465878,5.78165,11.280976,-3.0481365,-0.625004,2.179892,2.2027578,105.9,-167.70001,-18.900002,,,x,,,
1465898,5.334239,10.9191,-3.8089745,-0.426832,2.469528,1.272874,105.9,-160.5,-12.900001,,,x,,,
1465918,5.8163424,10.570382,-3.4746125,-1.272874,0.23628199,0.57164997,101.100006,-165.3,-18.900002,,,x,,,
1465938,6.238033,10.061363,-2.668316,-2.957336,-1.150922,0.243904,108.3,-162.90001,-18.300001,,,x,,,
1465958,5.753537,9.139625,-2.3285706,-1.516778,0.777444,0.213416,115.50001,-172.5,-21.300001,,,x,,,
1465978,5.437718,9.490734,-3.0882123,-0.312502,1.516778,-0.33536798,105.9,-177.3,-18.900002,,,x,,,
1466001,5.1027575,8.980518,-2.9261155,-0.320124,-0.777444,-2.454284,110.700005,-160.5,-22.5,,,x,,,
1466021,4.747461,8.548061,-2.0988836,-0.87653,-3.018312,-3.2317278,110.700005,-167.70001,-21.900002,,,x,,,
1466041,4.0595965,7.79799,-1.527059,-1.768304,-2.164648,-3.12502,125.100006,-155.70001,-8.700001,,,x,,,
1466061,2.8232348,6.927094,-1.786055,-1.3795819,-0.053354,-2.93447,120.3,-158.1,-22.5,,,x,,,
1466081,2.050434,7.019806,-2.330365,-1.036592,0.594516,-1.730194,113.100006,-165.3,-20.1,,,x,,,
1466105,0.4384388,6.606489,-2.0905097,-1.5244,-0.030488,-1.737816,122.700005,-167.70001,-15.900001,,,x,,,
1466126,-0.820054,6.250594,-2.1437445,-1.33385,1.3643379,-1.806414,129.90001,-170.1,-20.7,,,x,,,
1466168,-2.39317,7.326055,-3.1934853,-0.548784,2.339954,0.312502,132.3,-158.1,-22.5,,,x,,,
1466188,-3.0732586,8.366824,-3.2855992,-1.006104,1.760682,0.55640596,113.100006,-167.70001,-23.7,,,x,,,
1466208,-3.237748,9.135438,-3.2981603,-1.089946,1.532022,-0.297258,129.90001,-158.1,-23.7,,,x,,,
1466228,-4.0261,9.320264,-3.2873938,-0.503052,2.157026,-1.8750119,120.3,-160.5,-20.7,,,x,,,
1466251,-4.3993416,9.646252,-3.995595,0.41158798,3.2698379,-2.2180018,129.90001,-162.90001,-20.7,,,x,,,
1466291,-4.8946037,9.496716,-4.3987436,0.64787,-0.144818,-2.347576,127.50001,-158.1,-19.5,,,x,,,
1466311,-4.5339236,10.39393,-4.4274545,0.746956,-0.579272,-1.6539739,132.3,-170.1,-8.700001,,,x,,,
1466331,-4.131972,10.151683,-4.289881,0.28201398,-0.663114,-2.576236,122.700005,-158.1,-18.900002,,,x,,,
1466351,-3.8221335,8.948817,-4.1002703,0.137196,-1.25763,-3.102154,134.70001,-155.70001,-23.7,,,x,,,
1466413,-1.5623494,9.311292,-3.28859,0.091464,0.312502,0.3811,139.5,-167.70001,-21.300001,,,x,,,
1466433,-1.4170007,9.078016,-3.58168,0.251526,0.80030996,0.03811,137.1,-167.70001,-18.900002,,,x,,,
1466453,-1.284213,9.0188,-3.65585,0.121952,0.373478,0.434454,144.3,-153.3,-18.900002,,,x,,,
1466473,-0.98992664,9.150392,-3.6456814,-0.26677,-0.388722,0.60976,139.5,-165.3,-12.900001,,,x,,,
1466537,-0.23865904,9.116297,-3.0828288,-1.310984,-1.1128119,0.312502,139.5,-158.1,-20.1,,,,,,
1466557,-0.15790975,8.464919,-2.9291062,-1.204276,-0.510674,-0.07622,125.100006,-160.5,-14.700001,,,,,,
1466580,0.21772404,8.978126,-2.9255173,-0.846042,-0.45731997,0.365856,125.100006,-158.1,-24.900002,,,,,,
1466600,0.51978624,9.664196,-2.7508595,-0.899396,-0.388722,0.289636,134.70001,-167.70001,-17.7,,,,,,
1466620,0.23746276,9.083998,-2.3399353,-1.051836,0.625004,-0.708846,134.70001,-170.1,-20.7,,,,,,
1466640,0.22609805,8.733485,-2.6156793,-0.64787,1.6158639,-0.579272,134.70001,-158.1,-20.7,,,,,,
1466660,0.19379832,8.964967,-2.6934378,-0.26677,1.272874,-0.46494198,122.700005,-162.90001,-16.5,,,x,,,
1466684,-0.1268063,8.743055,-2.836992,0.16768399,1.234764,-0.365856,134.70001,-148.5,-12.3,,,x,,,
1466704,-0.40972793,8.683242,-2.8417773,0.015244,0.602138,-0.17530599,134.70001,-150.90001,-16.5,,,x,,,
1466724,-1.0868257,8.46791,-2.6832693,-0.053354,0.594516,0.007622,144.3,-158.1,-16.5,,,x,,,
1466745,-2.339337,9.7993765,-2.9338913,-0.510674,1.425314,1.02897,139.5,-160.5,-17.7,,,x,,,
1466765,-4.3490977,10.448361,-3.2580848,-1.33385,4.214966,-0.144818,137.1,-160.5,-15.900001,,,x,,,
1466785,-5.6985083,10.118187,-4.7648067,0.40396598,8.582372,-1.6082419,144.3,-160.5,-17.1,,,x,,,
1466829,-8.489443,9.564904,-7.8243084,0.289636,3.361302,2.911604,139.5,-165.3,-18.900002,,,x,,,
1466910,-3.9758563,6.08132,-1.836299,-3.1936178,-10.114394,1.150922,115.50001,-167.70001,-26.1,,,x,,,
1467033,2.8106737,5.2618637,-0.87508315,-0.221038,2.408552,12.88118,103.50001,-174.90001,-26.7,,,x,,,
1467071,6.255379,9.228149,-2.3243835,-1.6158639,4.245454,14.657105,48.300003,-172.5,-24.900002,,,x,,,
1467091,7.684941,8.463125,-1.978657,-1.806414,1.1204339,11.029034,48.300003,-172.5,-21.900002,,,x,,,
1467133,8.66111,9.415368,-1.9750681,-0.541162,3.88722,7.9040136,31.500002,-174.90001,-21.900002,,,x,,,
1467153,8.749037,9.032557,-2.5815852,0.068598,2.827762,5.990892,26.7,-174.90001,-24.300001,,,x,,,
1467173,8.958985,9.197046,-1.6383137,-0.03811,0.47256398,5.510706,17.1,-191.70001,-20.1,,,x,,,
1467193,8.152091,9.528418,-2.0887153,0.30488,2.660078,3.6814258,7.5000005,-182.1,-20.1,,,x,,,
1467213,8.791506,9.587035,-3.271842,1.3795819,3.422278,2.027452,2.7,-194.1,-32.7,,,x,,,
1467282,9.802367,9.832274,-2.982939,-0.129574,3.140264,0.15244,2.7,-174.90001,-30.900002,,,x,,,
1467310,9.638475,9.417761,-2.4033384,-1.02897,-0.15244,-0.297258,2.7,-170.1,-23.1,,,x,,,
1467330,9.438098,9.562511,-2.180231,-1.554888,-0.15244,-1.6387299,-6.9,-184.5,-26.1,,,x,,,
1467372,9.667785,8.439199,-0.9618139,-1.692084,-0.67835796,-4.5274677,2.7,-186.90001,-33.300003,,,x,,,
1467415,7.6161547,8.321365,-1.3446254,-0.579272,0.891774,-6.0137577,19.5,-179.70001,-23.7,,,x,,,
1467435,6.736884,7.5491624,-1.2417448,-0.274392,-0.16768399,-7.492426,29.1,-184.5,-24.300001,,,x,,,
1467455,5.4060163,6.81225,-0.4581775,-0.274392,-2.187514,-6.394858,31.500002,-182.1,-25.500002,,,x,,,
1467495,4.413099,7.1388364,-0.54789895,0.07622,-1.3567159,-5.045764,31.500002,-184.5,-26.7,,,x,,,
1467515,3.6319242,6.882831,-0.42767224,-0.022866,-1.5244,-5.625036,50.7,-177.3,-23.7,,,x,,,
1467538,0.9426733,5.62374,-0.954038,0.708846,0.92226195,-7.416206,57.9,-172.5,-24.900002,,,x,,,
1467562,0.20277047,6.050814,-2.1610906,2.118916,1.8673899,-6.9741297,55.500004,-182.1,-21.300001,,,x,,,
1467583,-1.0288059,7.1974545,-2.4248717,2.164648,0.640248,-6.714982,77.100006,-167.70001,-23.1,,,x,,,
1467603,-2.3082337,8.204727,-2.9643965,1.539644,2.6905658,-7.385718,74.700005,-186.90001,-19.5,,,x,,,
1467623,-2.4499936,8.918312,-4.0578017,1.6234859,4.30643,-8.490908,86.700005,-170.1,-23.7,,,x,,,
1467645,-2.7682056,8.766383,-4.8264155,0.731712,2.126538,-9.695184,86.700005,-182.1,-26.7,,,x,,,
1467665,-4.495044,8.436209,-4.0595965,-0.525918,-1.150922,-7.6067557,103.50001,-165.3,-25.500002,,,x,,,
1467725,-3.9106588,9.9830065,-3.1037638,-0.91463995,-2.088428,-3.323192,120.3,-165.3,-18.900002,,,x,,,
1467787,-2.7137747,10.283872,-2.439227,0.160062,-3.094532,-1.310984,122.700005,-170.1,-23.7,,,x,,,
1467849,-1.6640338,8.717934,-3.24672,0.99086,0.716468,-0.907018,132.3,-167.70001,-21.300001,,,,,,
1467869,-1.1161348,8.987098,-2.5199764,0.373478,-1.1280559,0.373478,127.50001,-155.70001,-25.500002,,,,,,
1467909,-0.36965236,8.906947,-2.6707084,0.47256398,1.25763,0.19055,120.3,-162.90001,-22.5,,,,,,
1467929,-0.22250919,8.769374,-3.125297,0.93750596,1.082324,0.091464,127.50001,-158.1,-23.1,,,,,,
1467949,0.023925718,8.984706,-3.271842,1.29574,-0.503052,0.33536798,129.90001,-172.5,-26.1,,,,,,
1467971,-0.006579573,9.310694,-2.874675,0.884152,-0.777444,0.15244,134.70001,-160.5,-23.1,,,,,,
1467991,0.12261931,9.225159,-3.1677651,0.81555396,0.3811,-0.40396598,122.700005,-170.1,-26.1,,,,,,
1468011,0.21892032,9.381274,-3.338834,0.67835796,-0.083841994,-0.213416,127.50001,-162.90001,-20.7,,,,,,
1468051,0.18482618,8.963172,-2.8166552,-0.17530599,0.129574,-0.69360197,129.90001,-155.70001,-22.5,,,x,,,
1468110,-0.28112718,8.637184,-2.886638,-0.099086,0.853664,-0.91463995,115.50001,-165.3,-20.7,,,x,,,
1468210,-6.0394497,9.779039,-6.5000196,3.025934,12.835447,-2.8048959,129.90001,-162.90001,-20.1,,,x,,,
1468230,-6.4599442,11.227143,-8.469107,0.80793196,7.8735256,-0.525918,127.50001,-155.70001,-20.1,,,x,,,
1468270,-6.931879,8.858498,-5.9856167,-4.0167937,-5.152472,-0.23628199,127.50001,-148.5,-23.1,,,x,,,
1468329,-4.2181044,6.613667,-2.6204643,-3.2088618,-5.807964,6.3719916,129.90001,-162.90001,-21.900002,,,x,,,
1468349,-2.8890305,6.6674995,-1.7148759,-3.041178,-6.4634557,7.27901,108.3,-153.3,-29.7,,,x,,,
1468392,0.2560052,6.718342,0.016748004,-2.027452,0.03811,10.129638,105.9,-174.90001,-26.7,,,x,,,
1468432,3.1444376,6.5538526,-1.108957,-1.8826339,0.861286,13.597648,79.5,-174.90001,-29.7,,,x,,,
1468452,4.7953124,7.882328,-0.88884044,-2.637212,1.006104,15.05345,67.5,-174.90001,-22.5,,,x,,,
1468472,5.8803434,7.7758584,-1.5557699,-1.806414,2.903982,12.667764,53.100002,-182.1,-32.100002,,,x,,,
1468519,7.8966837,8.208914,-1.0383762,-1.5929979,-2.500016,10.221102,33.9,-182.1,-26.7,,,x,,,
1468539,7.338616,8.562417,-0.57421726,-1.440558,0.121952,7.942124,24.300001,-182.1,-25.500002,,,x,,,
1468560,7.4708056,8.761599,-2.0019846,-0.40396598,1.974098,6.227174,14.700001,-182.1,-27.900002,,,x,,,
1468582,8.032462,8.897377,-1.03718,-0.94512796,-0.80030996,5.9680257,14.700001,-170.1,-25.500002,,,x,,,
1468603,8.496023,9.526623,-0.99471176,-1.806414,1.074702,5.52595,5.1000004,-179.70001,-29.7,,,x,,,
1468623,7.5288258,9.197644,-1.7453812,-0.846042,1.699706,3.4299,-2.1000001,-184.5,-17.7,,,x,,,
1468643,9.3459835,9.938146,-1.2901944,-2.027452,-0.617382,3.7881339,-4.5,-186.90001,-30.300001,,,x,,,
1468663,9.908238,9.465612,0.6639387,-3.902464,-0.091464,3.117398,-9.3,-172.5,-26.1,,,x,,,
1468684,9.201832,8.63539,-0.9390845,-0.57164997,3.7576458,2.111294,-16.5,-184.5,-32.7,,,x,,,
1468704,8.437405,8.71255,-1.4618614,1.44818,2.2408679,0.251526,-18.900002,-189.3,-22.5,,,x,,,
1468726,9.684533,9.798779,-1.5886678,0.045732,0.60976,-0.160062,-9.3,-182.1,-24.300001,,,x,,,
1468746,10.195945,9.4757805,-0.7129864,-1.1280559,0.373478,-0.243904,-35.7,-179.70001,-27.300001,,,x,,,
1468766,9.09297,8.510378,-0.92472905,-0.053354,2.149404,-1.707328,-16.5,-186.90001,-38.100002,,,x,,,
1468786,8.616848,8.45176,-1.2441374,1.3490939,1.6082419,-4.0015497,-14.1,-177.3,-32.7,,,x,,,
1468809,9.059473,8.7843275,-1.6496783,2.195136,0.70122397,-4.9543,-2.1000001,-182.1,-26.1,,,x,,,
1468869,6.9055605,7.9164224,-1.828523,1.3643379,-0.548784,-6.9893737,14.700001,-186.90001,-24.300001,,,x,,,
1468889,6.179415,7.335027,-1.321896,1.3414719,-2.378064,-7.972612,24.300001,-174.90001,-24.300001,,,x,,,
1468911,5.4574566,7.12807,-1.514498,1.318606,-2.2637339,-7.538158,9.900001,-186.90001,-26.1,,,x,,,
1468932,4.785144,7.2512875,-1.5162925,0.891774,-2.2713559,-7.4543157,38.7,-186.90001,-22.5,,,x,,,
1468952,4.476502,7.297942,-1.6209675,0.716468,-2.187514,-8.109808,36.300003,-186.90001,-22.5,,,x,,,
1468972,3.7677026,6.3528767,-1.2351652,0.34298998,-2.2484899,-8.490908,53.100002,-177.3,-26.1,,,x,,,
1468996,2.262775,5.8970914,-1.0467502,-0.106708,-1.3643379,-7.721086,60.300003,-167.70001,-28.500002,,,x,,,
1469036,0.031701576,6.8672795,-2.6491752,1.432936,1.75306,-6.798824,74.700005,-177.3,-30.300001,,,x,,,
1469056,-0.9731786,7.460637,-3.3478062,1.775926,0.442076,-6.8826656,72.3,-170.1,-20.7,,,x,,,
1469079,-2.1868107,8.408694,-3.2329628,1.089946,-1.463424,-6.4329677,81.9,-170.1,-25.500002,,,x,,,
1469099,-2.8441699,9.378881,-2.857329,-0.312502,-1.288118,-5.762232,86.700005,-179.70001,-26.7,,,x,,,
1469119,-3.9226215,9.633691,-2.5486872,-1.036592,1.18141,-6.74547,98.700005,-172.5,-19.5,,,x,,,
1469139,-4.7289186,9.731188,-3.0140424,0.198172,2.484772,-7.3171196,105.9,-167.70001,-24.900002,,,x,,,
1469159,-5.1446276,9.827489,-3.1474283,0.160062,1.6234859,-7.0655937,129.90001,-162.90001,-23.1,,,x,,,
1469182,-4.9699697,9.23473,-2.945256,0.72409,0.754578,-5.990892,113.100006,-177.3,-27.300001,,,x,,,
1469223,-3.9250143,9.3130865,-2.5044246,0.94512796,-0.26677,-3.08691,122.700005,-165.3,-23.7,,,x,,,
1469243,-3.401041,9.122278,-2.7353077,1.8750119,0.907018,-2.035074,125.100006,-162.90001,-29.1,,,x,,,
1469266,-2.9506392,9.403405,-3.0397625,1.5244,0.625004,-1.509156,125.100006,-155.70001,-22.5,,,,,,
1469287,-1.953535,9.87534,-3.3089268,1.6539739,-0.739334,-0.975616,129.90001,-162.90001,-17.1,,,,,,
1469307,-1.6891557,9.560718,-3.1408486,1.204276,-1.67684,-1.166166,134.70001,-170.1,-26.7,,,,,,
1469327,-1.5085166,8.750234,-2.8100758,0.830798,-1.6158639,-0.960372,132.3,-158.1,-21.900002,,,,,,
1469347,-0.874485,8.884816,-2.8292162,0.259148,-1.036592,0.03811,132.3,-165.3,-15.900001,,,,,,
1469391,-0.33316565,9.092371,-2.6994193,-0.274392,0.41921,-0.708846,139.5,-162.90001,-19.5,,,,,,
1469411,-0.20635933,8.728701,-2.8232348,0.129574,0.70122397,-1.044214,127.50001,-170.1,-16.5,,,,,,
1469431,-0.1016843,9.005641,-2.945256,0.327746,0.739334,-0.41158798,129.90001,-160.5,-17.1,,,,,,
1469471,-0.16448931,8.680251,-2.915947,0.41158798,1.059458,-0.320124,132.3,-162.90001,-26.7,,,,,,
1469491,0.049645867,9.016407,-2.9919112,0.388722,0.868908,-0.365856,129.90001,-153.3,-18.300001,,,,,,
1469513,0.0891233,8.818421,-3.1348674,0.53354,1.25763,-0.72409,132.3,-170.1,-20.1,,,,,,
1469533,0.25839776,9.411779,-3.255094,0.449698,0.525918,-0.41158798,127.50001,-158.1,-21.900002,,,x,,,
1469555,-0.1740596,8.57079,-3.0445478,-0.07622,0.663114,-1.1280559,139.5,-150.90001,-22.5,,,x,,,
1469575,-0.72076225,8.167044,-3.3603673,-0.030488,1.097568,-0.663114,129.90001,-162.90001,-17.7,,,x,,,
1469599,-1.715474,9.093568,-3.6211576,-0.30488,-0.045732,-0.64787,141.90001,-160.5,-20.7,,,x,,,
1469619,-2.840581,9.185681,-3.7910302,-0.099086,0.731712,-2.09605,127.50001,-150.90001,-23.1,,,x,,,
1469639,-4.6673098,9.794591,-4.564429,1.173788,2.644834,-3.003068,144.3,-158.1,-18.900002,,,x,,,
1469660,-5.376707,11.046504,-6.043637,1.692084,3.7957559,-3.536608,146.70001,-153.3,-18.300001,,,x,,,
1469680,-5.539402,9.937548,-6.729707,0.625004,-0.731712,-4.390272,149.1,-155.70001,-23.7,,,x,,,
1469700,-5.6787696,8.260354,-4.7749753,-1.775926,-6.875044,-3.567096,153.90001,-158.1,-23.7,,,x,,,
1469720,-5.555552,9.100745,-2.9171433,-1.966476,-5.228692,-1.669218,151.5,-158.1,-19.5,,,x,,,
1469743,-5.103954,8.141922,-2.966191,-0.884152,0.510674,-2.881116,149.1,-143.70001,-19.5,,,x,,,
1469763,-4.8132563,6.717744,-3.3250768,-0.426832,0.518296,-1.8521459,161.1,-150.90001,-19.5,,,x,,,
1469783,-4.2198987,7.351775,-2.4787045,-0.579272,-1.3643379,0.243904,146.70001,-160.5,-23.1,,,x,,,
1469803,-3.5128937,7.592827,-1.9146557,0.030488,-1.288118,0.396344,168.3,-155.70001,-24.900002,,,x,,,
1469823,-2.857329,7.208221,-1.6640338,0.3811,-0.40396598,0.30488,156.3,-158.1,-23.1,,,x,,,
1469843,-2.049836,7.0018616,-1.7047075,0.47256398,-0.617382,1.189032,151.5,-153.3,-18.900002,,,x,,,
1469863,-1.2895962,7.538396,-1.2955776,0.106708,-2.157026,2.660078,144.3,-155.70001,-14.700001,,,x,,,
1469886,-0.3588858,6.317586,-0.38101706,-1.318606,-0.33536798,2.980202,146.70001,-155.70001,-21.300001,,,x,,,
1469906,0.95284176,8.00734,-1.7693069,0.221038,3.2545938,6.158576,146.70001,-162.90001,-20.7,,,x,,,
1469990,4.3544807,10.576364,-2.6126885,-0.35061198,0.022866,6.4634557,122.700005,-165.3,-20.1,,,x,,,
1470030,4.7971067,10.570981,-3.0595014,0.45731997,1.3795819,5.670768,108.3,-172.5,-14.1,,,x,,,
1470070,5.9461393,11.094356,-2.0492377,-1.06708,-1.173788,4.0777698,98.700005,-170.1,-20.1,,,x,,,
1470090,6.506001,11.189461,-1.2943814,-1.227142,-0.388722,4.45887,101.100006,-174.90001,-21.900002,,,x,,,
1470130,7.0221987,10.225852,-2.2615786,-0.022866,3.7424018,2.888738,91.5,-174.90001,-15.900001,,,x,,,
1470174,8.155081,11.349763,-2.8561327,-0.373478,-1.455802,0.320124,79.5,-177.3,-19.5,,,x,,,
1470194,7.29555,10.061363,-2.36745,-0.68597996,-0.41158798,-1.737816,81.9,-170.1,-20.1,,,x,,,
1470214,6.7584176,9.573278,-2.9476485,1.089946,0.55640596,-3.2012398,101.100006,-179.70001,-19.5,,,x,,,
1470257,5.3940535,9.227551,-2.338739,-0.33536798,0.40396598,-3.559474,101.100006,-165.3,-20.7,,,x,,,
1470277,4.3365364,9.4105835,-2.7514577,-0.449698,1.3414719,-3.7042918,89.100006,-179.70001,-24.300001,,,x,,,
1470297,3.0307903,8.280093,-2.476312,-0.015244,-0.503052,-5.693634,110.700005,-170.1,-20.1,,,x,,,
1470317,2.5157893,7.717839,-2.2765322,0.053354,-0.830798,-5.663146,117.9,-170.1,-24.900002,,,x,,,
1470337,1.991218,7.1095276,-2.2406435,0.28201398,-0.632626,-4.38265,110.700005,-172.5,-20.1,,,x,,,
1470360,1.2471281,7.297344,-2.3997495,0.30488,-0.045732,-2.7667859,110.700005,-172.5,-23.1,,,x,,,
1470380,0.2966789,7.9176183,-3.1719522,0.243904,0.769822,-1.3795819,122.700005,-160.5,-16.5,,,x,,,
1470404,-0.1961909,7.8548136,-3.7264307,0.26677,-0.960372,-0.602138,113.100006,-167.70001,-26.7,,,x,,,
1470424,-0.5861801,7.1651545,-2.8208423,-0.861286,-2.835384,-1.089946,120.3,-165.3,-21.300001,,,x,,,
1470444,-1.5874715,6.903766,-2.6449883,-1.3414719,-0.891774,-0.891774,110.700005,-155.70001,-16.5,,,x,,,
1470464,-1.8608228,8.110221,-3.4136019,-0.754578,0.617382,-0.739334,127.50001,-158.1,-21.900002,,,x,,,
1470484,-2.0731635,8.835768,-3.731216,-0.731712,-0.80793196,-1.814036,120.3,-158.1,-19.5,,,x,,,
1470504,-2.3501036,7.441497,-2.9859297,-1.089946,-2.6829438,-2.865872,115.50001,-170.1,-15.3,,,x,,,
1470524,-3.2245889,7.789616,-2.4356382,-1.577754,-2.141782,-1.478668,120.3,-162.90001,-16.5,,,x,,,
1470544,-3.4106112,8.30043,-2.9291062,-0.83842,0.640248,-1.318606,122.700005,-179.70001,-23.7,,,x,,,
1470564,-3.757534,9.061268,-3.7156641,-0.297258,0.640248,-0.35061198,125.100006,-162.90001,-25.500002,,,x,,,
1470584,-4.042848,10.021287,-3.8472557,-0.487808,-0.586894,-0.15244,127.50001,-150.90001,-15.900001,,,x,,,
1470604,-4.1523085,9.65941,-3.6056058,-0.16768399,-1.272874,-1.5929979,122.700005,-167.70001,-29.1,,,x,,,
1470686,-2.2238955,9.219177,-3.2030556,0.198172,-2.355198,-0.53354,139.5,-162.90001,-20.1,,,,,,
1470751,-0.62565756,8.669484,-2.9590132,0.091464,0.34298998,-0.373478,122.700005,-150.90001,-20.1,,,,,,
1470870,-0.4438221,8.700587,-3.2562904,-0.396344,0.442076,-0.289636,129.90001,-167.70001,-24.900002,,,,,,
1471051,-7.983414,10.747433,-4.8760614,0.41921,5.739366,-0.30488,134.70001,-158.1,-12.3,,,x,,,
1471089,-7.421758,8.790309,-6.103451,-0.640248,5.807964,6.920776,141.90001,-170.1,-18.300001,,,x,,,
1471109,-5.4933453,7.71425,-4.736096,-1.730194,-0.312502,8.894874,125.100006,-162.90001,-15.900001,,,x,,,
1471149,-1.5916585,6.199752,-2.0289009,-1.417692,0.160062,10.678422,103.50001,-170.1,-12.900001,,,x,,,
1471169,-0.13398403,6.5077953,-2.3501036,-0.87653,2.865872,11.341536,91.5,-167.70001,-13.500001,,,x,,,
1471189,0.84457785,6.78653,-2.6228569,-1.3872039,3.422278,10.914703,79.5,-172.5,-19.5,,,x,,,
1471209,1.6102009,7.0042543,-2.752056,-1.440558,2.195136,10.465006,72.3,-182.1,-15.3,,,x,,,
1471230,1.9062816,7.052704,-2.3142152,-2.2637339,1.3719599,9.443658,43.5,-184.5,-14.1,,,x,,,
1471272,3.9124532,6.522749,-1.9702829,-2.59148,-0.327746,7.9345016,31.500002,-165.3,-17.7,,,x,,,
1471292,5.3916607,6.4898515,-1.3021573,-3.2241058,-0.998482,8.872007,29.1,-186.90001,-18.900002,,,x,,,
1471312,6.9079533,8.047416,-1.1382661,-3.452766,0.586894,10.419273,24.300001,-184.5,-24.900002,,,x,,,
1471332,7.3272514,8.7191305,-1.1938933,-3.0488,1.989342,8.6509695,12.3,-191.70001,-30.300001,,,x,,,
1471355,6.9522157,8.385366,-1.7956252,-2.454284,2.393308,6.32626,12.3,-184.5,-17.1,,,x,,,
1471375,7.9002724,8.367422,-1.715474,-1.79117,0.7622,5.60217,-4.5,-189.3,-26.1,,,x,,,
1471395,8.351871,8.638381,-0.9516455,-1.966476,-0.26677,5.6097918,-2.1000001,-186.90001,-21.300001,,,x,,,
1471415,7.0814147,8.439199,-1.7435868,-1.737816,1.9131219,4.161612,-11.700001,-186.90001,-29.1,,,x,,,
1471435,7.0114317,8.3524685,-2.0277047,-1.211898,1.1204339,3.361302,-14.1,-167.70001,-17.7,,,x,,,
1471455,7.806962,8.923695,-1.5282553,-0.449698,-1.158544,2.6905658,-30.900002,-179.70001,-25.500002,,,x,,,
1471477,8.235232,7.924198,-0.5371324,-1.768304,0.289636,2.492394,-18.900002,-160.5,-23.7,,,x,,,
1471498,8.341104,8.220279,-1.5318441,-0.95274997,1.3795819,3.033556,-16.5,-182.1,-25.500002,,,x,,,
1471518,9.217981,9.240112,-1.6239581,0.15244,0.434454,2.416174,-23.7,-165.3,-24.300001,,,x,,,
1471538,9.975828,8.069547,-0.6794904,-1.5929979,-0.503052,1.1128119,-21.300001,-174.90001,-21.900002,,,x,,,
1471558,10.693002,7.9588904,-0.8045023,-1.4024479,0.99086,1.8826339,-21.300001,-177.3,-30.300001,,,x,,,
1471578,9.871154,8.646156,-1.3242885,-0.358234,1.8292799,0.106708,-23.7,-170.1,-24.900002,,,x,,,
1471602,9.454846,8.223269,-1.2483244,0.16768399,0.129574,-3.7652678,-30.900002,-174.90001,-19.5,,,x,,,
1471622,10.021886,7.681352,-0.42228892,0.251526,-0.87653,-5.0228977,-23.7,-184.5,-22.5,,,x,,,
1471642,8.839356,7.099957,-0.059814297,-0.49543,1.1128119,-4.5274677,-21.300001,-184.5,-21.900002,,,x,,,
1471662,8.116202,7.8009806,-1.6592486,0.640248,2.964958,-5.3963757,-11.700001,-172.5,-20.7,,,x,,,
1471682,6.6088815,7.329046,-1.79084,1.783548,-1.204276,-8.795788,-9.3,-177.3,-21.300001,,,x,,,
1471702,6.702192,7.033563,-1.363766,1.440558,-2.2484899,-9.047314,7.5000005,-182.1,-25.500002,,,x,,,
1471723,7.291363,7.815336,-1.1035738,0.891774,-2.7515419,-7.9649897,0.3,-186.90001,-21.300001,,,x,,,
1471743,6.5867505,7.255474,-1.1185274,0.060976,-1.3872039,-8.346089,14.700001,-179.70001,-24.300001,,,x,,,
1471826,2.5008357,5.921017,-1.0957979,0.617382,-1.3795819,-9.695184,53.100002,-170.1,-26.7,,,x,,,
1471930,-2.978154,8.449368,-4.1331677,1.463424,-0.41921,-9.6418295,89.100006,-167.70001,-26.7,,,x,,,
1471950,-3.4327426,8.45176,-4.389173,1.189032,-0.442076,-9.359816,117.9,-153.3,-26.7,,,x,,,
1471991,-3.5314362,8.92848,-3.6068022,0.099086,-3.041178,-5.190582,120.3,-165.3,-21.900002,,,x,,,
1472011,-3.8837423,8.5253315,-3.1235025,0.41921,-1.8673899,-4.30643,129.90001,-165.3,-13.500001,,,x,,,
1472034,-3.8729758,9.632494,-3.527249,0.358234,0.47256398,-2.93447,127.50001,-160.5,-20.7,,,x,,,
1472054,-3.3878818,9.647448,-3.857424,0.769822,0.182928,-3.109776,127.50001,-162.90001,-25.500002,,,x,,,
1472074,-3.4315462,8.679652,-3.535025,0.94512796,-0.655492,-2.621968,144.3,-160.5,-20.7,,,,,,
1472094,-3.259879,9.185083,-3.4542756,0.56402797,-0.541162,-0.846042,115.50001,-162.90001,-18.900002,,,,,,
1472134,-2.3949645,9.189869,-3.4219759,-0.20579399,0.22865999,-0.67835796,132.3,-153.3,-28.500002,,,,,,
1472231,-0.8272317,9.235926,-3.138456,-0.182928,0.70122397,0.20579399,139.5,-150.90001,-26.1,,,,,,
1472251,-0.782371,9.341199,-3.1827188,-0.259148,0.129574,0.213416,141.90001,-155.70001,-17.7,,,,,,
1472293,-0.56046,9.6049795,-2.8860397,-0.28201398,-0.503052,0.045732,146.70001,-160.5,-24.300001,,,,,,
1472336,-0.66334057,9.165345,-3.2012613,-0.16768399,-0.396344,0.030488,129.90001,-150.90001,-24.900002,,,,,,
1472356,-0.43245736,9.048109,-3.0935955,-0.30488,-0.655492,0.41158798,137.1,-160.5,-29.7,,,,,,
1472376,-0.20815375,9.292749,-2.9655929,-0.57164997,-0.754578,0.617382,134.70001,-158.1,-15.3,,,,,,
1472396,0.19020946,9.406396,-2.940471,-0.56402797,-0.64787,0.45731997,141.90001,-155.70001,-15.3,,,,,,
1472462,0.6214706,9.178504,-2.5122006,-0.57164997,0.007622,-0.030488,132.3,-160.5,-21.900002,,,,,,
1472482,0.27036062,9.073231,-2.385394,-0.731712,0.541162,-0.480186,134.70001,-165.3,-26.1,,,,,,
1472502,-0.14235802,9.0217905,-2.6713066,-0.594516,1.1280559,-0.396344,132.3,-165.3,-20.7,,,,,,
1472522,-1.0383762,8.942836,-2.4960506,-0.617382,0.777444,-0.17530599,122.700005,-167.70001,-25.500002,,,,,,
1472542,-2.2304752,9.317273,-2.6390069,-0.632626,1.760682,0.33536798,139.5,-167.70001,-25.500002,,,x,,,
1472605,-7.70767,8.57438,-4.1708508,2.050318,8.849142,1.775926,127.50001,-162.90001,-20.7,,,x,,,
1472888,5.1535997,8.345291,-2.9925094,1.669218,3.978684,8.338468,36.300003,-182.1,-17.7,,,x,,,
1472908,5.773276,7.33084,-3.0517254,1.06708,0.785066,5.9680257,33.9,-165.3,-23.1,,,x,,,
1472949,6.911542,7.7866254,-2.6581473,-0.213416,1.097568,6.1052217,19.5,-177.3,-23.1,,,x,,,
1472969,7.3601494,7.853617,-3.0361738,-0.769822,1.044214,5.60217,17.1,-174.90001,-17.7,,,x,,,
1472989,7.7381754,7.627519,-2.5612483,-0.853664,0.19055,5.495462,-4.5,-184.5,-29.1,,,x,,,
1473012,8.090482,8.198746,-2.2143252,-1.6387299,0.548784,5.495462,5.1000004,-174.90001,-14.1,,,x,,,
1473032,8.570192,8.561818,-2.121613,-1.455802,1.021348,4.474114,-6.9,-177.3,-22.5,,,x,,,
1473052,8.96736,8.482863,-1.5880696,-1.1204339,1.051836,3.2850819,-2.1000001,-174.90001,-22.5,,,x,,,
1473072,8.956593,8.344692,-1.627547,-1.3567159,2.012208,3.2469718,-6.9,-186.90001,-17.1,,,x,,,
1473095,8.718532,9.105531,-2.2950745,-1.33385,2.957336,3.079288,-16.5,-172.5,-26.7,,,x,,,
1473116,9.058875,9.736571,-2.682073,-0.899396,0.95274997,1.280496,-30.900002,-182.1,-27.900002,,,x,,,
1473136,9.057081,8.474489,-1.9463573,-0.87653,-1.699706,-0.632626,-35.7,-167.70001,-24.900002,,,x,,,
1473156,8.954799,8.00076,-1.3284756,-1.1356779,-1.722572,-0.81555396,-14.1,-170.1,-26.1,,,x,,,
1473176,8.998463,8.702382,-1.4905723,-0.663114,-1.4024479,-1.79117,-28.500002,-182.1,-21.900002,,,x,,,
1473196,8.503201,8.694008,-1.7226517,-0.07622,-1.539644,-3.071666,-18.900002,-184.5,-27.300001,,,x,,,
1473236,8.317776,7.7710733,-1.2052581,0.259148,-2.6829438,-4.68753,-4.5,-179.70001,-20.1,,,x,,,
1473256,8.008536,8.257363,-1.5725179,0.35061198,-0.91463995,-4.11588,7.5000005,-174.90001,-17.7,,,x,,,
1473276,7.1854916,8.268728,-2.246625,-0.045732,-0.640248,-4.4512477,-4.5,-184.5,-21.300001,,,x,,,
1473296,6.450972,8.022892,-1.9092723,-0.015244,-2.01983,-6.4482117,-2.1000001,-206.1,-20.7,,,x,,,
1473316,6.2266684,7.6215377,-1.5707234,0.3811,-2.492394,-7.782062,14.700001,-186.90001,-19.5,,,x,,,
1473336,5.527439,7.3954396,-1.3278774,-0.20579399,-1.8597679,-7.881148,12.3,-172.5,-20.7,,,x,,,
1473358,4.931689,7.7327924,-1.7370071,-0.144818,-0.884152,-7.4543157,36.300003,-174.90001,-21.300001,,,x,,,
1473378,4.0685687,7.294952,-1.6927446,-0.449698,-0.632626,-7.69822,41.100002,-179.70001,-20.1,,,x,,,
1473398,3.0475385,6.7620063,-1.7364091,-0.846042,-0.41158798,-7.5762677,45.9,-196.50002,-20.7,,,x,,,
1473418,2.012153,6.1225915,-1.7190629,-0.579272,0.045732,-7.4848037,55.500004,-177.3,-18.300001,,,x,,,
1473438,0.40733537,6.743464,-2.008564,-0.23628199,1.3795819,-6.341504,57.9,-177.3,-16.5,,,x,,,
1473458,-1.4080286,7.7585125,-2.6665213,-0.11432999,3.92533,-7.027484,60.300003,-165.3,-17.7,,,x,,,
1473480,-2.0181344,8.662307,-4.103261,1.234764,6.0137577,-7.286632,72.3,-179.70001,-20.1,,,x,,,
1473501,-2.359674,8.553445,-4.740881,0.46494198,2.644834,-7.210412,74.700005,-179.70001,-21.300001,,,x,,,
1473521,-3.1187174,7.943937,-3.610391,-0.83842,-0.365856,-6.4939437,84.3,-177.3,-21.300001,,,x,,,
1473541,-3.1904945,9.071436,-3.7216456,0.015244,1.440558,-4.87808,89.100006,-182.1,-24.300001,,,x,,,
1473561,-3.1402507,9.326843,-4.2862926,0.289636,1.722572,-5.0838737,98.700005,-167.70001,-23.1,,,x,,,
1473583,-2.9464524,8.554043,-4.079933,0.289636,-0.884152,-4.794238,91.5,-170.1,-17.1,,,x,,,
1473603,-2.5062191,9.267627,-3.4692292,0.182928,-2.446662,-3.2774599,105.9,-162.90001,-17.1,,,,,,
1473623,-2.548089,9.1731205,-2.9853315,-0.099086,-0.55640596,-3.567096,98.700005,-155.70001,-21.300001,,,,,,
1473643,-2.1054633,9.297534,-3.806582,0.274392,0.373478,-3.2241058,113.100006,-160.5,-24.900002,,,,,,
1473664,-1.531246,9.162952,-3.443509,0.69360197,-1.6082419,-2.40093,103.50001,-165.3,-15.3,,,,,,
1473686,-1.276437,8.897975,-3.0720623,0.708846,-1.3795819,-1.8978779,110.700005,-170.1,-24.900002,,,,,,
1473706,-1.0222263,9.359143,-3.003874,0.091464,-1.097568,-1.211898,113.100006,-155.70001,-20.7,,,,,,
1473726,-0.9893285,9.447668,-3.0726604,-0.137196,-0.35061198,-1.3490939,115.50001,-165.3,-17.1,,,,,,
1473747,-0.9977025,9.409387,-3.246122,-0.221038,-0.26677,-1.6463519,115.50001,-160.5,-19.5,,,,,,
1473767,-0.73751026,9.109119,-3.0050702,-0.22865999,-0.80793196,-1.707328,103.50001,-162.90001,-15.3,,,,,,
1473787,-0.21054633,9.081007,-2.7335134,-0.274392,-0.975616,-1.044214,113.100006,-165.3,-19.5,,,,,,
1473810,-0.15910603,9.035547,-2.3818054,-0.541162,-0.053354,-0.708846,115.50001,-155.70001,-22.5,,,,,,
1473890,0.27634206,9.101942,-2.9727705,0.891774,1.089946,-0.19055,120.3,-165.3,-18.900002,,,,,,
1473992,0.59754485,9.113904,-3.4351351,-1.1356779,-0.320124,0.243904,110.700005,-174.90001,-18.300001,,,,,,
1474111,-2.8483567,9.636084,-2.9063766,-1.1432999,0.70122397,0.198172,117.9,-165.3,-21.300001,,,,,,
1474151,-6.2517905,9.486547,-3.7246363,-0.099086,5.975648,0.91463995,113.100006,-162.90001,-21.900002,,,,,,
1474171,-6.3068194,10.230638,-5.2397323,1.013726,5.815586,2.911604,113.100006,-162.90001,-17.1,,,x,,,
1474212,-5.319884,8.636586,-4.7600217,-1.303362,-2.6905658,6.981752,96.3,-172.5,-23.7,,,x,,,
1474254,-2.627044,9.042128,-3.3155065,-2.980202,-0.87653,8.140296,86.700005,-174.90001,-19.5,,,x,,,
1474274,-1.824336,7.6915207,-3.4142,-2.446662,-0.251526,6.8598,84.3,-172.5,-15.900001,,,x,,,
1474294,-0.5413194,7.0598817,-2.9338913,-2.355198,-2.599102,7.179924,93.9,-170.1,-27.300001,,,x,,,
1474334,1.5073203,7.180108,-0.46714967,-2.7820299,-2.492394,7.3933396,67.5,-170.1,-23.7,,,x,,,
1474354,1.995405,6.4114947,-0.65496653,-1.722572,2.370442,7.0808377,43.5,-177.3,-23.7,,,x,,,
1474374,3.2987585,6.729707,-1.7190629,-1.3719599,3.6966698,8.102186,55.500004,-184.5,-23.7,,,x,,,
1474434,7.8972816,9.277198,-1.1149385,-3.094532,0.373478,8.559505,24.300001,-179.70001,-23.1,,,x,,,
1474506,7.5449753,8.865675,-1.0264133,-0.754578,1.8369019,2.32471,2.7,-189.3,-20.1,,,x,,,
1474526,6.531123,8.103641,-1.6484821,-0.068598,1.5244,-0.182928,5.1000004,-184.5,-35.100002,,,x,,,
1474569,6.6579294,8.157474,-0.95942134,-0.068598,0.510674,1.234764,12.3,-177.3,-21.300001,,,x,,,
1474589,6.607087,8.918312,-1.823738,0.35061198,1.768304,1.48629,-11.700001,-182.1,-31.500002,,,x,,,
1474609,6.526936,8.580959,-2.1898015,0.358234,0.480186,0.510674,0.3,-170.1,-24.900002,,,x,,,
1474629,7.5395923,7.928983,-1.6209675,-0.69360197,-1.150922,1.692084,-2.1000001,-174.90001,-25.500002,,,x,,,
1474651,8.755018,8.612062,-1.422384,-1.455802,-0.731712,4.474114,0.3,-194.1,-19.5,,,x,,,
1474671,8.737075,9.463819,-1.45588,-1.288118,0.373478,3.894842,-6.9,-174.90001,-26.1,,,x,,,
1474691,9.725206,10.722311,-1.6634356,-2.118916,-0.640248,0.632626,-6.9,-194.1,-24.900002,,,x,,,
1474713,9.4105835,8.472695,0.12740445,-3.132642,-3.422278,-4.359784,-14.1,-172.5,-28.500002,,,x,,,
1474733,9.5984,7.7501383,1.4229821,-2.6981878,-0.769822,-3.58234,-2.1000001,-174.90001,-28.500002,,,x,,,
1474753,8.502603,8.5576315,-0.31103435,0.144818,3.384168,-3.559474,7.5000005,-191.70001,-26.7,,,x,,,
1474774,7.505498,9.125269,-0.88943857,1.211898,1.089946,-5.358266,2.7,-184.5,-27.900002,,,x,,,
1474794,7.068854,8.100052,-0.10347874,0.91463995,-1.166166,-7.263766,19.5,-191.70001,-26.7,,,x,,,
1474816,6.1847982,6.5795727,0.25122005,0.907018,-1.074702,-7.820172,24.300001,-174.90001,-26.7,,,x,,,
1474836,5.0106435,6.719538,-0.79553014,1.79117,0.632626,-4.72564,21.900002,-174.90001,-29.7,,,x,,,
1474877,4.356275,8.286075,-1.9014965,1.768304,0.830798,-5.4268637,21.900002,-179.70001,-22.5,,,x,,,
1474897,3.4943511,6.7853336,-1.5874715,1.425314,-1.737816,-7.339986,53.100002,-174.90001,-24.300001,,,x,,,
1474917,2.5367243,6.4485793,-1.3081387,1.021348,-1.33385,-6.905532,55.500004,-179.70001,-26.1,,,x,,,
1474938,1.347018,6.9456363,-1.7226517,1.3795819,0.327746,-6.425346,55.500004,-194.1,-21.900002,,,x,,,
1474958,0.36068022,8.122782,-2.2902894,2.073184,1.303362,-6.0747337,62.7,-167.70001,-18.300001,,,x,,,
1474980,-0.80988556,9.155176,-2.8034961,2.073184,2.027452,-6.654006,67.5,-162.90001,-24.900002,,,x,,,
1475000,-1.577303,9.050501,-3.3376377,2.576236,2.621968,-7.865904,84.3,-172.5,-16.5,,,x,,,
1475020,-1.9218334,8.179007,-3.73959,3.2012398,0.480186,-8.025966,79.5,-184.5,-23.7,,,x,,,
1475040,-2.615081,8.411685,-3.238346,2.454284,-1.3414719,-6.067112,96.3,-174.90001,-20.1,,,x,,,
1475100,-2.7963183,8.516958,-4.033278,1.29574,1.265252,-3.346058,101.100006,-165.3,-24.300001,,,x,,,
1475161,-2.1311834,10.353256,-3.614578,0.365856,-1.310984,-2.621968,110.700005,-172.5,-15.3,,,x,,,
1475291,-0.2033686,9.518847,-3.3352451,0.091464,-1.56251,-0.518296,113.100006,-170.1,-15.900001,,,,,,
1475312,-0.10826388,8.966762,-3.5254548,0.091464,-0.442076,-0.55640596,125.100006,-160.5,-17.7,,,,,,
1475352,0.5801987,9.286768,-3.3155065,-1.310984,-2.454284,-1.234764,113.100006,-162.90001,-18.300001,,,,,,
1475372,0.70221984,8.874647,-3.1695597,-1.707328,-1.478668,-1.56251,110.700005,-155.70001,-21.300001,,,,,,
1475392,0.4761218,8.74485,-3.033781,-1.9131219,-1.326228,-1.6311079,113.100006,-162.90001,-16.5,,,,,,
1475412,0.5048327,8.511575,-2.7723927,-1.722572,-1.539644,-1.669218,122.700005,-165.3,-21.900002,,,,,,
1475472,0.19738717,8.87704,-2.6964285,-0.17530599,1.8673899,-0.82317597,117.9,-160.5,-20.7,,,,,,
1475492,0.01614986,8.709559,-2.7819629,0.121952,1.79117,-0.625004,132.3,-165.3,-18.900002,,,,,,
1475512,0.11544159,8.987697,-3.0307903,0.396344,1.211898,-0.251526,127.50001,-162.90001,-14.700001,,,,,,
1475532,0.3481192,9.283777,-3.137858,0.388722,0.30488,-0.20579399,125.100006,-160.5,-20.7,,,,,,
1475552,0.40374652,9.186279,-3.100773,0.03811,-0.053354,-0.434454,117.9,-172.5,-20.1,,,,,,
1475596,-0.18004103,8.711354,-3.1564004,-0.632626,-0.015244,-0.754578,122.700005,-160.5,-13.500001,,,,,,
1475616,-0.71657526,9.236524,-3.4656403,-0.92226195,0.053354,0.182928,117.9,-155.70001,-20.7,,,,,,
1475636,-1.744783,9.343592,-3.5511749,-1.082324,0.480186,0.34298998,120.3,-170.1,-21.900002,,,,,,
1475656,-3.1994667,10.33292,-3.6307278,-1.158544,1.089946,1.25763,122.700005,-165.3,-15.900001,,,,,,
1475698,-5.4771953,9.470398,-4.8880243,-0.69360197,6.692116,0.480186,129.90001,-162.90001,-17.1,,,x,,,
1475720,-5.6165624,9.459033,-5.7409763,-1.166166,2.865872,2.926848,117.9,-167.70001,-20.1,,,x,,,
1475740,-5.2929673,10.351462,-4.735498,-2.583858,-1.471046,5.4116197,105.9,-179.70001,-18.900002,,,x,,,
1475762,-4.93767,9.840648,-3.761123,-2.7591639,-0.960372,5.4268637,108.3,-172.5,-21.300001,,,x,,,
1475784,-3.6510646,8.573781,-3.869985,-3.12502,-0.655492,5.9985137,98.700005,-162.90001,-23.7,,,x,,,
1475804,-2.3901794,8.122184,-3.3531895,-2.644834,-2.614346,6.280528,86.700005,-172.5,-24.900002,,,x,,,
1475824,-0.7506694,7.911039,-2.568426,-2.385686,-4.710396,5.686012,105.9,-182.1,-23.7,,,x,,,
1475848,0.11603974,7.0473204,-1.276437,-2.042696,-5.586926,4.565578,84.3,-179.70001,-24.300001,,,x,,,
1475869,1.1406586,6.34211,-0.861924,-0.92988396,-3.1783738,4.336918,77.100006,-174.90001,-23.7,,,x,,,
1475889,2.6455863,7.2770076,-1.4104211,-0.426832,-1.798792,5.0228977,81.9,-182.1,-23.1,,,x,,,
1475909,2.6581473,6.446187,-1.6125934,-0.396344,0.23628199,2.7134318,67.5,-182.1,-24.900002,,,x,,,
1475929,3.5081086,6.0735435,-2.510406,1.41007,0.868908,3.437522,67.5,-174.90001,-23.7,,,x,,,
1475950,4.581177,7.130462,-2.8752732,1.958854,-0.53354,5.556438,67.5,-170.1,-35.100002,,,x,,,
1476011,5.301341,7.7914104,-2.6174736,1.1280559,4.108258,1.280496,55.500004,-179.70001,-24.300001,,,x,,,
1476031,5.2762194,8.219083,-2.0600045,-0.007622,0.0,2.6905658,55.500004,-174.90001,-29.7,,,x,,,
1476051,5.30493,8.921303,-1.2728482,-0.297258,0.91463995,2.522882,38.7,-184.5,-21.300001,,,x,,,
1476071,5.2158065,8.683242,-2.216718,0.144818,2.6677,1.798792,38.7,-182.1,-24.300001,,,x,,,
1476091,5.2403307,8.530117,-1.7770828,-0.060976,1.18141,1.692084,38.7,-186.90001,-25.500002,,,x,,,
1476113,5.626731,8.577969,-1.3793176,-0.26677,1.158544,1.56251,31.500002,-182.1,-25.500002,,,x,,,
1476133,5.739182,8.859694,-1.6592486,-0.3811,2.446662,1.577754,29.1,-177.3,-20.1,,,x,,,
1476155,5.589646,8.711952,-2.4368346,0.579272,3.414656,1.699706,36.300003,-172.5,-24.300001,,,x,,,
1476175,6.2117147,9.316675,-2.535528,0.091464,0.754578,2.545748,17.1,-189.3,-23.7,,,x,,,
1476195,6.49344,9.850219,-1.5958455,-1.189032,-1.051836,2.530504,12.3,-179.70001,-21.900002,,,x,,,
1476218,6.819428,9.640868,-1.7453812,-1.280496,0.19055,1.539644,26.7,-191.70001,-18.900002,,,x,,,
1476238,7.555144,8.7304945,-1.673604,-0.769822,-1.814036,1.56251,24.300001,-172.5,-18.900002,,,x,,,
1476259,8.092875,9.323853,-1.6000324,-0.7622,-1.9131219,2.2256238,9.900001,-184.5,-20.7,,,x,,,
1476279,8.507387,9.692906,-1.2238005,-1.227142,-1.920744,0.30488,26.7,-189.3,-24.300001,,,x,,,
1476299,8.126968,9.064259,-1.146042,-0.23628199,-1.783548,-2.355198,24.300001,-189.3,-23.1,,,x,,,
1476319,8.785524,8.850721,-0.9217383,0.33536798,-1.760682,-3.132642,21.900002,-182.1,-30.300001,,,x,,,
1476339,8.079716,8.556436,-0.757249,0.297258,-0.327746,-3.551852,33.9,-177.3,-23.1,,,x,,,
1476363,6.9217105,8.466714,-1.2064544,0.80030996,0.503052,-5.129606,38.7,-189.3,-16.5,,,x,,,
1476425,4.736096,7.3152885,-1.1197237,1.06708,0.480186,-5.670768,43.5,-174.90001,-23.7,,,x,,,
1476485,2.1024725,7.342205,-1.8440747,1.166166,0.754578,-4.923812,72.3,-162.90001,-19.5,,,x,,,
1476505,1.4068322,7.351177,-1.748372,0.92988396,0.92988396,-4.710396,81.9,-172.5,-20.7,,,x,,,
1476529,-0.5963485,7.884721,-3.0200238,1.722572,4.397894,-4.9771657,81.9,-160.5,-17.1,,,,,,
1476549,-1.2118376,8.146708,-4.2527966,2.675322,3.2164838,-4.45887,93.9,-158.1,-23.7,,,,,,
1476569,-1.6993241,8.515163,-4.2737317,1.48629,-0.83842,-3.475632,84.3,-172.5,-15.900001,,,,,,
1476589,-2.4565732,9.088184,-3.4716218,0.243904,-2.2713559,-3.01069,91.5,-184.5,-17.1,,,,,,
1476612,-2.5361261,9.503894,-3.652261,0.243904,0.40396598,-3.376546,110.700005,-170.1,-15.900001,,,,,,
1476632,-2.5863702,9.646252,-4.404725,1.02897,1.234764,-3.7042918,101.100006,-162.90001,-14.1,,,,,,
1476652,-3.028996,9.523632,-4.417286,0.510674,-0.251526,-4.207344,93.9,-167.70001,-24.900002,,,,,,
1476672,-3.5715117,9.274207,-4.279713,0.754578,-0.53354,-3.971062,120.3,-177.3,-18.300001,,,,,,
1476734,-2.7598317,9.236524,-3.3125157,0.34298998,-2.05794,-1.478668,113.100006,-160.5,-17.7,,,,,,
1476756,-2.60252,8.797487,-2.8716843,0.129574,-1.089946,-1.3414719,110.700005,-172.5,-26.7,,,,,,
1476816,-1.0270115,9.213196,-3.2736366,0.53354,-1.516778,1.02897,101.100006,-170.1,-30.300001,,,,,,
1476911,0.8344094,8.917115,-3.2329628,-0.03811,-0.480186,-1.227142,110.700005,-165.3,-14.700001,,,,,,
1476931,0.60472256,8.873451,-2.9907148,0.045732,0.548784,-0.960372,108.3,-165.3,-19.5,,,,,,
1476973,0.3923818,8.997267,-3.262272,0.243904,0.861286,-0.640248,113.100006,-162.90001,-19.5,,,,,,
1477013,0.41451308,9.078016,-3.6038115,0.67835796,0.625004,-0.868908,122.700005,-162.90001,-16.5,,,,,,
1477033,0.48808467,9.287964,-3.451883,0.160062,0.053354,-0.792688,108.3,-160.5,-17.1,,,,,,
1477053,0.40494278,8.675466,-3.4297519,-0.16768399,0.56402797,-1.1356779,117.9,-165.3,-14.700001,,,,,,
1477093,0.36426908,8.429629,-3.47222,-0.11432999,-0.617382,-0.03811,117.9,-160.5,-17.1,,,,,,
1477133,-0.65616286,8.449368,-3.6492703,-0.632626,-0.243904,-0.640248,110.700005,-160.5,-17.7,,,,,,
1477153,-1.0473484,8.443386,-3.748562,-0.3811,-0.35061198,-0.221038,115.50001,-172.5,-17.7,,,,,,
1477175,-2.7903368,10.246787,-3.9303975,-0.830798,1.074702,1.074702,115.50001,-167.70001,-22.5,,,,,,
1477195,-3.6839626,10.783919,-4.367042,-1.3490939,2.301844,-0.56402797,120.3,-158.1,-18.300001,,,,,,
1477257,-6.8212223,9.945921,-6.7685857,-0.3811,3.612828,2.888738,127.50001,-167.70001,-18.900002,,,,,,
1477277,-6.1895833,9.532006,-6.14233,-2.141782,-1.432936,4.146368,108.3,-167.70001,-14.700001,,,x,,,
1477297,-5.2343493,8.470303,-4.6212525,-2.378064,-4.009172,3.460388,113.100006,-160.5,-16.5,,,x,,,
1477317,-4.306031,7.442095,-3.9232197,-1.432936,-3.528986,2.865872,101.100006,-172.5,-20.7,,,x,,,
1477337,-2.8812547,6.6914253,-3.6684108,-0.426832,-3.92533,2.82014,113.100006,-165.3,-22.5,,,x,,,
1477361,-1.1873138,6.246407,-2.8716843,-1.29574,-6.684494,2.850628,103.50001,-165.3,-24.900002,,,x,,,
1477381,-0.19080761,4.636206,-1.2285857,-2.2865999,-7.820172,2.17227,105.9,-174.90001,-21.300001,,,x,,,
1477401,1.5216757,5.237938,-0.8673073,-1.013726,-4.30643,5.167716,93.9,-170.1,-20.7,,,x,,,
1477421,3.7533472,7.0562925,-1.234567,-1.951232,-1.67684,6.722604,89.100006,-179.70001,-23.1,,,x,,,
1477445,4.990905,7.960685,-1.1346772,-2.012208,-0.510674,6.5396757,62.7,-172.5,-21.900002,,,x,,,
1477526,6.1608725,9.3782835,-1.7435868,-0.67835796,0.731712,4.176856,67.5,-177.3,-26.7,,,x,,,
1477572,6.1746297,9.773058,-2.451788,0.34298998,2.36282,3.0488,57.9,-172.5,-25.500002,,,x,,,
1477614,6.8008857,9.708459,-2.6132867,0.655492,1.8521459,2.080806,43.5,-182.1,-15.900001,,,x,,,
1477634,6.878046,9.258655,-2.9679854,0.625004,2.47715,2.461906,48.300003,-182.1,-24.300001,,,x,,,
1477674,7.828495,10.161253,-2.3249817,-0.72409,0.72409,2.6677,43.5,-179.70001,-20.1,,,x,,,
1477750,8.363833,10.13613,-1.8578321,-1.440558,-0.67835796,-1.227142,41.100002,-177.3,-27.900002,,,x,,,
1477770,8.200541,10.445969,-2.3339539,-0.525918,0.83842,-3.2088618,38.7,-179.70001,-20.7,,,x,,,
1477812,7.434917,9.372302,-1.7399979,-0.72409,-0.30488,-2.01983,43.5,-174.90001,-20.7,,,x,,,
1477832,6.8469424,9.097157,-2.330365,-1.310984,1.18141,-3.12502,41.100002,-174.90001,-26.1,,,x,,,
1477852,6.0268884,8.12637,-2.125202,-0.70122397,0.030488,-4.672286,43.5,-170.1,-22.5,,,x,,,
1477872,5.0405507,7.467217,-1.5557699,-0.442076,-1.097568,-4.969544,43.5,-174.90001,-20.7,,,x,,,
1477892,4.188795,7.5366015,-1.1221162,0.030488,-0.56402797,-4.138746,55.500004,-186.90001,-21.900002,,,x,,,
1477912,3.3663487,7.7842326,-1.2399504,-0.34298998,0.030488,-4.390272,53.100002,-179.70001,-23.1,,,x,,,
1477932,2.1407537,6.6058908,-1.3835047,0.129574,0.56402797,-5.343022,67.5,-172.5,-27.300001,,,x,,,
1477952,0.73691213,6.30024,-1.568929,0.53354,1.25763,-4.908568,72.3,-182.1,-18.900002,,,x,,,
1477974,-0.8021097,6.3349323,-2.2185123,1.02897,2.469528,-4.519846,72.3,-172.5,-18.300001,,,x,,,
1477994,-1.8249342,7.3553643,-3.2443275,1.4024479,2.812518,-3.8262439,84.3,-182.1,-21.900002,,,x,,,
1478017,-2.0737617,8.494228,-3.9387715,1.783548,1.021348,-3.368924,81.9,-179.70001,-31.500002,,,x,,,
1478057,-2.4505918,8.97035,-3.183317,-0.144818,-0.47256398,-2.393308,93.9,-162.90001,-20.1,,,x,,,
1478117,-3.1558022,9.086988,-3.5655303,-0.82317597,0.891774,-2.576236,98.700005,-170.1,-24.300001,,,x,,,
1478137,-2.5983331,9.232337,-3.5212677,-0.396344,0.327746,-2.2027578,86.700005,-158.1,-17.7,,,x,,,
1478157,-2.6844656,9.147401,-3.4046297,-0.320124,0.11432999,-2.09605,96.3,-167.70001,-22.5,,,x,,,
1478177,-2.8064868,9.078016,-3.648074,0.0,0.769822,-1.821658,98.700005,-179.70001,-17.7,,,x,,,
1478197,-2.1258001,9.235328,-3.6959255,0.28201398,-0.47256398,-1.29574,103.50001,-160.5,-26.1,,,x,,,
1478217,-1.6562579,9.197644,-3.1019695,0.3811,-0.998482,-1.006104,98.700005,-158.1,-21.900002,,,x,,,
1478237,-1.2698575,9.277198,-3.2365515,0.548784,0.442076,-1.1204339,115.50001,-167.70001,-15.3,,,x,,,
1478277,-0.6053207,8.952406,-3.2850013,0.891774,0.23628199,-1.196654,110.700005,-172.5,-28.500002,,,,,,
1478298,-0.6430037,9.142615,-3.2640662,0.739334,0.434454,-0.960372,103.50001,-158.1,-14.1,,,,,,
1478318,-0.31701577,9.347778,-3.4782014,0.586894,0.129574,-0.907018,103.50001,-162.90001,-17.1,,,,,,
1478338,-0.08792701,9.496118,-3.2646644,0.30488,-0.777444,-0.716468,115.50001,-158.1,-13.500001,,,,,,
1478358,0.18422803,9.207214,-2.970976,-0.243904,-0.95274997,-0.655492,103.50001,-177.3,-18.300001,,,,,,
1478398,0.681883,8.8489275,-2.6826713,-0.426832,-0.20579399,-0.35061198,113.100006,-170.1,-23.7,,,,,,
1478418,0.63702226,8.737673,-2.6342216,-0.449698,-0.083841994,-0.198172,120.3,-162.90001,-24.900002,,,,,,
1478439,0.75844526,8.927882,-2.7951221,-0.106708,0.28201398,-0.785066,108.3,-170.1,-25.500002,,,,,,
1478460,0.81646514,8.85431,-3.0044723,0.426832,0.297258,-1.097568,96.3,-167.70001,-21.900002,,,,,,
1478522,-0.9217383,8.691017,-3.003874,-0.53354,1.806414,-0.53354,113.100006,-172.5,-21.900002,,,,,,
1478542,-2.5331354,9.164746,-3.8412743,-0.60976,3.094532,0.388722,103.50001,-179.70001,-16.5,,,,,,
1478562,-3.576895,9.696496,-4.650562,-0.72409,2.7515419,1.021348,108.3,-184.5,-24.300001,,,x,,,
1478582,-4.208534,10.433408,-4.4609504,-0.67073596,1.554888,1.089946,108.3,-165.3,-17.1,,,x,,,
1478664,-4.0344744,9.26344,-4.0685687,-2.431418,0.198172,5.586926,101.100006,-167.70001,-15.3,,,x,,,
1478708,-1.359579,7.1561823,-3.3519933,-0.861286,0.213416,3.2317278,79.5,-174.90001,-14.1,,,x,,,
1478728,-0.07835673,6.6764717,-2.5552669,-0.213416,-3.094532,3.330814,79.5,-172.5,-15.900001,,,x,,,
1478768,0.77997845,7.4331226,-1.3583827,-1.082324,0.716468,2.93447,84.3,-165.3,-21.900002,,,x,,,
1478788,0.8278299,6.108236,-2.5989313,-0.739334,2.660078,2.309466,74.700005,-191.70001,-13.500001,,,x,,,
1478808,2.125202,7.370916,-3.4447055,0.899396,-0.07622,4.817104,77.100006,-182.1,-21.300001,,,x,,,
1478831,3.012248,7.936161,-2.414105,0.060976,-3.62045,5.312534,74.700005,-172.5,-24.300001,,,x,,,
1478893,5.9904017,8.796888,-2.68626,-1.471046,-0.80793196,7.225656,53.100002,-174.90001,-15.3,,,x,,,
1478913,6.614863,9.661803,-1.6072102,-3.2927039,-2.507638,6.8598,43.5,-177.3,-20.1,,,x,,,
1478933,5.998776,8.475686,-0.99889874,-3.35368,0.312502,4.4664917,41.100002,-191.70001,-26.7,,,x,,,
1478953,5.709275,9.101942,-2.0528266,-1.516778,1.013726,2.530504,55.500004,-191.70001,-23.7,,,x,,,
1478973,5.8540254,8.705373,-1.6879594,-1.150922,0.045732,1.6234859,48.300003,-189.3,-32.100002,,,x,,,
1478993,6.3576617,8.900966,-1.3757288,-0.57164997,-0.731712,2.660078,26.7,-186.90001,-23.7,,,x,,,
1479013,6.1513023,9.704271,-1.2279875,-0.998482,1.021348,2.888738,26.7,-189.3,-26.7,,,x,,,
1479033,5.803781,9.203028,-2.141352,-0.3811,2.2713559,0.907018,33.9,-182.1,-24.300001,,,x,,,
1479053,6.983917,9.176709,-2.301654,0.579272,0.80793196,1.8597679,21.900002,-177.3,-24.900002,,,x,,,
1479073,7.693913,9.223365,-1.3326626,-1.288118,0.144818,3.7728899,29.1,-184.5,-21.300001,,,x,,,
1479095,7.1771173,9.11869,-2.5672297,-0.846042,2.621968,3.50612,29.1,-184.5,-26.1,,,x,,,
1479136,9.012818,9.708459,-1.514498,-1.227142,-1.250008,1.6387299,14.700001,-170.1,-20.7,,,x,,,
1479156,8.360245,8.647951,-1.7088945,-1.6463519,1.798792,1.02897,12.3,-179.70001,-26.7,,,x,,,
1479176,7.4187675,9.371106,-2.5086117,-0.03811,1.8826339,-0.213416,9.900001,-177.3,-21.300001,,,x,,,
1479198,6.882233,8.992481,-2.9009933,0.70122397,-0.030488,-3.2850819,9.900001,-184.5,-28.500002,,,x,,,
1479218,7.994779,9.088782,-1.9672922,-0.358234,-3.109776,-2.59148,14.700001,-174.90001,-29.1,,,x,,,
1479238,7.4528613,8.431423,-1.0258152,-2.080806,-1.79117,-2.004586,26.7,-182.1,-21.300001,,,x,,,
1479262,6.687238,8.711354,-1.999592,-1.242386,-0.46494198,-3.46801,17.1,-174.90001,-30.900002,,,x,,,
1479282,6.2033405,8.286075,-1.7986159,0.602138,-1.928366,-6.318638,19.5,-182.1,-29.7,,,x,,,
1479302,6.0268884,8.329141,-1.506124,0.777444,-2.926848,-6.646384,21.900002,-172.5,-24.900002,,,x,,,
1479322,5.2576766,8.228055,-1.276437,-0.518296,-2.507638,-5.213448,43.5,-174.90001,-33.300003,,,x,,,
1479342,4.8850336,8.020499,-1.0742648,-0.80030996,-2.652456,-5.045764,41.100002,-174.90001,-26.1,,,x,,,
1479364,4.1451306,8.220279,-0.65496653,-0.884152,-2.141782,-5.67839,38.7,-177.3,-31.500002,,,x,,,
1479404,2.7227468,6.5628247,-0.66334057,-0.259148,-0.259148,-7.0503497,62.7,-172.5,-23.7,,,x,,,
1479431,1.7890456,6.5538526,-0.870298,0.754578,0.45731997,-6.0747337,67.5,-174.90001,-23.1,,,x,,,
1479451,0.61190027,7.031769,-1.4403282,1.3872039,1.33385,-5.975648,72.3,-177.3,-24.900002,,,x,,,
1479491,-2.3566833,8.180801,-3.4949493,2.7972739,2.545748,-5.914672,79.5,-177.3,-20.1,,,x,,,
1479533,-3.1115398,8.3524685,-3.3944614,1.166166,-1.3719599,-4.329296,98.700005,-177.3,-21.300001,,,x,,,
1479553,-3.6755886,8.756813,-3.6761868,0.518296,0.663114,-3.376546,96.3,-177.3,-18.900002,,,x,,,
1479573,-3.6809719,8.978126,-4.170253,0.82317597,0.83842,-2.987824,96.3,-165.3,-18.900002,,,x,,,
1479613,-3.3513951,9.340002,-3.6127834,0.41158798,-0.70122397,-2.309466,110.700005,-167.70001,-18.300001,,,,,,
1479633,-3.1121378,9.802965,-3.614578,0.259148,-0.41158798,-1.8750119,117.9,-174.90001,-24.300001,,,,,,
1479653,-3.091203,9.338806,-3.4207797,-0.07622,0.045732,-2.126538,113.100006,-177.3,-16.5,,,,,,
1479676,-2.97935,9.531408,-3.5416045,0.15244,-0.053354,-1.6311079,113.100006,-165.3,-22.5,,,,,,
1479736,-1.4457116,9.344788,-3.1857095,0.060976,-0.868908,-0.518296,115.50001,-165.3,-29.1,,,,,,
1479872,0.3995595,9.12168,-2.715569,-0.060976,0.82317597,0.541162,120.3,-165.3,-27.300001,,,,,,
1479991,0.17166704,8.832777,-2.5744073,-0.198172,0.34298998,-0.259148,110.700005,-162.90001,-17.1,,,,,,
1480148,-5.826511,9.686327,-6.0609827,-2.850628,-0.754578,3.3079479,105.9,-160.5,-17.1,,,x,,,
1480168,-5.042345,8.452956,-5.133861,-3.536608,-2.004586,3.902464,101.100006,-167.70001,-17.7,,,x,,,
1480212,-1.7956252,6.663911,-2.0528266,-4.0015497,-5.5488157,6.0899777,96.3,-172.5,-23.7,,,x,,,
1480232,-0.803306,6.1130214,-0.88704604,-2.7820299,-3.490876,6.379614,79.5,-189.3,-20.7,,,x,,,
1480252,0.35589507,6.0089445,-0.732127,-2.141782,-0.312502,6.753092,81.9,-179.70001,-27.300001,,,x,,,
1480272,1.4522911,6.71894,-1.1514252,-1.478668,0.663114,7.370474,89.100006,-177.3,-24.900002,,,x,,,
1480292,1.9631052,6.5634227,-0.5610581,-2.355198,-0.091464,6.920776,62.7,-186.90001,-18.900002,,,x,,,
1480312,3.0888102,6.45157,-1.200473,-1.974098,1.692084,7.721086,62.7,-174.90001,-25.500002,,,x,,,
1480332,4.827612,7.3643365,-1.7711014,-2.118916,0.69360197,9.60372,45.9,-191.70001,-27.900002,,,x,,,
1480352,6.251192,8.515163,-1.3123257,-2.7744079,-1.425314,10.868972,36.300003,-186.90001,-27.300001,,,x,,,
1480372,7.1597714,8.570192,-0.5778061,-3.6738038,-1.303362,8.948228,21.900002,-172.5,-21.300001,,,x,,,
1480392,8.673671,9.79818,-1.3063443,-2.2027578,0.80030996,9.245486,7.5000005,-177.3,-26.1,,,x,,,
1480412,8.790309,9.901659,-0.77220255,-2.926848,-0.19055,7.042728,9.900001,-191.70001,-22.5,,,x,,,
1480432,7.960087,8.812441,-0.85833514,-2.2027578,0.708846,5.495462,2.7,-184.5,-24.900002,,,x,,,
1480452,7.8171306,9.176709,-1.1795379,-1.044214,0.221038,3.871976,5.1000004,-177.3,-29.1,,,x,,,
1480474,8.475088,8.426639,-0.95702875,-0.830798,-0.121952,2.576236,-4.5,-182.1,-29.7,,,x,,,
1480494,8.293851,9.318469,-0.9462622,-0.632626,0.30488,3.551852,-2.1000001,-182.1,-26.7,,,x,,,
1480514,8.476284,9.835863,-1.45588,-0.358234,0.777444,2.7362978,-4.5,-179.70001,-26.1,,,x,,,
1480536,7.9140296,8.317178,-0.71358454,-0.33536798,-0.358234,0.007622,-11.700001,-167.70001,-24.300001,,,x,,,
1480556,9.069642,8.700587,-0.6764997,-0.07622,-0.053354,0.182928,-9.3,-184.5,-30.900002,,,x,,,
1480576,8.540285,8.237625,-0.33496007,-0.045732,1.5244,0.30488,2.7,-177.3,-32.100002,,,x,,,
1480636,7.652043,7.300933,-1.3308681,1.06708,-0.68597996,-3.2241058,5.1000004,-189.3,-23.7,,,x,,,
1480658,8.2549715,8.735878,-1.0467502,1.8978779,-0.45731997,-1.211898,-4.5,-174.90001,-24.900002,,,x,,,
1480679,7.606584,8.817823,-2.308832,2.385686,0.975616,-2.568614,-2.1000001,-182.1,-30.300001,,,x,,,
1480699,7.145416,8.443386,-2.1186223,1.745438,-0.7622,-5.434486,12.3,-179.70001,-32.7,,,x,,,
1480723,6.75124,7.806364,-1.6161823,1.56251,-0.967994,-6.70736,5.1000004,-179.70001,-23.7,,,x,,,
1480743,6.0873013,7.9588904,-2.217914,1.425314,0.40396598,-5.5488157,24.300001,-177.3,-26.7,,,x,,,
1480763,5.6961155,8.269326,-2.3824034,1.036592,0.015244,-4.87808,19.5,-189.3,-27.900002,,,x,,,
1480783,5.1817126,8.228653,-2.2861025,0.144818,-0.80030996,-5.152472,36.300003,-184.5,-23.1,,,x,,,
1480805,5.169152,8.206522,-1.7065018,-0.3811,-2.004586,-5.823208,31.500002,-194.1,-23.7,,,x,,,
1480887,0.9426733,6.589143,-1.4564781,0.960372,0.64787,-6.36437,48.300003,-191.70001,-20.7,,,x,,,
1480991,-2.3441224,9.11869,-3.0780437,1.227142,-1.699706,-4.214966,91.5,-177.3,-21.900002,,,x,,,
1481011,-2.857329,9.79818,-2.9955,0.434454,-0.40396598,-4.176856,91.5,-170.1,-17.7,,,x,,,
1481051,-3.3184972,8.759206,-3.6379056,1.021348,1.3567159,-4.786616,93.9,-167.70001,-23.1,,,x,,,
1481091,-3.3789096,9.865172,-3.7126734,1.303362,-0.015244,-2.59148,110.700005,-172.5,-18.300001,,,x,,,
1481229,-1.2931851,9.436303,-2.962004,0.030488,0.03811,-0.93750596,120.3,-167.70001,-11.700001,,,,,,
1481250,-1.1442475,8.6329975,-3.1450357,0.0,0.121952,-0.92226195,115.50001,-172.5,-10.5,,,,,,
1481290,-0.8182596,9.499706,-2.7759814,-0.068598,-0.083841994,0.15244,113.100006,-155.70001,-18.900002,,,,,,
1481369,-0.86371845,8.854909,-3.0798383,-0.07622,0.426832,-0.091464,113.100006,-155.70001,-21.300001,,,,,,
1481408,-0.4761218,8.94463,-3.2909827,0.442076,-0.47256398,0.22865999,108.3,-162.90001,-18.300001,,,,,,
1481428,-0.15611531,9.1731205,-3.1719522,0.47256398,-0.92226195,-0.030488,117.9,-172.5,-15.3,,,,,,
1481470,0.7410991,9.289759,-3.0212202,-0.129574,0.045732,-1.173788,120.3,-162.90001,-21.300001,,,,,,
1481510,1.2913907,9.791002,-3.2694495,-0.716468,0.868908,-0.792688,125.100006,-172.5,-17.7,,,,,,
1481530,1.6119953,9.604382,-3.137858,-0.80030996,1.036592,-0.846042,132.3,-172.5,-20.1,,,,,,
1481550,1.9194407,9.7993765,-3.1958778,-0.746956,1.577754,-0.64787,129.90001,-172.5,-23.1,,,,,,
1481592,2.2035587,9.4052,-3.1037638,-0.503052,0.41158798,-0.33536798,134.70001,-158.1,-17.7,,,,,,
1481612,2.334552,8.999061,-2.9338913,-0.41921,0.868908,-0.34298998,113.100006,-179.70001,-20.7,,,,,,
1481632,2.6790824,9.08938,-3.071464,-0.182928,0.632626,0.16768399,129.90001,-165.3,-28.500002,,,,,,
1481652,2.3710387,8.4386015,-2.6964285,-0.41921,-0.007622,-0.07622,122.700005,-162.90001,-21.900002,,,,,,
1481674,2.3405335,7.4917407,-2.3788147,-0.56402797,0.160062,-0.20579399,113.100006,-162.90001,-17.1,,,,,,
1481694,2.3794127,7.000067,-2.338141,-0.548784,-0.053354,0.243904,129.90001,-172.5,-21.900002,,,,,,
1481714,2.723943,7.329046,-2.2813172,-0.259148,-0.19055,1.3643379,113.100006,-162.90001,-23.7,,,,,,
1481734,2.4924617,8.126968,-2.221503,-0.449698,-0.320124,1.768304,105.9,-162.90001,-22.5,,,,,,
1481777,1.9936105,9.5661,-2.4290586,-0.754578,-0.861286,1.707328,120.3,-165.3,-19.5,,,,,,
1481797,1.8016067,10.487839,-2.426666,-0.70122397,-0.503052,1.516778,105.9,-170.1,-28.500002,,,,,,
1481817,-0.5167955,10.149888,-2.3830016,-0.55640596,1.204276,-0.33536798,108.3,-162.90001,-19.5,,,,,,
1481837,-1.6185749,9.49552,-3.4656403,0.030488,3.6738038,-0.358234,120.3,-162.90001,-21.300001,,,,,,
1481877,-1.1873138,10.724105,-3.6875515,-1.250008,-2.065562,0.20579399,105.9,-167.70001,-22.5,,,,,,
1481899,-1.234567,9.0433235,-3.05352,-0.82317597,-2.339954,-0.35061198,103.50001,-165.3,-17.1,,,,,,
1481919,-1.4409264,8.386562,-2.882451,-0.373478,-0.7622,0.47256398,105.9,-172.5,-21.900002,,,,,,
1481982,-0.74708056,7.484563,-2.488873,-0.602138,-2.118916,-1.684462,115.50001,-160.5,-20.1,,,,,,
1482151,-0.14594689,9.461426,-3.225785,0.586894,2.827762,-1.082324,115.50001,-167.70001,-21.900002,,,,,,
1482266,-4.7809567,10.589523,-4.4154916,-1.211898,5.388754,0.83842,117.9,-167.70001,-20.7,,,,,,
1482308,-6.6375923,10.104429,-5.576487,-0.95274997,1.509156,2.309466,115.50001,-162.90001,-21.900002,,,,,,
1482328,-6.3558674,10.50339,-5.334239,-2.2789779,0.312502,3.109776,101.100006,-160.5,-18.900002,,,x,,,
1482369,-3.383695,8.9865,-4.6051025,-1.6234859,-3.50612,0.53354,105.9,-170.1,-24.900002,,,x,,,
1482389,-1.3589808,7.776457,-3.7461693,-1.234764,-5.9832697,-0.40396598,108.3,-167.70001,-26.1,,,x,,,
1482409,-0.17226517,7.518657,-2.7173636,-1.326228,-8.513774,0.853664,108.3,-165.3,-15.3,,,x,,,
1482432,1.2907926,7.847038,-1.6107991,-1.669218,-7.835416,2.7591639,117.9,-165.3,-26.1,,,x,,,
1482453,1.7118852,7.689726,-0.82184845,-2.2637339,-5.5793037,3.3079479,108.3,-179.70001,-23.1,,,x,,,
1482474,2.3752258,7.860795,-0.8344094,-2.2027578,-3.2698379,3.8262439,105.9,-177.3,-27.300001,,,x,,,
1482494,2.6425955,7.6568284,-0.35170805,-2.2789779,-2.47715,2.873494,96.3,-162.90001,-19.5,,,x,,,
1482514,2.6952322,6.9946837,-0.37922263,-1.29574,-0.777444,2.461906,103.50001,-182.1,-25.500002,,,x,,,
1482534,3.003874,7.387664,-0.71179014,-0.480186,0.47256398,4.093014,89.100006,-177.3,-23.1,,,x,,,
1482556,3.0870159,7.8972816,-1.4038415,-0.3811,2.32471,4.9466777,91.5,-172.5,-33.300003,,,x,,,
1482576,3.7013087,8.73528,-2.3309631,0.80793196,3.2850819,5.777476,84.3,-172.5,-21.900002,,,x,,,
1482596,4.6834593,9.658215,-2.9165452,0.731712,1.227142,6.150954,69.9,-170.1,-21.900002,,,x,,,
1482618,5.9975796,10.102634,-2.4033384,-0.548784,-1.425314,5.8918056,72.3,-162.90001,-24.900002,,,x,,,
1482638,6.5706005,9.606774,-1.5013388,-1.1356779,-0.792688,4.657042,72.3,-184.5,-19.5,,,x,,,
1482658,6.1680503,8.414676,-1.9822458,-0.510674,1.775926,3.536608,62.7,-184.5,-25.500002,,,x,,,
1482678,6.5843577,9.643261,-2.6892507,1.310984,2.55337,3.8033779,60.300003,-172.5,-22.5,,,x,,,
1482698,7.0724425,11.682928,-2.9153488,0.297258,1.280496,2.385686,50.7,-179.70001,-21.300001,,,x,,,
1482738,5.5537577,8.12637,-1.8093824,0.373478,1.4024479,-1.3643379,69.9,-174.90001,-26.1,,,x,,,
1482761,6.1058435,9.964464,-2.6760917,1.227142,1.6006199,1.432936,48.300003,-186.90001,-26.1,,,x,,,
1482781,5.9246063,11.0195875,-2.6952322,-0.091464,0.365856,1.051836,53.100002,-186.90001,-20.7,,,x,,,
1482801,6.4910474,10.173216,-2.008564,-0.785066,-0.861286,-0.07622,60.300003,-182.1,-20.7,,,x,,,
1482841,6.585554,9.492529,-1.673604,-1.6387299,0.64787,-0.92226195,57.9,-170.1,-26.1,,,x,,,
1482861,6.719538,9.149195,-1.681978,-1.059458,-0.40396598,-1.265252,62.7,-167.70001,-27.900002,,,x,,,
1482881,6.773371,9.360339,-1.2770352,-0.975616,-1.036592,-2.2789779,45.9,-184.5,-28.500002,,,x,,,
1482901,6.3181844,8.601894,-0.57421726,-1.06708,-1.089946,-3.7881339,57.9,-172.5,-27.900002,,,x,,,
1482923,5.8384733,8.110819,-0.2757439,-0.289636,-0.129574,-4.100636,67.5,-170.1,-21.900002,,,x,,,
1482943,5.120104,7.757316,-0.790745,0.80030996,1.509156,-3.559474,62.7,-165.3,-20.1,,,x,,,
1482963,4.35807,7.6239305,-1.1179292,1.242386,1.1128119,-2.949714,57.9,-189.3,-20.7,,,x,,,
1482985,3.8275168,8.168241,-1.3924768,1.089946,0.884152,-2.7210538,81.9,-170.1,-26.1,,,x,,,
1483005,3.1869059,7.818925,-1.4953574,0.80793196,0.94512796,-3.4299,84.3,-174.90001,-19.5,,,x,,,
1483025,1.9343944,7.073639,-1.518685,0.20579399,0.884152,-4.108258,81.9,-170.1,-23.7,,,x,,,
1483045,0.4521961,6.0567956,-1.8638135,1.211898,2.301844,-4.4512477,79.5,-172.5,-26.1,,,x,,,
1483065,-0.35410064,7.1783137,-2.9350874,1.989342,2.6905658,-2.614346,86.700005,-179.70001,-15.3,,,x,,,
1483085,-1.5198812,7.8739543,-3.28859,1.9131219,1.41007,-2.85825,98.700005,-165.3,-21.900002,,,x,,,
1483105,-2.065986,8.293851,-3.5810819,2.103672,0.426832,-2.865872,89.100006,-160.5,-15.900001,,,x,,,
1483125,-2.3901794,8.994276,-3.4907625,1.074702,-1.56251,-2.652456,96.3,-179.70001,-26.1,,,x,,,
1483145,-2.7335134,9.540978,-3.1498208,0.365856,-0.853664,-3.12502,96.3,-167.70001,-21.300001,,,x,,,
1483165,-2.8657029,9.541576,-3.5918486,0.716468,1.082324,-4.138746,105.9,-182.1,-18.900002,,,x,,,
1483185,-3.0947917,9.252673,-3.9136496,1.310984,0.274392,-4.565578,113.100006,-167.70001,-19.5,,,x,,,
1483209,-3.7282252,9.468005,-3.719253,1.272874,0.213416,-4.070148,105.9,-167.70001,-15.900001,,,x,,,
1483229,-3.6444852,9.744946,-4.0434465,1.29574,1.097568,-3.567096,113.100006,-162.90001,-18.300001,,,x,,,
1483249,-3.4740143,9.371106,-4.217506,1.234764,0.289636,-3.2469718,117.9,-158.1,-17.1,,,x,,,
1483269,-3.0421553,9.306506,-4.0314837,1.29574,-0.617382,-2.2789779,110.700005,-162.90001,-24.900002,,,x,,,
1483289,-2.464349,9.463819,-3.4566681,0.55640596,-1.539644,-1.3948259,108.3,-165.3,-14.700001,,,x,,,
1483310,-2.134174,9.493725,-3.1599894,0.060976,0.46494198,-1.33385,115.50001,-167.70001,-16.5,,,x,,,
1483330,-1.6748003,9.34718,-3.8460593,0.510674,1.821658,-1.44818,113.100006,-167.70001,-14.700001,,,x,,,
1483350,-1.3326626,9.365125,-3.8939106,0.510674,0.11432999,-1.006104,115.50001,-170.1,-21.300001,,,,,,
1483370,-1.4062341,8.760402,-3.51409,0.30488,-0.510674,-0.640248,117.9,-172.5,-20.1,,,,,,
1483390,-0.836802,9.217981,-3.547586,0.182928,-0.396344,0.0,127.50001,-155.70001,-17.1,,,,,,
1483410,-0.78835243,9.273608,-3.5045197,-0.106708,-0.602138,-0.182928,120.3,-162.90001,-17.1,,,,,,
1483430,-0.39357808,9.627709,-3.5290434,-0.22865999,-0.586894,-0.373478,120.3,-162.90001,-20.7,,,,,,
1483452,-0.16448931,8.556436,-3.250907,-0.731712,-0.396344,-0.94512796,122.700005,-167.70001,-13.500001,,,,,,
1483472,0.08792701,8.60309,-3.2556922,-0.56402797,-0.106708,-0.03811,132.3,-155.70001,-21.900002,,,,,,
1483533,0.3505118,8.831581,-3.0260053,-0.40396598,0.26677,-0.45731997,134.70001,-160.5,-15.900001,,,,,,
1483651,-3.4841828,9.532006,-4.167262,-0.28201398,1.493912,0.960372,127.50001,-153.3,-19.5,,,,,,
1483689,-5.3575664,10.684628,-4.4113045,-1.585376,3.92533,0.47256398,117.9,-167.70001,-23.1,,,,,,
1483709,-5.5292335,10.038633,-5.5687113,-0.480186,5.312534,0.03811,105.9,-165.3,-20.1,,,,,,
1483749,-5.4484844,9.776049,-5.0130363,-2.431418,0.106708,4.1921,113.100006,-160.5,-22.5,,,,,,
1483769,-4.785742,9.500903,-4.4023323,-2.2865999,-0.396344,3.864354,105.9,-167.70001,-21.300001,,,,,,
1483789,-3.5045197,8.86089,-4.0607924,-1.989342,-1.501534,2.911604,125.100006,-155.70001,-18.900002,,,,,,
1483809,-2.4535825,7.7292037,-3.1898966,-1.79117,-3.589962,2.149404,96.3,-174.90001,-18.300001,,,x,,,
1483829,-1.0072727,6.8744574,-1.6562579,-0.716468,-3.833866,2.55337,101.100006,-160.5,-24.300001,,,x,,,
1483849,-0.074169725,7.113714,-1.388888,-0.41921,-3.407034,2.850628,110.700005,-174.90001,-18.900002,,,x,,,
1483869,0.6077133,6.4366164,-0.65377027,-0.92226195,-1.478668,2.7591639,108.3,-179.70001,-23.7,,,x,,,
1483933,4.065578,7.911039,-1.0910128,-2.911604,-0.28201398,5.52595,93.9,-179.70001,-23.1,,,x,,,
1483989,5.7379856,9.825096,-1.0030857,-1.250008,-0.55640596,4.778994,60.300003,-179.70001,-23.7,,,x,,,
1484009,5.2409286,9.118092,-1.5282553,-0.30488,0.060976,2.865872,72.3,-165.3,-14.700001,,,x,,,
1484053,5.3820906,9.90764,-1.6586505,0.541162,-1.051836,3.589962,62.7,-172.5,-25.500002,,,x,,,
1484074,4.676282,9.127662,-1.8865429,0.67835796,-1.044214,2.2027578,60.300003,-172.5,-20.7,,,x,,,
1484114,6.90257,9.738366,-1.5342367,-0.53354,-2.355198,4.61131,53.100002,-179.70001,-20.1,,,x,,,
1484134,7.576677,10.208506,-1.2740445,-0.746956,-0.213416,5.0838737,36.300003,-186.90001,-30.300001,,,x,,,
1484157,7.003656,9.674364,-2.0845282,0.213416,1.25763,3.330814,41.100002,-174.90001,-20.7,,,x,,,
1484177,7.811149,9.554736,-2.1610906,0.160062,0.213416,2.2865999,24.300001,-174.90001,-21.900002,,,x,,,
1484200,7.571294,9.295142,-1.873982,0.449698,0.846042,1.1356779,33.9,-189.3,-24.900002,,,x,,,
1484221,7.0467224,9.7886095,-2.4876766,1.3414719,1.455802,-0.23628199,31.500002,-179.70001,-22.5,,,x,,,
1484241,7.6239305,9.657617,-2.8986008,0.83842,-0.121952,-3.003068,36.300003,-179.70001,-26.1,,,x,,,
1484261,7.382879,8.311196,-1.6939409,-0.320124,-1.425314,-4.0625257,38.7,-177.3,-18.900002,,,x,,,
1484284,6.748249,8.001957,-1.5713216,0.46494198,0.602138,-3.2469718,50.7,-177.3,-24.300001,,,x,,,
1484304,6.1345544,8.911732,-2.0241158,1.150922,1.8978779,-3.376546,38.7,-177.3,-23.7,,,x,,,
1484324,5.824716,8.980518,-2.577398,1.493912,2.157026,-5.289668,50.7,-172.5,-17.7,,,x,,,
1484344,5.51428,8.186783,-2.2747378,1.021348,1.074702,-6.562542,45.9,-165.3,-10.5,,,x,,,
1484412,4.0901017,7.668791,-2.484686,-0.160062,-0.594516,-5.617414,81.9,-162.90001,-12.900001,,,x,,,
1484432,3.6678126,7.6927166,-2.2663636,-1.150922,-1.3567159,-5.4725957,72.3,-182.1,-18.900002,,,x,,,
1484472,2.3686461,6.2637534,-1.8428785,-1.318606,-1.8369019,-6.158576,93.9,-189.3,-24.900002,,,x,,,
1484492,0.1489376,5.492149,-1.9068798,-0.373478,-0.72409,-5.975648,89.100006,-170.1,-22.5,,,x,,,
1484512,-1.0359837,6.715351,-2.8854418,0.769822,1.425314,-3.902464,103.50001,-172.5,-18.900002,,,x,,,
1484532,-1.6658282,8.318375,-3.6953273,1.265252,1.189032,-3.3003259,110.700005,-179.70001,-19.5,,,x,,,
1484552,-2.326178,8.433816,-3.4985383,0.26677,-1.33385,-4.161612,98.700005,-167.70001,-24.300001,,,x,,,
1484572,-3.6420925,8.607277,-2.8680956,0.23628199,-1.227142,-4.009172,117.9,-170.1,-24.900002,,,x,,,
1484592,-4.3269663,9.892089,-3.4088168,0.777444,2.393308,-3.2927039,113.100006,-179.70001,-20.1,,,x,,,
1484612,-4.4376225,10.295237,-4.4651375,1.3567159,3.551852,-3.58234,113.100006,-170.1,-27.300001,,,x,,,
1484632,-4.643982,9.4757805,-4.584168,0.82317597,0.625004,-4.131124,115.50001,-170.1,-15.900001,,,x,,,
1484652,-4.6619263,9.770067,-3.9985857,0.891774,-1.288118,-2.522882,127.50001,-158.1,-15.3,,,x,,,
1484712,-3.5774932,8.927882,-4.489063,1.585376,0.548784,-2.05794,125.100006,-167.70001,-14.1,,,,,,
1484770,-2.4487972,9.164746,-3.3501987,-0.28201398,-1.150922,-1.036592,129.90001,-155.70001,-17.7,,,,,,
1484791,-1.7645217,8.704775,-3.719253,0.144818,-0.632626,-0.579272,125.100006,-165.3,-18.900002,,,,,,
1484832,-1.3045498,8.7735615,-3.3824985,-0.099086,-0.861286,0.716468,122.700005,-162.90001,-17.1,,,,,,
1484852,-0.93190676,8.9865,-3.3490026,-0.213416,-0.967994,1.097568,137.1,-158.1,-20.1,,,,,,
1484872,-0.69982725,8.945827,-3.3442173,-0.373478,-0.487808,1.021348,125.100006,-155.70001,-15.3,,,,,,
1484892,-0.4438221,8.875844,-3.6283352,0.19055,0.0,0.95274997,132.3,-153.3,-14.1,,,,,,
1484957,0.4300648,8.857301,-3.2688513,-0.3811,-1.06708,-0.015244,132.3,-155.70001,-19.5,,,,,,
1484978,0.4761218,8.987697,-3.116923,-0.518296,-0.518296,0.121952,122.700005,-155.70001,-20.7,,,,,,
1485021,0.23985533,8.597109,-2.782561,-0.739334,-0.586894,-0.060976,122.700005,-172.5,-18.900002,,,,,,
1485188,-2.2268863,9.204224,-3.5260527,-0.99086,1.6539739,0.967994,125.100006,-162.90001,-14.700001,,,,,,
