time,sensor_accX,sensor_accY,sensor_accZ,sensor_gyroX,sensor_gyroY,sensor_gyroZ,sensor_magX,sensor_magY,sensor_magZ,label_Boxing_slip_left,label_Boxing_slip_right,label_Boxing_pullback,label_Boxing_roll_left,label_Boxing_roll_right,label_Boxing_recording_cut
209014,2.045649,7.776457,-1.794429,0.17530599,0.82317597,-3.109776,57.9,-167.70001,-24.300001,,,,,,
209037,1.8034011,7.479778,-2.1909976,0.92988396,1.920744,-2.469528,57.9,-165.3,-30.300001,,,,,,
209099,2.572613,8.699391,-3.0577068,0.602138,1.1356779,-1.920744,79.5,-172.5,-21.300001,,,,,,
209121,3.0104535,9.467407,-3.4548738,1.3719599,0.899396,-1.006104,67.5,-167.70001,-23.7,,,,,,
209141,3.237748,9.877135,-3.8753684,0.983238,0.632626,-1.318606,67.5,-174.90001,-12.3,,,,,,
209163,3.06309,9.484753,-3.8544333,0.594516,-0.625004,-1.783548,69.9,-165.3,-27.900002,,,,,,
209183,3.2562904,9.744348,-3.6373074,0.67835796,-1.547266,-1.6463519,72.3,-160.5,-21.900002,,,,,,
209203,3.0804362,8.921303,-3.191691,-0.34298998,-1.806414,-2.088428,81.9,-167.70001,-23.7,,,,,,
209226,2.9895186,8.372208,-2.8262255,-0.72409,-1.463424,-1.737816,81.9,-170.1,-23.1,,,,,,
209246,2.8932176,8.396731,-2.5821831,-1.097568,-0.72409,-1.204276,77.100006,-162.90001,-23.7,,,,,,
209266,2.5851738,8.407497,-2.7490652,-1.3719599,-0.121952,-1.1204339,86.700005,-167.70001,-27.300001,,,,,,
209286,2.45119,8.336917,-2.7598317,-1.25763,-0.388722,-1.265252,79.5,-174.90001,-17.7,,,,,,
209330,2.2023625,7.9935827,-2.5624444,-0.868908,-0.548784,-0.785066,69.9,-174.90001,-23.7,,,,,,
209390,2.3130188,8.637783,-2.7598317,-0.510674,-0.640248,-0.746956,81.9,-179.70001,-19.5,,,,,,
209410,2.159296,8.427237,-2.7604299,-0.41158798,-0.655492,-0.899396,89.100006,-170.1,-32.100002,,,,,,
209430,2.3710387,9.251477,-2.8549364,0.198172,-0.830798,-0.67073596,84.3,-177.3,-18.900002,,,,,,
209450,3.0822308,10.585935,-3.3519933,0.243904,-0.67073596,-0.320124,81.9,-165.3,-21.300001,,,,,,
209470,2.2125309,8.241214,-2.5618463,-0.746956,-2.2180018,-2.599102,86.700005,-174.90001,-17.1,,,,,,
209511,2.3471131,9.179102,-2.310028,-0.243904,-1.33385,0.198172,86.700005,-162.90001,-21.300001,,,,,,
209531,2.2669618,8.926087,-2.0677803,-0.487808,-1.3643379,-0.068598,81.9,-170.1,-21.300001,,,,,,
209552,2.339337,9.366919,-2.113239,-0.091464,-1.821658,0.22865999,93.9,-172.5,-26.7,,,,,,
209592,1.0264133,9.413574,-1.4343468,0.16768399,-2.644834,0.67073596,77.100006,-167.70001,-33.300003,,,,,,
209648,-0.5000475,8.957191,-1.8315138,0.16768399,-2.484772,-0.388722,91.5,-174.90001,-20.7,,,,,,
209753,-0.91515875,10.090672,-1.6993241,-0.40396598,-0.68597996,-2.309466,98.700005,-170.1,-24.900002,,,,,,
209773,-1.0682833,9.841845,-1.6436969,-0.312502,-0.60976,-2.576236,77.100006,-167.70001,-26.7,,,,,,
209815,-0.90558845,9.613952,-1.7274369,0.099086,0.95274997,-1.036592,86.700005,-165.3,-25.500002,,,,,,
209855,-0.8840553,9.004444,-1.9170482,0.891774,1.3414719,-0.07622,96.3,-167.70001,-21.900002,,,,,,
209875,-0.67291087,9.107325,-2.0109568,0.95274997,0.80793196,0.525918,98.700005,-167.70001,-27.900002,,,,,,
209919,-0.2697625,9.299927,-2.0324898,0.106708,0.358234,-0.053354,84.3,-162.90001,-22.5,,,,,,
209939,-0.18482618,9.368115,-2.0151436,0.0,-0.068598,-0.442076,108.3,-177.3,-25.500002,,,,,,
209959,0.1794429,9.726403,-2.0025826,0.144818,-0.121952,-0.80793196,91.5,-172.5,-24.300001,,,,,,
209983,0.1447506,9.41477,-2.012751,-0.083841994,0.106708,-1.570132,89.100006,-165.3,-24.300001,,,,,,
210003,0.2254999,9.009828,-1.9858347,0.11432999,0.28201398,-1.661596,101.100006,-179.70001,-29.7,,,,,,
210023,0.27394947,8.883021,-2.1186223,0.3811,0.708846,-1.44818,98.700005,-162.90001,-20.7,,,,,,
210043,0.36965236,8.919508,-2.339337,0.327746,0.884152,-1.18141,101.100006,-162.90001,-23.1,,,,,,
210063,0.5377305,9.014613,-2.3022523,0.28201398,0.594516,-1.1204339,101.100006,-172.5,-21.900002,,,,,,
210105,0.51799184,9.30232,-2.6689138,0.121952,1.280496,-2.050318,105.9,-165.3,-21.900002,,,,,,
210293,1.8183546,9.207813,-3.3723302,-0.251526,1.44818,-1.928366,115.50001,-162.90001,-29.7,,,,,,
210313,1.8452711,9.200037,-3.4668367,0.442076,0.92988396,-2.195136,117.9,-170.1,-21.900002,,,,,,
210355,1.0048802,7.6759686,-3.0445478,0.16768399,-0.182928,-2.126538,129.90001,-160.5,-20.1,,,,,,
210375,0.58976895,7.3535695,-2.9931073,-0.007622,-0.11432999,-1.097568,129.90001,-158.1,-23.7,,,,,,
210395,0.77220255,8.731093,-3.5164826,0.55640596,0.137196,0.41158798,137.1,-160.5,-18.300001,,,,,,
210419,0.69504213,9.075026,-3.5613432,0.213416,-0.785066,0.182928,137.1,-165.3,-21.900002,,,,,,
210439,0.88465345,9.078016,-3.1581948,0.022866,-1.432936,0.503052,127.50001,-172.5,-26.7,,,,,,
210459,1.3990564,10.141514,-3.3525913,0.243904,-1.158544,1.18141,125.100006,-167.70001,-18.300001,,,,,,
210479,1.234567,9.262842,-2.9667892,-0.47256398,-1.463424,0.274392,134.70001,-158.1,-21.900002,,,,,,
210539,0.77997845,9.478771,-3.3101232,0.007622,-0.15244,0.251526,117.9,-165.3,-20.7,x,,,,,
210583,0.92233646,8.61266,-3.1593912,-0.967994,-0.060976,-0.899396,120.3,-167.70001,-26.1,x,,,,,
210603,1.0228245,8.953602,-3.4991364,-1.3414719,0.87653,-1.006104,120.3,-170.1,-20.7,x,,,,,
210663,1.1400605,8.839356,-4.5973268,-1.8978779,1.455802,-2.957336,132.3,-158.1,-25.500002,x,,,,,
210951,-3.6749904,6.070553,-0.82424104,-3.513742,17.423891,-7.3780956,218.70001,-110.100006,-23.1,x,,,,,
210971,-4.990905,8.496023,-0.6573591,-3.025934,15.625099,-6.5091877,197.1,-138.90001,-20.1,x,,,,,
211011,-6.2816973,11.143404,-0.23566833,-2.637212,12.332396,-6.798824,216.3,-114.9,-17.7,x,,,,,
211051,-7.517461,12.596891,-0.049047723,-1.928366,9.1463995,-4.702774,221.1,-114.9,-11.700001,x,,,,,
211073,-8.437405,13.829663,-1.032993,-0.92226195,6.295772,-2.36282,213.90001,-112.50001,-12.3,x,,,,,
211113,-9.040931,14.234607,-1.3996545,-0.785066,-2.97258,-0.289636,204.3,-110.100006,-11.700001,x,,,,,
211153,-5.438914,15.272983,0.20815375,-2.454284,-9.123534,2.378064,221.1,-112.50001,-11.1,x,,,,,
211190,-6.013131,12.879214,-0.57601166,0.396344,-11.730258,5.22107,218.70001,-124.50001,-19.5,x,,,,,
211210,-4.740283,12.686612,0.5724228,0.525918,-12.50008,6.067112,213.90001,-126.9,-13.500001,x,,,,,
211250,-4.3903694,10.163646,-0.099889874,2.423796,-12.027515,8.033587,197.1,-131.70001,-23.7,x,,,,,
211290,-3.5990262,8.5899315,0.06041244,2.949714,-10.304944,7.179924,187.5,-136.5,-29.1,x,,,,,
211310,-3.363358,8.2663355,-0.85654074,3.902464,-9.230242,7.58389,182.70001,-143.70001,-25.500002,x,,,,,
211330,-2.3273742,8.817823,-1.0443577,3.3079479,-10.564092,7.5610237,187.5,-138.90001,-30.300001,x,,,,,
211372,-1.9882272,7.400823,-1.4744225,3.7347798,-8.498529,5.4725957,163.5,-148.5,-28.500002,x,,,,,
211438,-1.4092249,7.566509,-2.464349,3.589962,-7.0198617,4.634176,153.90001,-146.1,-23.1,x,,,,,
211459,-0.7763896,7.4905443,-2.447601,2.8048959,-6.051868,3.102154,170.70001,-148.5,-23.7,x,,,,,
211500,-0.6083114,6.1088343,-4.1947765,4.4055157,-3.6890478,2.873494,153.90001,-158.1,-18.900002,x,,,,,
211520,-0.024523862,6.894794,-3.2604773,2.97258,-7.522914,4.4055157,141.90001,-146.1,-31.500002,x,,,,,
211540,0.40434465,7.4444876,-2.5474908,2.446662,-6.1052217,4.024416,137.1,-162.90001,-24.900002,x,,,,,
211560,0.52516955,7.0844054,-2.8974047,2.2942219,-3.39179,2.621968,139.5,-155.70001,-29.7,x,,,,,
211583,0.69085515,7.0915833,-3.4351351,2.500016,-2.85825,2.17227,125.100006,-153.3,-18.900002,x,,,,,
211603,1.083835,7.4450855,-3.6767848,2.7210538,-3.54423,2.339954,141.90001,-165.3,-20.1,,,,,,
211623,1.2411467,8.277102,-3.3908725,2.195136,-4.214966,2.6905658,127.50001,-160.5,-23.1,,,,,,
211643,1.3721399,9.115101,-3.7461693,1.75306,-2.599102,2.09605,139.5,-155.70001,-18.900002,,,,,,
211663,1.0784518,9.18927,-4.342518,2.2027578,-1.02897,0.83842,122.700005,-160.5,-20.7,,,,,,
211683,1.2812222,9.890294,-5.0471306,2.7591639,-0.769822,0.95274997,139.5,-160.5,-19.5,,,,,,
211706,1.3230922,10.173216,-5.2738266,1.814036,-1.455802,-0.121952,132.3,-162.90001,-25.500002,,,,,,
211726,0.8338113,9.054688,-5.0226064,1.440558,-1.9131219,-1.5929979,134.70001,-162.90001,-17.7,,,,,,
211746,0.7829692,8.39075,-4.8832393,1.326228,-1.8673899,-1.242386,117.9,-177.3,-29.7,,,,,,
211766,0.9211402,8.67726,-4.56084,0.28201398,-1.3795819,-0.579272,132.3,-150.90001,-23.1,,,,,,
211789,0.9911229,8.746046,-4.655347,0.053354,0.396344,-0.899396,132.3,-150.90001,-17.7,,,,,,
211809,1.0072727,8.412881,-4.537513,-0.251526,0.312502,-0.998482,127.50001,-158.1,-15.900001,,,,,,
211829,1.2710538,8.75143,-4.1660657,-0.41921,0.160062,-0.708846,137.1,-158.1,-18.900002,x,,,,,
211849,1.192099,8.745448,-3.8939106,-0.95274997,1.3872039,-1.204276,122.700005,-150.90001,-27.900002,x,,,,,
211869,1.1227144,8.263345,-4.2366467,-1.166166,2.903982,-1.48629,144.3,-153.3,-21.300001,x,,,,,
211912,1.1777436,9.385462,-4.748657,-1.692084,4.504602,-1.478668,137.1,-160.5,-26.7,x,,,,,
211932,0.8882423,8.876442,-5.3097153,-1.272874,6.3719916,-2.59148,137.1,-155.70001,-20.7,x,,,,,
211952,1.0365818,9.010426,-6.2099204,-0.80030996,6.5854077,-2.500016,139.5,-162.90001,-21.300001,x,,,,,
211996,0.8816627,8.374599,-5.0848136,-3.2774599,6.8826656,-2.93447,149.1,-150.90001,-17.7,x,,,,,
212046,0.9630102,8.627016,-5.5956273,-3.6814258,5.7165,-3.50612,153.90001,-146.1,-25.500002,x,,,,,
212091,1.2495207,7.676567,-2.794524,-6.532054,7.43145,-5.213448,151.5,-146.1,-15.900001,x,,,,,
212111,1.0742648,6.6202464,-2.8686936,-6.219552,12.141846,-6.311016,165.90001,-146.1,-24.900002,x,,,,,
212153,-0.3283805,4.8288083,-2.5217707,-5.37351,12.34764,-7.629622,165.90001,-138.90001,-15.900001,x,,,,,
212173,-0.89003676,4.539905,-2.175446,-4.718018,12.286664,-8.0945635,170.70001,-134.1,-25.500002,x,,,,,
212194,-1.1221162,3.6259427,-1.6161823,-2.408552,9.992442,-7.172302,177.90001,-136.5,-15.3,x,,,,,
212214,-1.0467502,5.1697497,0.06280501,-4.024416,8.025966,-5.5183277,194.70001,-155.70001,-16.5,x,,,,,
212274,-3.5254548,7.1190977,-0.65377027,-0.213416,15.2439995,-6.875044,201.90001,-124.50001,-16.5,x,,,,,
212314,-4.5716066,11.654218,0.26079035,-1.554888,12.118979,-7.8582816,206.70001,-124.50001,-17.7,x,,,,,
212334,-7.019208,11.141609,-1.3482143,-0.182928,11.798856,-7.911636,211.50002,-124.50001,-23.1,x,,,,,
212356,-6.890607,12.358232,-1.3171108,-0.868908,6.28815,-5.4421077,209.1,-112.50001,-9.900001,x,,,,,
212396,-7.5629196,15.0474825,-1.0539279,-0.95274997,1.41007,-4.4207597,216.3,-98.100006,-6.3,x,,,,,
212417,-7.0969663,15.38663,-0.9115699,-1.1128119,-2.2256238,-2.446662,209.1,-95.700005,-12.3,x,,,,,
212437,-7.0186095,15.342367,0.10347874,-0.518296,-3.483254,-1.33385,218.70001,-102.9,-10.5,x,,,,,
212460,-8.430227,15.010398,-1.0383762,1.3719599,-4.070148,-0.17530599,228.3,-93.3,-14.1,x,,,,,
212480,-8.534304,15.156344,-1.5761068,1.692084,-6.6311398,2.2942219,233.1,-102.9,-9.900001,x,,,,,
212501,-6.895392,14.50078,-1.0264133,1.158544,-9.60372,4.275942,225.90001,-117.3,-9.3,x,,,,,
212564,-5.0878043,10.887399,-1.8129714,2.522882,-13.612892,9.6418295,218.70001,-122.100006,-18.900002,x,,,,,
212584,-4.023708,9.639672,-1.3661586,2.17227,-13.658624,9.1768875,201.90001,-122.100006,-9.3,x,,,,,
212607,-3.8293114,8.238821,-1.4271691,2.423796,-12.065626,8.414688,199.50002,-134.1,-17.1,x,,,,,
212627,-3.5631378,7.113714,-2.1569035,2.89636,-10.343054,8.018344,189.90001,-131.70001,-17.1,x,,,,,
212687,-1.8793652,6.831989,-2.196381,3.117398,-11.89032,7.4085836,182.70001,-143.70001,-25.500002,x,,,,,
212707,-1.4522911,6.488655,-1.828523,2.926848,-10.838484,6.6311398,173.1,-141.3,-23.1,x,,,,,
212727,-0.85953146,7.1603694,-2.4858823,3.132642,-8.5899935,6.4786997,163.5,-138.90001,-21.300001,x,,,,,
212750,-0.954038,6.6034985,-2.46076,2.7515419,-8.452798,4.771372,163.5,-143.70001,-20.1,x,,,,,
212810,0.4426258,6.7261176,-2.3824034,2.179892,-4.908568,2.621968,151.5,-158.1,-22.5,x,,,,,
212830,0.6214706,6.514973,-2.53493,2.47715,-4.550334,2.2942219,139.5,-153.3,-28.500002,x,,,,,
212850,0.916355,6.806867,-2.5660334,2.522882,-4.214966,2.2865999,149.1,-158.1,-27.300001,x,,,,,
212871,0.64838696,6.605293,-3.150419,2.7286758,-1.722572,1.158544,139.5,-158.1,-25.500002,x,,,,,
212891,0.96899164,7.1687436,-3.9692767,2.89636,-1.8597679,2.355198,146.70001,-160.5,-24.900002,x,,,,,
212911,1.192697,8.234634,-3.844863,1.3567159,-2.7362978,2.82014,149.1,-153.3,-24.300001,x,,,,,
212931,1.1400605,8.605483,-3.9519305,0.69360197,-1.79117,1.94361,127.50001,-155.70001,-21.300001,,,,,,
212995,1.1621917,10.370603,-4.974157,0.46494198,-1.1280559,0.182928,127.50001,-153.3,-23.7,,,,,,
213038,0.61369467,8.883619,-4.0482316,-0.297258,-1.661596,-1.8673899,127.50001,-158.1,-21.900002,,,,,,
213058,0.21832219,8.561818,-4.2563853,0.17530599,0.0,-1.509156,141.90001,-158.1,-14.700001,,,,,,
213078,0.27634206,8.673073,-4.6403933,0.868908,-0.274392,-0.80030996,144.3,-150.90001,-24.300001,,,,,,
213101,0.67410713,9.076819,-3.588858,0.23628199,-2.964958,-0.487808,141.90001,-158.1,-27.300001,,,,,,
213125,0.5443101,8.541482,-3.0361738,0.099086,-0.716468,-0.983238,137.1,-150.90001,-27.900002,,,,,,
213145,0.24404234,7.924198,-3.4925568,0.28201398,1.516778,-1.166166,146.70001,-148.5,-21.900002,,,,,,
213208,0.48389766,8.338711,-4.3784065,-1.463424,1.806414,-0.632626,149.1,-158.1,-21.900002,x,,,,,
213234,0.38759664,8.631203,-4.816247,-1.8597679,3.3003259,-0.091464,149.1,-158.1,-25.500002,x,,,,,
213254,0.5030382,9.116297,-5.459251,-1.5929979,3.7347798,0.015244,144.3,-150.90001,-21.900002,x,,,,,
213296,0.91934574,9.41477,-5.5495706,-1.5929979,1.920744,-1.18141,141.90001,-160.5,-21.900002,x,,,,,
213317,0.89601815,9.155176,-5.5029154,-2.01983,3.3003259,-1.8292799,156.3,-141.3,-26.1,x,,,,,
213338,0.72435117,9.180897,-6.196761,-1.425314,5.52595,-1.3948259,127.50001,-158.1,-26.7,x,,,,,
213358,0.74528617,9.1797,-5.9036713,-2.675322,4.893324,-2.43904,146.70001,-160.5,-23.1,x,,,,,
213378,0.3786245,8.106033,-5.3862777,-2.7896519,5.617414,-4.009172,149.1,-146.1,-20.1,x,,,,,
213439,1.0605075,7.082611,-2.7795703,-4.489358,9.077802,-6.196686,151.5,-150.90001,-21.900002,x,,,,,
213494,-0.45458865,4.233058,-1.9146557,-5.5640597,14.504665,-9.840002,173.1,-143.70001,-20.7,x,,,,,
213534,-0.82842803,4.6589355,-1.4947593,-4.260698,12.675385,-9.03207,189.90001,-136.5,-20.1,x,,,,,
213555,0.43185923,5.4837747,0.29009935,-6.5701637,10.891838,-8.757678,206.70001,-126.9,-18.300001,x,,,,,
213575,-0.2171259,4.5123906,1.799214,-6.28815,15.686075,-9.352194,197.1,-131.70001,-14.1,x,,,,,
213641,-6.3229694,9.728197,-1.8943188,-0.87653,14.893388,-8.887252,221.1,-100.50001,-14.1,x,,,,,
213661,-5.9467373,11.686518,0.1531246,-2.347576,10.44214,-8.468041,230.70001,-112.50001,-5.7000003,x,,,,,
213681,-7.007245,10.713937,-0.04187001,-1.8750119,10.533604,-9.390304,221.1,-100.50001,-15.3,x,,,,,
213702,-8.141324,11.673956,-0.41271865,-1.3719599,8.07932,-6.204308,223.50002,-105.3,-7.5000005,x,,,,,
213722,-7.8966837,13.576051,-0.8110819,-1.692084,4.504602,-3.7805119,230.70001,-105.3,-5.7000003,x,,,,,
213742,-8.3417015,13.682521,-0.22430362,-1.516778,0.487808,-3.7500238,233.1,-93.3,-7.5000005,x,,,,,
213762,-8.627614,14.40089,-0.974973,0.015244,-0.53354,-1.21952,235.50002,-107.700005,-5.7000003,x,,,,,
213782,-7.3416066,15.702449,-1.1239107,-0.07622,-3.376546,0.785066,245.1,-95.700005,-14.1,x,,,,,
213802,-8.936256,14.186755,-1.2883999,1.242386,-4.634176,1.097568,225.90001,-93.3,-10.5,x,,,,,
213825,-7.451067,15.7168045,-1.9314036,0.625004,-7.743952,4.702774,233.1,-107.700005,-14.1,x,,,,,
213845,-8.059379,14.537267,-1.8099806,0.426832,-9.1768875,4.222588,218.70001,-100.50001,-5.7000003,x,,,,,
213865,-9.359143,11.412568,-2.673101,0.853664,-11.311048,5.8613176,235.50002,-110.100006,-16.5,x,,,,,
213885,-5.8629975,13.322438,-1.1915008,0.022866,-15.571746,10.640312,218.70001,-112.50001,-14.700001,x,,,,,
213909,-4.1104383,11.293537,0.074169725,0.518296,-13.818686,10.190614,218.70001,-114.9,-13.500001,x,,,,,
213929,-4.0350723,9.856798,-0.54610455,1.455802,-11.265316,8.978716,201.90001,-122.100006,-20.7,x,,,,,
213949,-4.57699,8.199942,-1.6466876,2.660078,-10.160126,7.972612,204.3,-122.100006,-18.300001,x,,,,,
213969,-3.736001,8.480471,-1.9236279,3.323192,-11.669282,8.559505,201.90001,-134.1,-27.300001,x,,,,,
213989,-3.2712438,8.225662,-1.6795855,3.056422,-12.012272,8.018344,185.1,-129.3,-18.900002,x,,,,,
214009,-2.5415094,7.8584023,-2.008564,3.033556,-10.983302,7.58389,189.90001,-146.1,-18.300001,x,,,,,
214029,-2.2914858,7.171136,-1.8823559,2.7515419,-11.181474,7.0960817,180.3,-143.70001,-26.7,x,,,,,
214049,-2.1126409,6.7661934,-2.1491277,3.612828,-10.426896,7.538158,170.70001,-138.90001,-22.5,x,,,,,
214069,-1.873982,6.9593935,-2.4924617,3.6585598,-8.521396,7.728708,175.5,-146.1,-21.900002,x,,,,,
214091,-1.7334183,6.79311,-2.7843556,3.361302,-8.1555395,7.057972,156.3,-148.5,-21.300001,x,,,,,
214111,-1.5426108,6.295455,-2.6216607,3.7347798,-8.72719,6.684494,156.3,-160.5,-29.1,x,,,,,
214132,-0.66453683,7.448674,-2.6629324,3.7119138,-8.635726,7.538158,144.3,-160.5,-29.1,x,,,,,
214193,-0.23148133,6.2063313,-2.615081,2.2789779,-4.26832,2.637212,146.70001,-155.70001,-23.7,x,,,,,
214215,0.39597064,6.823615,-3.0463421,2.7439198,-5.419242,3.376546,137.1,-158.1,-27.900002,x,,,,,
214255,1.0300022,7.2070246,-2.9446578,2.317088,-3.948196,1.821658,134.70001,-155.70001,-15.3,x,,,,,
214275,1.4708335,7.693315,-3.2850013,2.454284,-3.2393498,2.111294,137.1,-155.70001,-20.1,x,,,,,
214295,1.5318441,8.444583,-3.3759189,1.8521459,-2.637212,2.05794,141.90001,-158.1,-29.1,x,,,,,
214315,1.489376,8.527724,-3.6349149,1.8369019,-1.455802,1.234764,139.5,-177.3,-29.7,x,,,,,
214375,1.2261931,8.813039,-4.002773,0.769822,-1.196654,-0.853664,117.9,-167.70001,-29.7,x,,,,,
214395,1.0156468,9.091175,-4.306031,0.541162,-0.213416,-0.53354,122.700005,-155.70001,-14.1,,,,,,
214415,0.72076225,9.072633,-4.7289186,0.899396,0.487808,-0.754578,129.90001,-155.70001,-18.300001,,,,,,
214435,0.6262557,9.058875,-4.8096676,0.884152,-1.166166,-0.67073596,127.50001,-158.1,-20.7,,,,,,
214455,0.4581775,9.153382,-4.3311534,0.594516,-1.48629,-0.655492,129.90001,-160.5,-20.7,,,,,,
214475,0.28890306,8.6437645,-4.356275,0.53354,-0.92226195,-1.013726,132.3,-165.3,-24.300001,,,,,,
214495,0.28052905,8.369815,-4.1218033,0.525918,-1.326228,-0.28201398,129.90001,-150.90001,-17.1,,,,,,
214517,0.33137122,8.8919935,-3.7718897,0.07622,-1.044214,0.503052,137.1,-155.70001,-23.7,,,,,,
214537,0.3062492,8.630605,-3.5380156,-0.60976,-0.23628199,0.434454,127.50001,-155.70001,-21.300001,,,,,,
214577,0.5861801,8.6114645,-3.166569,-0.884152,-0.198172,0.80793196,127.50001,-160.5,-22.5,,,,,,
214632,1.5623494,8.874049,-3.3442173,-0.83842,-0.7622,0.80793196,139.5,-160.5,-21.300001,,,,,,
214671,1.9152538,8.618044,-3.5577543,-1.3643379,-0.510674,0.46494198,117.9,-165.3,-20.7,,,,,,
214732,1.4259728,8.911732,-4.5793824,-2.103672,1.692084,-0.716468,120.3,-155.70001,-24.300001,,,,,,
214791,1.1597992,9.420154,-5.157787,-1.920744,3.8033779,-0.785066,127.50001,-150.90001,-27.900002,x,,,,,
214811,1.6048176,9.582251,-5.6985083,-1.928366,4.336918,-1.554888,129.90001,-158.1,-21.300001,x,,,,,
214851,1.9445628,7.985807,-5.112926,-3.2469718,4.489358,-2.118916,129.90001,-160.5,-19.5,x,,,,,
214875,2.2095401,8.117398,-4.575196,-3.7728899,5.44973,-2.141782,139.5,-160.5,-23.1,x,,,,,
214935,1.5569662,4.7929196,-2.2998598,-4.024416,10.548848,-8.26987,151.5,-150.90001,-24.900002,x,,,,,
215115,-6.958197,10.335911,-1.8165601,-1.6006199,18.651033,-9.481768,199.50002,-124.50001,-12.3,x,,,,,
215165,-7.1854916,12.965945,-0.5849838,-2.09605,6.760714,-6.4329677,218.70001,-93.3,-11.700001,x,,,,,
215213,-8.074332,14.381151,-0.43066293,-1.3948259,1.478668,-3.940574,218.70001,-102.9,-8.700001,x,,,,,
215233,-8.060575,15.393209,-2.0432563,-0.160062,0.846042,-1.471046,218.70001,-100.50001,-6.3,x,,,,,
215276,-8.795692,13.719605,-1.5461996,0.320124,-5.388754,1.3948259,221.1,-110.100006,-11.700001,x,,,,,
215298,-7.2309504,13.892468,-1.5426108,0.373478,-9.45128,6.158576,225.90001,-100.50001,-13.500001,x,,,,,
215318,-6.383382,12.382756,-1.0862277,0.449698,-11.6845255,7.309498,228.3,-110.100006,-15.3,x,,,,,
215341,-6.623237,10.232431,-1.4786094,1.577754,-11.798856,8.856764,216.3,-110.100006,-18.300001,x,,,,,
215403,-2.8058887,9.482959,-1.9936105,1.71495,-13.086974,10.678422,192.3,-124.50001,-17.1,x,,,,,
215531,-1.0886202,7.8637857,-2.1563053,1.577754,-9.314084,7.3628516,156.3,-150.90001,-24.900002,x,,,,,
215570,-1.0766573,7.1932673,-2.761028,1.974098,-7.35523,4.626554,141.90001,-155.70001,-22.5,x,,,,,
215590,-0.48090696,7.5706954,-2.6581473,2.042696,-8.071698,4.184478,144.3,-155.70001,-22.5,x,,,,,
215633,-0.013159146,5.511289,-2.6096978,2.36282,-5.762232,2.7896519,139.5,-148.5,-20.1,x,,,,,
215653,0.13817103,5.547178,-2.2986634,1.5244,-5.419242,3.338436,139.5,-172.5,-22.5,x,,,,,
215694,0.9534399,6.2852864,-2.4541807,2.309466,-4.596066,3.643316,144.3,-160.5,-26.7,,,,,,
215714,1.5467978,7.1669493,-2.3949645,2.644834,-3.490876,3.140264,132.3,-160.5,-23.1,,,,,,
215734,1.8458692,7.789616,-2.6055107,2.995446,-2.126538,2.027452,122.700005,-162.90001,-23.7,,,,,,
215754,2.179035,8.095267,-2.8902268,3.2698379,-1.768304,0.907018,125.100006,-167.70001,-16.5,,,,,,
215815,1.2531096,9.012818,-3.7581322,1.8673899,0.213416,-0.129574,122.700005,-158.1,-17.7,,,,,,
215934,0.5891708,9.936351,-4.2228894,0.106708,0.708846,-1.455802,115.50001,-158.1,-20.7,,,,,,
215954,0.013757288,8.790907,-4.276124,-0.160062,1.021348,-1.730194,122.700005,-160.5,-19.5,,,,,,
215994,0.3134269,8.942836,-4.1259904,0.655492,-1.318606,1.1204339,129.90001,-158.1,-17.7,,,,,,
216018,0.12321745,8.399722,-3.664224,0.20579399,-0.655492,0.7622,137.1,-158.1,-27.300001,,,,,,
216038,0.44741094,8.861488,-4.0231094,0.655492,-0.518296,1.272874,125.100006,-162.90001,-23.7,,,,,,
216061,0.6268538,9.048109,-3.740786,-0.129574,-1.272874,0.907018,134.70001,-155.70001,-23.7,,,,,,
216103,1.0180393,8.891396,-3.4907625,-0.739334,-0.87653,0.907018,113.100006,-143.70001,-21.900002,,,,,,
216123,1.0963961,9.064259,-3.447098,-0.853664,-0.92226195,0.891774,122.700005,-150.90001,-20.7,x,,,,,
216146,1.5204794,9.320862,-2.9841354,-1.8369019,-0.40396598,0.28201398,115.50001,-155.70001,-17.1,x,,,,,
216166,1.5587605,8.991285,-3.242533,-2.538126,1.56251,-0.41921,115.50001,-155.70001,-20.7,x,,,,,
216186,1.2261931,8.694008,-4.0524187,-2.408552,3.483254,-0.785066,127.50001,-170.1,-24.300001,x,,,,,
216206,1.422384,8.975135,-5.030382,-1.760682,3.955818,-0.655492,127.50001,-158.1,-17.7,x,,,,,
216226,1.4720298,8.843544,-5.3121076,-2.7134318,3.033556,-1.25763,127.50001,-155.70001,-23.7,x,,,,,
216308,2.6114922,9.491333,-5.560935,-3.7500238,3.147886,-2.964958,132.3,-165.3,-21.900002,x,,,,,
216469,-1.1029756,3.4106112,-1.9864328,0.487808,13.330877,-9.60372,185.1,-138.90001,-17.1,x,,,,,
216489,-3.3041418,2.8716843,-1.6143879,0.967994,12.492457,-10.419273,182.70001,-138.90001,-20.1,x,,,,,
216531,-2.9470503,10.450156,0.30684733,-2.59148,6.36437,-5.0991178,192.3,-124.50001,-14.1,x,,,,,
216552,-3.4925568,8.724513,-0.8906349,-1.44818,13.330877,-9.580853,187.5,-119.700005,-13.500001,x,,,,,
216572,-4.6583376,9.787414,-2.7048025,-0.960372,13.940638,-8.30798,197.1,-124.50001,-11.1,x,,,,,
216592,-4.6206546,11.600983,-2.7789721,-3.08691,10.731775,-8.018344,194.70001,-122.100006,-17.1,x,,,,,
216612,-5.1769276,11.811529,-1.8799634,-4.0472817,9.039692,-8.247004,194.70001,-126.9,-7.5000005,x,,,,,
216632,-6.3277545,13.195034,-1.9906198,-4.0472817,8.628104,-7.01224,204.3,-110.100006,-12.3,x,,,,,
216652,-6.150106,13.393618,-1.8973095,-4.5579557,5.762232,-6.3872356,213.90001,-114.9,-11.700001,x,,,,,
216674,-6.878046,14.225635,-0.88884044,-3.170752,4.184478,-5.403998,209.1,-100.50001,-12.3,x,,,,,
216694,-8.422451,13.618519,-2.1604924,-1.1128119,3.170752,-4.34454,223.50002,-107.700005,-6.3,x,,,,,
216714,-6.9426455,16.125935,-1.4457116,-1.272874,-0.525918,0.17530599,228.3,-107.700005,-10.5,x,,,,,
216734,-6.847541,16.57155,-1.527059,-0.503052,-0.70122397,1.280496,223.50002,-98.100006,-8.700001,x,,,,,
216758,-8.238223,14.720897,-2.7855518,0.480186,-2.903982,1.8597679,216.3,-107.700005,-12.900001,x,,,,,
216778,-7.208221,14.119164,-2.3459167,-0.434454,-7.58389,5.198204,235.50002,-107.700005,-12.3,x,,,,,
216798,-5.7427707,13.646033,-1.468441,-0.487808,-10.06104,6.9283977,209.1,-114.9,-12.900001,x,,,,,
216818,-5.9598966,11.864764,-1.543807,0.525918,-9.954331,7.179924,213.90001,-110.100006,-12.3,x,,,,,
216838,-5.643479,11.238508,-2.3094301,0.640248,-9.420792,8.849142,211.50002,-110.100006,-13.500001,x,,,,,
216898,-3.9967914,8.604286,-3.2072427,1.425314,-11.410133,10.122016,192.3,-129.3,-22.5,x,,,,,
216918,-2.6557548,7.474395,-2.0946968,0.442076,-13.826307,10.160126,173.1,-141.3,-15.3,x,,,,,
216959,-1.3990564,6.564021,-2.2771304,1.996964,-11.333914,10.053418,170.70001,-141.3,-26.7,x,,,,,
216981,-0.7757914,6.9294863,-2.3040466,1.951232,-11.577818,9.329328,165.90001,-158.1,-22.5,x,,,,,
217002,-0.50184196,7.15379,-2.2322695,1.8750119,-10.487872,7.553402,153.90001,-153.3,-28.500002,x,,,,,
217022,0.117236026,7.366729,-2.6001275,2.118916,-9.847624,5.853696,134.70001,-158.1,-20.7,x,,,,,
217062,0.42348522,6.529927,-2.1700628,2.09605,-10.038174,3.3079479,132.3,-158.1,-24.900002,x,,,,,
217144,0.6220687,7.18908,-2.020527,2.065562,-5.3963757,1.966476,129.90001,-165.3,-26.1,x,,,,,
217251,1.422384,9.172523,-3.5511749,2.378064,0.19055,1.707328,122.700005,-148.5,-21.900002,x,,,,,
217272,1.5761068,9.667785,-4.00038,2.2408679,0.830798,0.716468,120.3,-170.1,-19.5,x,,,,,
217312,0.86611104,9.003248,-4.1313734,1.737816,0.72409,-0.754578,120.3,-167.70001,-22.5,x,,,,,
217356,0.64360183,9.722216,-4.2605724,1.250008,1.021348,-0.746956,127.50001,-160.5,-23.1,,,,,,
217429,0.6962384,8.691615,-3.8101707,0.41158798,-1.516778,0.434454,117.9,-153.3,-14.1,,,,,,
217449,0.7297344,8.646156,-3.7138698,0.274392,0.259148,0.46494198,122.700005,-150.90001,-18.900002,,,,,,
217492,1.0048802,8.772365,-3.7210474,0.259148,-0.82317597,0.64787,127.50001,-155.70001,-18.300001,,,,,,
217512,1.1795379,8.782534,-3.1773355,-0.297258,-0.41158798,0.503052,134.70001,-150.90001,-17.7,,,,,,
217533,1.2094451,8.93506,-3.2473183,-0.35061198,-0.045732,0.426832,122.700005,-162.90001,-15.900001,,,,,,
217553,1.1101533,9.07981,-3.3364415,-0.525918,0.099086,0.121952,115.50001,-167.70001,-20.7,,,,,,
217573,0.9253272,8.847133,-3.2568884,-0.708846,-0.022866,-0.28201398,117.9,-158.1,-21.300001,,,,,,
217593,1.0539279,8.772963,-3.2084389,-0.525918,-0.297258,-0.327746,115.50001,-158.1,-21.300001,,,,,,
217616,1.317709,9.301124,-3.1324747,-0.853664,0.083841994,-0.41921,139.5,-162.90001,-16.5,x,,,,,
217676,1.3781214,9.667785,-3.6887476,-1.516778,1.8369019,-0.72409,129.90001,-165.3,-17.1,x,,,,,
217696,0.7458843,9.42135,-4.3156013,-2.423796,4.0015497,-1.509156,134.70001,-160.5,-18.900002,x,,,,,
217716,0.14415246,8.299832,-5.2098255,-1.722572,6.196686,-2.332332,132.3,-165.3,-20.1,x,,,,,
217739,0.14534874,7.349981,-6.6160593,-0.602138,6.128088,-1.265252,144.3,-158.1,-14.1,x,,,,,
217759,1.1645844,7.702885,-6.5747876,-3.422278,2.317088,0.853664,129.90001,-153.3,-26.7,x,,,,,
217779,1.5761068,8.544473,-5.6213474,-4.207344,2.7820299,1.3567159,125.100006,-162.90001,-23.1,x,,,,,
217801,2.1892033,9.948314,-6.003561,-3.117398,5.777476,1.3414719,129.90001,-153.3,-20.7,x,,,,,
217821,2.8130665,10.722311,-5.6231422,-5.0228977,4.283564,-1.585376,132.3,-158.1,-20.7,x,,,,,
217841,2.6515677,9.212598,-3.501529,-6.425346,3.7652678,-5.52595,132.3,-167.70001,-26.7,x,,,,,
217861,2.0426583,6.991693,-2.2663636,-6.966508,9.07018,-8.147918,139.5,-162.90001,-30.300001,x,,,,,
217881,1.6454914,5.737387,-2.7682056,-6.150954,14.702838,-8.704324,137.1,-160.5,-21.300001,x,,,,,
217902,1.1077608,4.6990113,-3.07924,-4.870458,15.495525,-9.22262,156.3,-160.5,-21.900002,x,,,,,
217922,0.30325848,3.5433989,-2.564239,-3.88722,14.573264,-9.931466,158.70001,-155.70001,-21.900002,x,,,,,
217942,-0.31940836,3.280216,-1.999592,-1.3414719,14.740948,-9.367437,175.5,-150.90001,-24.300001,x,,,,,
217962,-0.6896588,3.276029,-1.9224315,-1.1128119,14.679972,-9.75616,158.70001,-136.5,-16.5,x,,,,,
217982,-2.3895812,2.5415094,-1.5755086,-0.23628199,13.948259,-11.692148,177.90001,-138.90001,-16.5,x,,,,,
218004,-1.912263,5.532224,-1.908076,0.92226195,10.068662,-7.9040136,187.5,-134.1,-12.900001,x,,,,,
218024,-2.7012136,6.7027903,0.98215073,-1.1432999,9.420792,-9.07018,182.70001,-131.70001,-20.1,x,,,,,
218044,-4.082924,8.204129,0.12082488,0.33536798,16.62358,-9.67994,197.1,-117.3,-13.500001,x,,,,,
218064,-5.237938,11.928167,-2.2657657,0.594516,18.551947,-8.086942,201.90001,-124.50001,-8.700001,x,,,,,
218084,-5.522654,11.433503,-2.6192682,-1.958854,13.437586,-10.907082,204.3,-105.3,-9.3,x,,,,,
218104,-5.9790373,9.217383,-0.916355,-2.599102,9.123534,-10.480249,206.70001,-105.3,-12.900001,x,,,,,
218124,-6.576582,10.853304,-1.037778,-1.3795819,10.647934,-6.646384,218.70001,-112.50001,-8.700001,x,,,,,
218144,-6.4701123,12.48444,-1.8034011,-1.821658,8.056454,-5.25918,206.70001,-114.9,-11.1,x,,,,,
218166,-6.589143,13.307485,-1.2393522,-1.425314,4.413138,-4.748506,216.3,-100.50001,-6.9,x,,,,,
218186,-7.379888,14.48164,-1.8416822,0.015244,3.2164838,-3.605206,218.70001,-86.100006,-9.900001,x,,,,,
218206,-7.3792896,14.116773,-2.6073053,0.129574,-0.426832,-2.126538,221.1,-107.700005,-8.700001,x,,,,,
218228,-6.936664,14.5911,-1.4738243,0.099086,-3.094532,-0.221038,223.50002,-93.3,-11.700001,x,,,,,
218248,-8.260354,14.559398,-3.1151285,1.3719599,-2.7439198,0.853664,223.50002,-90.9,-6.9,x,,,,,
218272,-6.76081,15.372274,-2.7030082,-0.617382,-9.016826,3.50612,213.90001,-100.50001,-8.700001,x,,,,,
218292,-6.869074,13.446852,-1.9894235,-0.60976,-10.465006,4.15399,221.1,-102.9,-8.1,x,,,,,
218312,-5.861203,13.197427,-1.6855669,-0.33536798,-11.303426,7.172302,221.1,-90.9,-6.3,x,,,,,
218335,-4.9974847,12.769156,-1.0198338,-0.57164997,-11.638794,8.910118,223.50002,-110.100006,-7.5000005,x,,,,,
218355,-4.685852,11.672162,-1.1639862,0.160062,-10.586958,9.611341,201.90001,-119.700005,-9.3,x,,,,,
218397,-3.8466575,10.146299,-1.7681106,1.1051899,-10.800374,9.336949,204.3,-124.50001,-23.1,x,,,,,
218417,-3.3753207,8.237625,-2.5002377,2.32471,-11.524464,9.22262,187.5,-138.90001,-20.7,x,,,,,
218437,-2.8854418,8.426639,-2.627044,2.606724,-12.202822,9.916222,189.90001,-136.5,-17.7,x,,,,,
218479,-2.0761542,7.5066943,-2.6838675,2.164648,-12.309529,9.131156,185.1,-146.1,-20.1,x,,,,,
218505,-1.0126561,7.066461,-2.8017018,2.080806,-11.966539,7.5610237,170.70001,-148.5,-23.1,x,,,,,
218525,-0.99231917,6.602302,-2.9859297,2.949714,-12.23331,5.807964,168.3,-155.70001,-21.900002,x,,,,,
218568,-0.37204492,6.4856644,-2.6049128,3.7805119,-11.882698,2.47715,168.3,-153.3,-18.900002,x,,,,,
218590,0.085534446,5.7194433,-2.243036,3.528986,-10.015307,-0.22865999,170.70001,-150.90001,-11.700001,x,,,,,
218610,-0.09211402,4.623047,-2.8674974,3.910086,-8.064075,0.129574,158.70001,-150.90001,-21.300001,x,,,,,
218632,0.34572664,5.5908422,-3.3370397,4.237832,-9.07018,3.6585598,153.90001,-150.90001,-21.300001,x,,,,,
218652,0.598143,6.631013,-2.5582576,3.2774599,-9.657074,4.657042,163.5,-153.3,-30.900002,x,,,,,
218674,0.8930275,6.8349795,-2.556463,3.109776,-7.820172,4.085392,144.3,-153.3,-21.300001,x,,,,,
218697,0.9773656,6.7829413,-2.6258476,2.583858,-6.623518,3.140264,146.70001,-155.70001,-24.900002,x,,,,,
218717,1.1430513,6.6363964,-2.6635306,2.195136,-5.556438,2.2256238,137.1,-150.90001,-20.1,x,,,,,
218759,1.8967113,8.045621,-3.5499785,2.812518,-3.2012398,1.227142,137.1,-160.5,-14.700001,x,,,,,
218779,1.9224315,8.351871,-4.125392,2.675322,-1.684462,-0.22865999,144.3,-162.90001,-16.5,x,,,,,
218799,1.5097128,8.6329975,-4.694824,3.422278,-1.272874,-0.548784,134.70001,-158.1,-23.1,x,,,,,
218819,1.547994,9.755114,-5.0052605,2.835384,-1.44818,-0.07622,149.1,-155.70001,-23.1,x,,,,,
218839,1.4331505,10.646347,-5.216405,1.8445239,-0.72409,-0.792688,137.1,-153.3,-15.3,,,,,,
218901,0.37264308,9.871752,-4.7014036,0.754578,0.480186,-2.431418,161.1,-150.90001,-19.5,,,,,,
218990,-2.067182,8.235232,-4.395753,-0.83842,3.551852,-1.272874,141.90001,-155.70001,-19.5,,,,,,
219010,-2.564239,8.101249,-4.4986334,-0.655492,3.612828,0.57164997,163.5,-148.5,-19.5,,,,,,
219050,-2.777776,8.737673,-4.426258,-0.81555396,2.7744079,1.745438,153.90001,-153.3,-17.1,,,,,,
219070,-2.3716369,9.401611,-4.2653575,-0.632626,1.768304,2.2103798,156.3,-148.5,-17.7,,,,,,
219090,-2.2364566,9.533203,-3.6767848,-1.25763,1.775926,1.455802,158.70001,-153.3,-30.300001,,,,,,
219110,-2.046247,9.951304,-3.9860249,-0.91463995,2.6829438,0.87653,149.1,-148.5,-18.300001,,,,,,
219133,-2.1533146,9.6588125,-4.084718,-0.81555396,1.684462,-0.11432999,129.90001,-158.1,-18.300001,,,,,,
219153,-2.2197087,8.482265,-3.6498685,-0.663114,0.34298998,-0.80793196,139.5,-150.90001,-25.500002,,,,,,
219176,-1.9062816,7.999564,-3.137858,-0.434454,-0.95274997,-0.053354,141.90001,-155.70001,-16.5,,,,,,
219196,-1.5904622,8.103043,-2.5498836,-0.785066,-0.83842,0.7622,144.3,-158.1,-21.300001,,,,,,
219216,-1.3912805,7.6807537,-2.484686,-0.99086,0.67073596,0.739334,141.90001,-150.90001,-15.3,,,,,,
219240,-1.2447355,7.0509095,-2.1909976,-0.80030996,0.327746,1.425314,149.1,-153.3,-17.7,,,,,,
219260,-0.8696999,7.9212074,-1.9888253,-0.594516,0.83842,2.13416,139.5,-155.70001,-16.5,,,,,,
219282,-0.6962384,8.179007,-2.129389,-0.708846,1.722572,1.577754,134.70001,-160.5,-24.300001,,,,,,
219302,-0.3200065,7.9935827,-2.1156316,-0.625004,1.211898,1.4024479,149.1,-155.70001,-14.700001,,,,,,
219326,-0.029309006,9.024781,-1.4648521,-1.432936,1.265252,1.204276,144.3,-160.5,-24.300001,,,,,,
219347,-0.038879294,9.627709,-2.385394,-1.25763,3.7957559,0.091464,125.100006,-158.1,-12.900001,,,,,,
219367,-0.33137122,9.34419,-3.2066445,-1.06708,3.117398,-0.998482,139.5,-162.90001,-21.900002,,,,,,
219427,-0.49526238,9.220374,-3.459061,-1.509156,1.928366,-0.95274997,149.1,-150.90001,-18.900002,,,,,,
219547,0.7177716,9.240112,-3.3615634,-0.731712,1.265252,-0.746956,137.1,-150.90001,-24.300001,,,,,,
219590,0.40314835,9.47279,-3.3741245,-0.213416,0.60976,-0.46494198,137.1,-148.5,-22.5,,,,,,
219610,0.34273592,9.288562,-3.1869059,-0.243904,0.015244,-0.45731997,137.1,-170.1,-26.1,,,,,,
219653,0.09570287,7.8877115,-2.7089896,-0.525918,-0.983238,-0.144818,137.1,-150.90001,-15.3,,,,,,
219675,0.732127,9.323853,-2.7227468,-0.83842,-0.625004,0.67073596,134.70001,-158.1,-15.900001,,,,,,
219696,0.8433816,8.350076,-2.9434617,-1.204276,-0.068598,-0.17530599,144.3,-153.3,-15.3,,,,,,
219716,1.0365818,7.869767,-2.7119803,-1.250008,-0.769822,0.213416,129.90001,-150.90001,-13.500001,,,,,,
219780,1.2967739,8.908143,-3.7850487,-0.975616,1.9054999,-0.312502,132.3,-155.70001,-16.5,x,,,,,
219820,1.2584928,8.361441,-4.469324,-0.891774,2.09605,-1.280496,134.70001,-148.5,-18.900002,x,,,,,
219895,1.5761068,8.333926,-5.3450055,-0.998482,3.635694,-2.446662,149.1,-153.3,-18.300001,x,,,,,
219935,1.439132,8.516359,-5.6440773,-0.602138,3.7881339,-4.11588,146.70001,-160.5,-15.900001,x,,,,,
219955,0.98753405,8.160464,-5.187694,-0.40396598,2.850628,-4.9009457,137.1,-158.1,-23.1,x,,,,,
219999,0.45757937,7.676567,-2.790935,-2.042696,4.093014,-7.705842,161.1,-150.90001,-24.300001,x,,,,,
220039,-0.77280074,5.2199936,-2.4667416,-3.2927039,8.963471,-10.830862,168.3,-136.5,-14.1,x,,,,,
220088,-2.8680956,4.0584,-2.4039366,-1.684462,12.759228,-9.5275,194.70001,-124.50001,-22.5,x,,,,,
220267,-8.222074,13.946899,-3.2628698,-0.487808,8.635726,-4.9466777,223.50002,-93.3,-5.7000003,x,,,,,
220313,-9.44707,12.973123,-2.6240532,0.358234,0.541162,-2.385686,228.3,-86.100006,-3.9,x,,,,,
220334,-8.941041,15.826265,-4.1941786,0.792688,-0.93750596,1.6463519,223.50002,-88.5,-3.3000002,x,,,,,
220374,-8.792104,13.291335,-3.2108314,-1.06708,-9.664696,4.161612,225.90001,-90.9,-8.700001,x,,,,,
220394,-7.840458,12.560404,-3.1857095,-0.975616,-11.135742,7.3628516,225.90001,-93.3,-12.3,x,,,,,
220414,-7.4857593,11.584235,-2.610894,-1.051836,-13.07173,8.971094,223.50002,-98.100006,-8.700001,x,,,,,
220434,-6.7518377,10.018296,-2.887236,-0.64787,-13.551916,11.150986,204.3,-119.700005,-8.700001,x,,,,,
220494,-3.2497108,8.711952,-1.1849213,0.083841994,-13.269901,10.807996,199.50002,-126.9,-15.900001,x,,,,,
220514,-2.6144829,8.714345,-1.7453812,0.45731997,-12.42386,9.41317,197.1,-131.70001,-12.3,x,,,,,
220534,-2.108454,7.839262,-1.3494105,0.182928,-12.91929,7.027484,185.1,-136.5,-20.1,x,,,,,
220554,-1.3912805,7.1896787,-0.9115699,0.56402797,-12.04276,6.112844,180.3,-134.1,-19.5,x,,,,,
220616,-1.4086267,6.5424876,-1.631734,1.684462,-7.5762677,8.521396,175.5,-155.70001,-21.900002,x,,,,,
220872,1.0682833,8.192166,-5.8941007,2.195136,-1.150922,-2.995446,129.90001,-158.1,-16.5,,,,,,
220932,0.669322,9.088782,-4.4699225,-1.18141,-2.500016,-0.221038,117.9,-162.90001,-17.1,,,,,,
221032,0.64240557,7.8691688,-3.4817903,-0.320124,1.6234859,-0.518296,125.100006,-160.5,-22.5,,,,,,
221052,0.85235375,8.908143,-4.6039066,-0.144818,1.234764,0.541162,137.1,-158.1,-26.7,,,,,,
221095,1.233969,8.686233,-4.329957,-0.95274997,-0.64787,-2.576236,129.90001,-155.70001,-27.900002,x,,,,,
221137,1.0599093,8.609072,-6.011337,-1.082324,4.0320377,-6.051868,137.1,-153.3,-23.1,x,,,,,
221157,0.899607,7.3398123,-6.087899,-1.41007,1.051836,-6.654006,134.70001,-158.1,-24.900002,x,,,,,
221181,1.3494105,7.537798,-5.5573463,-1.974098,0.640248,-4.657042,137.1,-158.1,-27.300001,x,,,,,
221201,1.5156943,8.417666,-5.751743,-2.40093,2.964958,-3.7652678,151.5,-146.1,-26.7,x,,,,,
221264,1.7549515,7.6711836,-4.2480116,-3.323192,4.275942,-4.908568,156.3,-153.3,-25.500002,x,,,,,
221305,1.0084691,6.4874587,-2.7269337,-3.361302,10.205858,-7.705842,170.70001,-136.5,-16.5,x,,,,,
221389,-2.308832,3.9321918,-1.1807343,-4.0472817,14.565641,-8.940606,197.1,-129.3,-27.300001,x,,,,,
221409,-2.6838675,3.8346946,-1.7465775,-4.0320377,16.059553,-9.840002,197.1,-129.3,-14.700001,x,,,,,
221451,-3.9938006,7.8667765,-1.4995444,-3.2469718,14.618996,-6.471078,201.90001,-119.700005,-20.1,x,,,,,
221493,-6.232052,9.19286,-0.71597713,-3.445144,11.029034,-8.338468,223.50002,-102.9,-14.700001,x,,,,,
221633,-9.852013,15.157541,-2.238251,0.861286,-1.48629,2.7820299,245.1,-105.3,-12.3,x,,,,,
221653,-8.62582,15.827461,-2.5241632,0.70122397,-3.8109999,4.30643,223.50002,-88.5,-7.5000005,x,,,,,
221695,-8.237027,11.371296,-2.0731635,1.493912,-8.445176,6.814068,235.50002,-105.3,-12.3,x,,,,,
221715,-6.4503736,11.698481,-1.8961133,1.41007,-11.623549,10.030552,237.90001,-102.9,-18.900002,x,,,,,
221735,-4.704993,11.042317,-1.2028655,1.166166,-13.048863,10.579336,211.50002,-105.3,-15.3,x,,,,,
221755,-4.5165777,8.889003,-1.2094451,1.798792,-11.989406,9.390304,216.3,-138.90001,-18.300001,x,,,,,
221775,-3.5451934,8.113212,-1.6801836,2.7439198,-11.364402,9.481768,201.90001,-112.50001,-16.5,x,,,,,
221795,-2.9542282,8.829188,-1.7346146,2.919226,-10.792751,9.291218,197.1,-124.50001,-15.900001,x,,,,,
221815,-2.8860397,8.096463,-1.949946,2.7058098,-9.657074,7.324742,199.50002,-138.90001,-21.300001,x,,,,,
221835,-2.515191,7.406206,-2.196381,2.560992,-10.000064,6.349126,204.3,-131.70001,-21.300001,x,,,,,
221855,-1.8398877,6.932477,-1.8357008,2.7134318,-11.082388,6.59303,187.5,-138.90001,-21.300001,x,,,,,
221878,-1.6125934,6.8254094,-1.4744225,1.3490939,-9.893355,5.152472,182.70001,-143.70001,-24.300001,x,,,,,
221898,-1.8171583,5.7009006,-1.9331981,2.004586,-6.70736,3.635694,197.1,-148.5,-23.1,x,,,,,
221918,-1.317709,5.921017,-2.530743,2.652456,-7.66011,4.740884,175.5,-146.1,-28.500002,x,,,,,
221940,-0.9061866,6.1483116,-1.5641439,1.71495,-8.5899935,4.390272,165.90001,-150.90001,-27.900002,x,,,,,
221961,-1.1197237,5.5364113,-1.6472857,2.32471,-5.4421077,3.1859958,168.3,-146.1,-23.7,x,,,,,
221981,-1.2889981,5.061486,-2.4655454,3.2774599,-3.8109999,3.2469718,163.5,-126.9,-23.7,x,,,,,
222001,-0.2685662,6.458748,-3.0301924,3.971062,-4.817104,4.984788,153.90001,-148.5,-17.7,x,,,,,
222021,0.2781365,7.611369,-2.7418873,2.964958,-4.817104,3.452766,165.90001,-150.90001,-27.300001,x,,,,,
222042,-0.093310304,6.649555,-3.2491126,2.957336,-2.949714,2.2637339,151.5,-153.3,-23.1,x,,,,,
222062,0.39776507,7.5455737,-3.8544333,3.155508,-3.574718,3.628072,165.90001,-141.3,-21.300001,x,,,,,
222104,0.9654028,9.115699,-3.9052753,2.2027578,-3.079288,2.2637339,149.1,-158.1,-21.900002,x,,,,,
222126,1.3918787,9.706066,-4.233058,2.157026,-2.6981878,1.71495,149.1,-153.3,-17.1,x,,,,,
222146,1.0503391,9.726403,-4.162477,1.227142,-2.6677,0.46494198,137.1,-148.5,-24.900002,,,,,,
222167,0.27036062,8.90934,-4.2533946,1.1051899,-1.48629,-0.213416,137.1,-155.70001,-21.900002,,,,,,
222187,0.25181818,9.090577,-4.685852,1.326228,-1.1051899,0.19055,146.70001,-155.70001,-21.300001,,,,,,
222207,0.049645867,9.184485,-4.7462645,1.02897,-1.3719599,-0.129574,153.90001,-155.70001,-18.900002,,,,,,
222267,0.5987411,8.674868,-4.5458865,0.663114,-1.577754,0.81555396,137.1,-148.5,-20.1,,,,,,
222370,1.4469079,7.9989657,-5.401231,-1.234764,3.445144,-0.60976,146.70001,-158.1,-17.7,x,,,,,
222494,3.30474,8.121585,-1.7220536,-2.881116,-2.59148,-5.571682,165.90001,-153.3,-20.7,x,,,,,
222534,3.9842303,6.694416,-1.87458,-4.664664,12.782094,-7.1418138,170.70001,-146.1,-20.7,x,,,,,
222554,1.9726756,5.569309,-2.9458542,-4.474114,19.382746,-10.190614,170.70001,-146.1,-18.300001,x,,,,,
222574,0.7129864,3.8795552,-4.2527966,-2.500016,20.58702,-12.2409315,175.5,-153.3,-19.5,x,,,,,
222634,-2.467938,2.773589,-1.7322221,-2.89636,14.679972,-12.629654,206.70001,-124.50001,-17.1,x,,,,,
222789,-7.162762,14.057556,-2.1903996,-7.1265697,0.434454,-6.562542,235.50002,-81.3,-7.5000005,x,,,,,
222834,-9.493725,14.168213,-2.9673872,-2.6677,3.6890478,-2.47715,225.90001,-88.5,-5.1000004,x,,,,,
222854,-8.700587,15.472762,-1.8554395,-2.36282,-2.13416,-1.440558,235.50002,-71.700005,-4.5,x,,,,,
222874,-10.585336,14.373974,-2.234064,0.289636,-3.018312,-0.243904,235.50002,-88.5,-5.7000003,x,,,,,
222894,-9.564904,16.052961,-3.0744548,0.739334,-6.0442457,4.504602,249.90001,-71.700005,-2.1000001,x,,,,,
222914,-7.5886397,14.616221,-1.8165601,-1.021348,-11.01379,6.5091877,242.70001,-100.50001,-10.5,x,,,,,
222934,-8.732887,12.065142,-0.94985104,0.365856,-10.990924,7.309498,252.3,-86.100006,-11.700001,x,,,,,
222954,-8.408694,10.311985,-3.59783,1.8521459,-9.542744,10.6708,230.70001,-107.700005,-17.7,x,,,,,
222974,-5.6560397,11.508869,-2.4410214,0.49543,-15.365952,13.003132,223.50002,-100.50001,-11.700001,x,,,,,
223014,-4.0649796,8.162857,-1.6514727,0.853664,-14.382713,10.609824,211.50002,-102.9,-19.5,x,,,,,
223034,-2.9895186,7.171136,-1.8171583,1.539644,-14.2226515,10.274456,189.90001,-124.50001,-22.5,x,,,,,
223096,-1.4421227,6.76739,-1.6155841,2.13416,-10.983302,7.0808377,180.3,-148.5,-27.300001,x,,,,,
223126,-1.2447355,7.1717343,-2.292682,3.064044,-8.673836,6.166198,180.3,-136.5,-22.5,x,,,,,
223146,-1.2261931,7.460637,-1.7208574,1.8597679,-8.376577,4.009172,175.5,-155.70001,-25.500002,x,,,,,
223186,-1.2411467,5.6249366,-2.7012136,3.132642,-5.3354,1.814036,180.3,-146.1,-28.500002,x,,,,,
223249,-0.66274244,7.4702077,-3.0487347,3.2012398,-3.6738038,2.911604,170.70001,-143.70001,-24.900002,x,,,,,
223430,0.18901318,8.521145,-4.8802485,2.7134318,0.891774,-0.7622,141.90001,-150.90001,-21.900002,,,,,,
223451,0.21234076,8.423049,-5.0405507,2.507638,-0.45731997,0.045732,149.1,-155.70001,-28.500002,,,,,,
223492,0.34213778,8.862086,-4.4561653,0.92226195,-0.899396,-0.41921,149.1,-148.5,-23.1,,,,,,
223512,0.36546534,8.650344,-4.3275642,0.3811,-0.434454,-0.655492,134.70001,-150.90001,-20.7,,,,,,
223532,0.32658607,8.577969,-4.3263683,0.20579399,-0.03811,-0.746956,149.1,-138.90001,-16.5,,,,,,
223572,0.31761393,9.098951,-4.037465,0.426832,-0.754578,0.121952,149.1,-150.90001,-20.1,,,,,,
223750,0.958225,9.381274,-4.2731333,-2.2637339,2.62959,-0.777444,151.5,-148.5,-20.1,,,,,,
223795,0.23507018,7.6640058,-5.3862777,-1.547266,6.829312,-3.2774599,146.70001,-153.3,-21.900002,,,,,,
223815,0.5167955,7.6801558,-7.141827,0.434454,7.43145,-1.8826339,158.70001,-153.3,-18.300001,,,,,,
223855,0.5514878,7.6000047,-6.736884,-1.8673899,3.2698379,-1.265252,153.90001,-150.90001,-20.1,x,,,,,
223897,1.6090046,8.430825,-5.032775,-3.589962,1.3567159,-2.949714,151.5,-146.1,-23.1,x,,,,,
223917,1.2465299,6.709968,-3.0188277,-4.375028,3.7957559,-5.320156,153.90001,-143.70001,-25.500002,x,,,,,
223937,1.6430987,6.920514,-2.5259578,-4.0320377,9.657074,-5.29729,161.1,-138.90001,-21.300001,x,,,,,
223977,0.2087519,6.0095425,-2.8280199,-4.283564,14.115944,-9.001582,173.1,-143.70001,-20.1,x,,,,,
223997,-0.3911855,5.054308,-2.1640813,-3.7500238,12.606788,-10.122016,175.5,-138.90001,-11.700001,x,,,,,
224040,-1.9613107,3.8687887,-1.7364091,-3.2317278,15.739429,-11.341536,204.3,-126.9,-14.1,x,,,,,
224061,-2.6306329,4.2103286,-1.9020946,-3.025934,14.603752,-11.425378,209.1,-124.50001,-14.1,x,,,,,
224081,-3.9441547,4.5082035,-2.2741396,-1.326228,13.917771,-11.593061,206.70001,-122.100006,-15.900001,x,,,,,
224101,-5.350987,5.529832,-2.8543382,0.091464,12.286664,-10.419273,223.50002,-112.50001,-8.700001,x,,,,,
224121,-4.1427383,9.370508,-1.7334183,-2.492394,8.544262,-7.690598,223.50002,-105.3,-15.900001,x,,,,,
224144,-6.1596766,9.628905,-1.0162449,-2.32471,13.346122,-11.250072,230.70001,-105.3,-12.900001,x,,,,,
224164,-7.5019093,10.793489,-3.823928,-0.655492,15.122047,-9.771403,218.70001,-90.9,-8.700001,x,,,,,
224184,-6.607087,13.203408,-3.1695597,-3.96344,9.817136,-7.987856,233.1,-90.9,-10.5,x,,,,,
224207,-6.890009,11.611152,-1.2232023,-5.9527817,7.4238276,-8.57475,233.1,-83.700005,-5.1000004,x,,,,,
224227,-9.564904,11.78222,-2.254401,-3.140264,8.673836,-6.265284,245.1,-83.700005,-12.3,x,,,,,
224247,-7.83029,15.087559,-2.3351502,-3.6966698,5.4725957,-2.599102,240.3,-81.3,-5.7000003,x,,,,,
224267,-8.555239,15.307076,-1.2405485,-2.873494,3.2774599,-2.7362978,242.70001,-64.5,-8.1,x,,,,,
224287,-11.156563,14.071912,-2.878264,0.28201398,2.32471,-1.8673899,228.3,-71.700005,-8.1,x,,,,,
224307,-9.531408,16.12713,-3.447098,0.525918,-2.179892,2.97258,237.90001,-90.9,-9.3,x,,,,,
224327,-7.978629,15.351339,-2.5869684,-0.045732,-6.66925,4.45887,235.50002,-83.700005,-1.5,x,,,,,
224387,-6.873859,12.050188,-2.9428635,0.594516,-10.792751,8.734812,233.1,-81.3,-9.3,x,,,,,
224407,-6.423457,10.435203,-2.9626021,0.754578,-12.1799555,9.161644,235.50002,-107.700005,-6.9,x,,,,,
224427,-5.3779035,9.159364,-2.7975147,0.70122397,-13.292768,9.71805,221.1,-86.100006,-8.700001,x,,,,,
224447,-4.611084,7.157977,-2.6449883,0.846042,-13.506184,9.984819,218.70001,-112.50001,-12.3,x,,,,,
224468,-3.8885274,6.6340036,-3.0272017,1.6082419,-14.276006,10.7241535,211.50002,-119.700005,-18.300001,x,,,,,
224488,-2.4637508,6.9426455,-2.7251394,1.974098,-16.65407,11.783611,199.50002,-131.70001,-15.900001,x,,,,,
224508,-1.2686613,6.9474306,-1.4857872,1.303362,-18.986403,11.486354,189.90001,-122.100006,-15.900001,x,,,,,
224528,-1.0652926,7.2494926,-0.2548089,0.82317597,-15.487904,10.548848,192.3,-126.9,-17.1,x,,,,,
224548,-1.949946,6.777558,-0.99889874,1.280496,-11.029034,8.04121,189.90001,-138.90001,-26.1,x,,,,,
224568,-2.1299872,6.191976,-1.9977975,2.644834,-10.1982355,7.3323636,175.5,-141.3,-27.900002,x,,,,,
224588,-1.527059,6.823615,-1.6143879,2.621968,-12.012272,8.048832,173.1,-148.5,-23.7,x,,,,,
224612,-1.4158044,7.462432,-1.1747528,2.347576,-10.678422,7.4543157,163.5,-148.5,-24.300001,x,,,,,
224632,-1.3195034,7.345196,-1.7118852,2.2256238,-7.69822,5.52595,158.70001,-150.90001,-24.300001,x,,,,,
224692,-0.32479164,6.7829413,-2.506817,2.606724,-4.733262,1.585376,158.70001,-153.3,-21.900002,x,,,,,
224716,-0.581395,5.6841526,-3.1354654,3.140264,-3.62045,1.3795819,153.90001,-158.1,-21.900002,x,,,,,
224736,-0.12919888,6.1859946,-3.6582425,3.384168,-4.161612,3.2241058,146.70001,-148.5,-20.7,x,,,,,
224756,0.69085515,7.6975017,-3.5715117,3.2469718,-4.908568,4.275942,137.1,-150.90001,-24.900002,x,,,,,
224821,1.3535975,8.61924,-4.280909,1.768304,1.074702,1.272874,134.70001,-150.90001,-22.5,x,,,,,
224871,1.6508746,10.2312355,-4.723535,1.745438,-0.602138,0.106708,127.50001,-160.5,-17.1,,,,,,
224891,0.97138417,8.792702,-4.527942,1.18141,-0.198172,-1.41007,129.90001,-160.5,-18.900002,,,,,,
224934,0.5484971,8.625221,-4.6619263,1.059458,-0.655492,-0.3811,134.70001,-153.3,-20.1,,,,,,
224954,0.5329454,8.797487,-4.3999395,0.83842,-0.525918,-0.480186,144.3,-160.5,-17.1,,,,,,
224976,0.47971067,8.669484,-4.130177,-0.17530599,-0.129574,-0.739334,144.3,-150.90001,-20.1,,,,,,
224996,0.49466425,8.450563,-4.2133193,-0.289636,0.510674,-0.625004,139.5,-150.90001,-14.700001,,,,,,
225016,0.55208594,8.269925,-4.0434465,-0.144818,0.060976,-0.289636,151.5,-143.70001,-15.3,,,,,,
225036,0.72794,8.606679,-3.7282252,0.198172,-0.22865999,0.320124,144.3,-153.3,-23.1,,,,,,
225056,0.7476787,9.16355,-3.5667264,0.060976,0.22865999,0.274392,132.3,-153.3,-17.7,,,,,,
225076,0.61130214,8.646755,-3.602615,-0.11432999,1.211898,-0.602138,132.3,-158.1,-26.1,,,,,,
225119,0.73691213,8.862684,-3.790432,-0.33536798,1.56251,-0.632626,146.70001,-155.70001,-21.900002,,,,,,
225141,0.64240557,8.963771,-4.2904797,-0.739334,2.157026,-0.861286,139.5,-158.1,-14.1,,,,,,
225161,0.75366014,8.908741,-4.5416994,-1.1432999,1.958854,-1.272874,149.1,-167.70001,-21.300001,x,,,,,
225181,1.1687714,9.252673,-4.5040164,-1.935988,1.9131219,-1.56251,134.70001,-153.3,-18.300001,x,,,,,
225221,0.83082056,7.8039713,-5.543589,-2.2180018,7.5457797,-4.34454,156.3,-148.5,-18.300001,x,,,,,
225241,1.7399979,7.7722697,-7.376299,0.137196,8.597616,-3.170752,173.1,-150.90001,-19.5,x,,,,,
225261,3.0505292,8.981715,-7.0939755,-2.85825,2.492394,-2.850628,156.3,-143.70001,-16.5,x,,,,,
225325,2.7131765,7.5988083,-4.3790045,-5.5183277,8.734812,-8.201272,168.3,-155.70001,-25.500002,x,,,,,
225375,0.3995595,3.5003326,-1.6730059,-5.914672,11.128119,-10.541225,187.5,-138.90001,-22.5,x,,,,,
225410,-1.7346146,2.861516,-2.229877,-3.7347798,14.588508,-8.102186,182.70001,-136.5,-17.7,x,,,,,
225431,-3.4991364,3.744375,-2.4870784,-2.461906,14.093078,-7.5762677,194.70001,-131.70001,-15.900001,x,,,,,
225471,-5.2367415,5.6034036,-2.6545584,0.716468,5.769854,-6.143332,206.70001,-122.100006,-15.3,x,,,,,
225526,-5.840268,8.961976,-2.8130665,-0.594516,13.574781,-6.0747337,211.50002,-105.3,-7.5000005,x,,,,,
225546,-5.3779035,10.089476,-2.7143729,-1.98172,8.376577,-5.7165,211.50002,-100.50001,-11.1,x,,,,,
225586,-5.3330426,11.201424,-1.8961133,-3.01069,8.925362,-7.324742,221.1,-100.50001,-11.700001,x,,,,,
225606,-4.3790045,12.288847,-1.9086742,-4.603688,5.60217,-5.5335717,228.3,-98.100006,-5.7000003,x,,,,,
225626,-4.497437,13.19982,0.27933276,-5.5945477,4.214966,-6.4786997,223.50002,-102.9,-10.5,x,,,,,
225649,-8.128763,11.999945,-0.7919413,-2.7744079,5.480218,-7.743952,242.70001,-93.3,-11.700001,x,,,,,
225669,-8.572585,13.92118,-1.949348,-2.004586,3.117398,-3.8109999,221.1,-86.100006,-6.3,x,,,,,
225689,-7.391851,14.608446,-0.49107537,-2.7591639,-1.33385,-2.332332,245.1,-81.3,-11.700001,x,,,,,
225709,-9.673168,13.652015,-1.2997646,-0.312502,-0.67073596,-0.967994,225.90001,-88.5,-7.5000005,x,,,,,
225729,-8.626418,15.036716,-2.3746276,0.129574,-4.184478,2.903982,240.3,-102.9,-17.7,x,,,,,
225752,-7.3236628,12.885196,-0.30325848,0.28201398,-7.751574,4.817104,230.70001,-105.3,-12.900001,x,,,,,
225772,-8.417068,11.928167,-1.6867632,2.2256238,-7.042728,6.227174,240.3,-100.50001,-13.500001,x,,,,,
225792,-7.4588428,11.70506,-2.308832,2.2561119,-9.695184,9.131156,233.1,-98.100006,-18.900002,x,,,,,
225812,-5.5878515,11.826483,-1.7693069,2.195136,-11.577818,10.990924,223.50002,-100.50001,-11.1,x,,,,,
225835,-4.083522,11.191255,-1.384701,1.8978779,-11.92843,11.227205,213.90001,-112.50001,-20.7,x,,,,,
225856,-3.9782488,10.2749,-1.9343944,2.347576,-10.182992,10.274456,204.3,-110.100006,-15.3,x,,,,,
225876,-3.9387715,9.357348,-2.781365,2.050318,-9.489389,9.649452,211.50002,-124.50001,-17.7,x,,,,,
225896,-3.0606976,8.78672,-2.7927296,1.5244,-10.655556,9.169266,199.50002,-124.50001,-16.5,x,,,,,
225919,-2.4685361,8.173624,-2.3985534,1.1280559,-10.823239,8.498529,192.3,-138.90001,-17.7,x,,,,,
225939,-2.2693543,7.4289355,-2.1706607,0.846042,-9.992442,7.6372437,175.5,-134.1,-14.700001,x,,,,,
225962,-1.9254222,6.5496655,-2.4129088,1.554888,-9.992442,6.455834,180.3,-146.1,-18.900002,x,,,,,
225982,-1.9296092,6.120797,-1.9971994,2.317088,-9.245486,5.9070497,180.3,-146.1,-24.300001,x,,,,,
226003,-1.355392,6.7614083,-2.16767,2.103672,-7.743952,6.676872,168.3,-155.70001,-24.300001,x,,,,,
226087,-0.12202117,6.028683,-2.3979552,2.118916,-4.641798,4.0777698,141.90001,-158.1,-25.500002,x,,,,,
226251,1.2650723,8.999061,-3.4692292,1.8597679,-1.013726,0.022866,125.100006,-167.70001,-25.500002,x,,,,,
226271,0.7225567,8.604885,-4.179225,2.141782,0.640248,-0.541162,127.50001,-162.90001,-21.900002,x,,,,,
226311,0.51978624,8.658718,-4.727722,1.6006199,-1.951232,-0.091464,120.3,-158.1,-18.900002,,,,,,
226351,0.43664438,9.490136,-4.2204967,0.34298998,-1.6387299,-0.47256398,141.90001,-141.3,-23.7,,,,,,
226391,0.24105161,8.958387,-3.4871736,-0.81555396,-0.792688,-0.777444,129.90001,-162.90001,-14.1,,,,,,
226430,-0.031103434,9.159364,-3.8753684,0.198172,-0.632626,0.068598,129.90001,-160.5,-20.7,,,,,,
226451,0.072973445,9.068445,-3.4680328,0.20579399,-1.013726,0.46494198,127.50001,-153.3,-25.500002,,,,,,
226492,0.19499461,8.97035,-2.9213302,-0.449698,-0.19055,1.044214,132.3,-165.3,-27.300001,,,,,,
226532,0.19379832,8.604286,-3.1743448,-0.19055,0.083841994,0.46494198,134.70001,-153.3,-22.5,,,,,,
226670,1.7645217,8.2549715,-3.3854892,-2.47715,-0.708846,-0.640248,141.90001,-160.5,-24.300001,,,,,,
226690,1.6849687,8.0611725,-3.477005,-3.574718,0.510674,-0.785066,127.50001,-150.90001,-20.7,,,,,,
226731,1.3272792,8.176615,-4.4615483,-3.094532,0.754578,-1.234764,129.90001,-155.70001,-17.1,x,,,,,
226753,0.82902616,8.834572,-4.6003175,-2.903982,1.1356779,-1.3490939,132.3,-158.1,-23.1,x,,,,,
226774,0.98753405,9.72401,-5.3904643,-2.035074,3.155508,-1.8292799,141.90001,-153.3,-21.900002,x,,,,,
226794,1.4128137,9.71444,-6.062777,-1.745438,3.01069,-3.0488,129.90001,-150.90001,-28.500002,x,,,,,
226854,2.229877,9.018202,-6.0394497,-2.51526,4.474114,-4.76375,141.90001,-153.3,-22.5,x,,,,,
226876,1.8775707,6.8535223,-4.7959104,-3.871976,6.158576,-6.5244317,141.90001,-155.70001,-19.5,x,,,,,
226896,1.1520233,5.827707,-3.9232197,-4.093014,8.429932,-7.6067557,168.3,-143.70001,-25.500002,x,,,,,
226920,0.6268538,5.096178,-3.2538977,-3.948196,9.840002,-9.71805,175.5,-150.90001,-20.7,x,,,,,
226940,-1.116733,3.756936,-2.64439,-3.7500238,11.265316,-12.469592,187.5,-146.1,-24.300001,x,,,,,
226960,-2.7885425,3.2060463,-2.2406435,-1.6311079,11.836966,-11.6845255,185.1,-136.5,-27.300001,x,,,,,
226983,-1.7232499,5.0178213,-1.5485922,-2.2789779,8.864386,-9.60372,192.3,-143.70001,-18.300001,x,,,,,
227003,-2.677288,4.4322395,0.5748154,-3.7576458,9.763782,-10.6631775,194.70001,-129.3,-23.7,x,,,,,
227024,-4.2372446,5.0884023,-0.84278345,-2.042696,18.147982,-8.986338,197.1,-112.50001,-27.300001,x,,,,,
227044,-4.8886223,6.358858,-1.1316864,-1.775926,18.071762,-7.789684,216.3,-126.9,-21.300001,x,,,,,
227088,-7.1430235,10.006932,-1.7932327,-2.2561119,13.818686,-7.5915117,216.3,-112.50001,-17.7,x,,,,,
227108,-4.690039,12.231425,-0.773997,-4.15399,10.236346,-6.32626,221.1,-105.3,-14.1,x,,,,,
227128,-6.1764245,10.955586,0.029907148,-3.513742,10.236346,-7.248522,228.3,-100.50001,-14.1,x,,,,,
227189,-7.1944637,13.129836,0.011962859,-2.317088,3.635694,-4.298808,240.3,-83.700005,-16.5,x,,,,,
227210,-8.476882,14.294421,-2.4111142,-0.47256398,3.978684,-1.951232,233.1,-102.9,-13.500001,x,,,,,
227230,-7.818925,14.373376,-2.0223215,-1.730194,-2.865872,-0.70122397,230.70001,-110.100006,-8.700001,x,,,,,
227270,-8.907545,14.131127,-1.8147658,0.579272,-3.88722,2.644834,242.70001,-93.3,-15.3,x,,,,,
227291,-8.656325,13.374476,-2.0265083,0.17530599,-8.323224,5.541194,228.3,-93.3,-15.900001,x,,,,,
227311,-6.6501536,13.0496855,-0.3881948,-0.28201398,-12.38575,8.186028,233.1,-110.100006,-16.5,x,,,,,
227331,-6.5628247,11.230732,-0.16568561,0.960372,-11.54733,9.291218,211.50002,-112.50001,-24.300001,x,,,,,
227391,-3.5069122,10.455539,-1.4947593,1.75306,-11.943674,9.67994,199.50002,-126.9,-11.700001,x,,,,,
227411,-3.8119652,8.431423,-2.4416196,2.179892,-9.939088,8.262248,189.90001,-124.50001,-27.900002,x,,,,,
227431,-2.4075255,8.08151,-3.017033,2.2103798,-12.012272,9.687562,185.1,-138.90001,-20.1,x,,,,,
227452,-1.5790974,8.236428,-1.710689,0.95274997,-13.384232,9.458901,185.1,-148.5,-20.1,x,,,,,
227472,-1.5150962,8.180203,-1.5133017,0.716468,-11.227205,8.666214,173.1,-155.70001,-26.7,x,,,,,
227494,-2.7347097,6.7919135,-2.2460268,1.440558,-8.856764,5.205826,165.90001,-150.90001,-21.900002,x,,,,,
227514,-1.7878493,6.247005,-3.1522136,3.894842,-9.497012,5.541194,158.70001,-162.90001,-26.7,x,,,,,
227580,0.27634206,6.8912053,-1.2190154,3.16313,-9.154022,2.949714,132.3,-143.70001,-31.500002,x,,,,,
227600,0.15850788,5.8205295,-1.6185749,3.01069,-7.225656,1.9054999,139.5,-155.70001,-26.7,x,,,,,
227621,-0.29428634,5.308519,-1.677791,3.46801,-5.160094,3.041178,141.90001,-158.1,-27.900002,x,,,,,
227641,0.08314187,6.6375923,-1.7675124,3.1783738,-4.550334,3.7195358,141.90001,-150.90001,-21.300001,x,,,,,
227705,0.4509998,7.111322,-3.602615,3.8033779,-1.501534,0.19055,129.90001,-153.3,-29.7,x,,,,,
227726,1.1191255,8.105435,-3.770095,3.475632,-3.117398,1.974098,115.50001,-158.1,-26.7,x,,,,,
227746,1.3906825,8.758608,-3.451883,1.8902559,-2.812518,1.67684,139.5,-148.5,-21.900002,x,,,,,
227768,1.1370698,7.652043,-3.7431786,1.044214,-0.15244,0.541162,120.3,-160.5,-20.1,x,,,,,
227788,0.77997845,8.285477,-5.075243,2.492394,3.003068,2.157026,125.100006,-158.1,-21.300001,x,,,,,
227808,0.9983006,9.536194,-6.1596766,2.01983,2.187514,2.2865999,127.50001,-158.1,-13.500001,x,,,,,
227891,0.031103434,8.811244,-5.0178213,-0.16768399,1.288118,-1.4024479,132.3,-158.1,-18.900002,x,,,,,
227927,0.14774132,9.27959,-4.3335457,0.053354,-1.051836,-0.87653,132.3,-160.5,-20.1,,,,,,
227947,0.4216908,9.420154,-3.6630275,-0.198172,-1.699706,-0.602138,137.1,-150.90001,-26.7,,,,,,
227990,0.51859,8.793898,-2.962004,-0.442076,1.570132,-0.327746,137.1,-160.5,-21.900002,,,,,,
228013,0.5287584,8.576174,-2.8896286,-0.548784,1.56251,-0.106708,137.1,-162.90001,-26.1,,,,,,
228053,0.93729,8.903358,-2.7705982,-0.015244,1.318606,-0.045732,137.1,-158.1,-21.300001,,,,,,
228115,1.3571864,8.86747,-3.5745025,-0.83842,2.2637339,-1.166166,137.1,-165.3,-21.300001,,,,,,
228169,0.42228892,7.857206,-5.8211274,-0.15244,5.3354,-3.2774599,144.3,-160.5,-21.300001,,,,,,
228234,0.77459514,8.690419,-6.6860423,-2.088428,3.7347798,-2.6905658,153.90001,-150.90001,-17.7,,,,,,
228254,0.91755134,8.880031,-6.7661934,-2.507638,3.7881339,-3.170752,139.5,-148.5,-17.7,,,,,,
228276,0.832615,8.719728,-5.7834444,-3.498498,1.920744,-4.222588,153.90001,-150.90001,-14.1,x,,,,,
228296,0.83859646,8.251382,-4.4023323,-4.207344,1.585376,-5.79272,156.3,-148.5,-15.900001,x,,,,,
228359,0.19140574,4.736096,-2.2693543,-7.9649897,7.972612,-12.949778,173.1,-141.3,-18.900002,x,,,,,
228379,-0.96958977,3.2233925,-1.1831268,-8.46042,9.100668,-12.370505,180.3,-124.50001,-21.900002,x,,,,,
228400,-0.815867,4.2013564,-0.6430037,-7.5305357,9.7028055,-8.521396,201.90001,-136.5,-21.300001,x,,,,,
228420,-1.8835522,4.643384,0.34333408,-8.353712,10.998546,-7.881148,206.70001,-136.5,-24.300001,x,,,,,
228440,-3.1875038,4.8186398,0.753062,-7.5915117,12.27142,-7.0046177,199.50002,-119.700005,-21.900002,x,,,,,
228460,-3.627737,6.3732133,0.35350248,-6.32626,14.344604,-6.1052217,211.50002,-112.50001,-21.300001,x,,,,,
228482,-4.1606827,7.472002,-0.33077306,-5.14485,13.7272215,-6.646384,235.50002,-126.9,-20.1,x,,,,,
228502,-4.5961304,7.4115896,0.036486723,-4.100636,11.615928,-6.646384,216.3,-114.9,-24.900002,x,,,,,
228522,-3.9441547,8.978126,0.66334057,-3.650938,11.326292,-5.167716,221.1,-122.100006,-24.300001,x,,,,,
228545,-5.7086763,10.008128,0.5335435,-2.446662,12.949778,-5.708878,228.3,-119.700005,-16.5,x,,,,,
228565,-6.685444,12.218864,-1.4774132,-0.891774,9.725672,-6.25004,237.90001,-100.50001,-14.1,x,,,,,
228585,-7.1783137,11.535187,-0.9145606,-0.998482,7.027484,-6.654006,249.90001,-98.100006,-16.5,x,,,,,
228605,-7.806364,11.985589,-0.8481667,0.068598,5.419242,-4.260698,233.1,-105.3,-12.3,x,,,,,
228627,-7.3535695,13.476161,-0.28770676,-0.251526,2.40093,-3.071666,249.90001,-90.9,-18.900002,x,,,,,
228647,-8.454153,14.257934,-2.0007882,1.158544,2.568614,-1.089946,237.90001,-93.3,-19.5,x,,,,,
228667,-6.955805,15.097129,-1.6173786,0.091464,-2.317088,0.0,242.70001,-90.9,-15.3,x,,,,,
228687,-7.802177,14.395507,-0.70640683,1.417692,-3.50612,0.70122397,233.1,-95.700005,-14.700001,x,,,,,
228709,-9.045118,14.250158,-1.9983957,2.560992,-4.397894,2.614346,230.70001,-88.5,-14.1,x,,,,,
228729,-8.341104,14.360216,-2.1575017,2.621968,-8.300358,4.657042,242.70001,-93.3,-21.300001,x,,,,,
228749,-7.019806,13.596986,-1.1693695,2.393308,-11.387268,6.379614,230.70001,-102.9,-27.300001,x,,,,,
228769,-5.9688687,12.613639,-0.80809116,2.82014,-11.806478,8.04121,221.1,-105.3,-20.7,x,,,,,
228832,-4.028493,9.108521,-1.6712115,3.2393498,-11.54733,10.17537,211.50002,-114.9,-20.7,x,,,,,
228852,-3.0379682,8.852516,-1.6107991,3.330814,-10.838484,10.426896,216.3,-122.100006,-23.1,x,,,,,
228872,-2.1640813,8.296842,-1.6676226,3.025934,-10.373542,9.481768,192.3,-138.90001,-21.300001,x,,,,,
228894,-1.8512524,6.514973,-1.790242,3.079288,-9.154022,7.4543157,187.5,-143.70001,-20.1,x,,,,,
228954,-0.24224791,6.4270463,-1.493563,3.064044,-9.016826,4.580822,182.70001,-143.70001,-22.5,x,,,,,
228977,-0.43544808,5.559739,-1.8063917,3.1783738,-6.623518,3.4299,177.90001,-141.3,-21.300001,x,,,,,
228997,-0.06459944,5.7631073,-2.5636408,3.597584,-5.03052,4.108258,180.3,-148.5,-21.900002,x,,,,,
229019,0.1573116,6.6220407,-2.6497734,3.58234,-5.838452,4.298808,156.3,-146.1,-24.300001,x,,,,,
229079,0.874485,7.830888,-2.9446578,4.596066,-5.320156,2.355198,168.3,-153.3,-21.300001,x,,,,,
229099,0.5335435,7.292559,-3.1869059,5.152472,-4.565578,1.48629,149.1,-155.70001,-15.900001,x,,,,,
229120,0.32778236,7.451665,-3.2808142,4.870458,-4.23021,1.79117,173.1,-146.1,-24.300001,x,,,,,
229140,-0.15192832,7.689726,-3.4506867,4.03966,-3.2164838,1.814036,161.1,-162.90001,-16.5,x,,,,,
229180,-0.48928094,7.628117,-4.5584474,3.7881339,-1.8673899,1.6539739,156.3,-146.1,-13.500001,x,,,,,
229240,-1.0240208,7.701091,-4.002175,1.5929979,-0.655492,0.518296,144.3,-148.5,-15.3,x,,,,,
229387,-0.8673073,9.154578,-4.266554,-1.1432999,3.910086,-1.242386,139.5,-158.1,-18.300001,x,,,,,
229431,-0.82424104,8.789711,-4.0177264,-0.45731997,1.692084,-1.547266,144.3,-165.3,-15.900001,x,,,,,
229451,-0.9085792,8.745448,-4.2659554,-0.35061198,2.2027578,-1.692084,137.1,-158.1,-15.3,x,,,,,
229494,-0.9881322,8.519949,-4.51897,-1.051836,2.6981878,-1.783548,156.3,-158.1,-18.300001,,,,,,
229514,-0.87508315,8.718532,-4.7343016,-1.06708,2.339954,-1.006104,149.1,-158.1,-20.7,,,,,,
229534,-0.37922263,9.513464,-4.5177736,-1.166166,1.745438,0.0,149.1,-155.70001,-20.1,,,,,,
229554,0.55507666,10.572177,-4.38379,-1.5929979,1.516778,0.69360197,149.1,-150.90001,-13.500001,,,,,,
229614,0.98753405,9.373499,-3.6714015,-1.3948259,1.928366,-1.8597679,144.3,-153.3,-14.1,,,,,,
229654,0.8756813,9.210205,-3.0828288,-1.326228,0.182928,-0.81555396,141.90001,-146.1,-21.300001,,,,,,
229729,0.5664414,7.2094173,-2.3022523,-1.288118,0.20579399,0.091464,137.1,-150.90001,-23.1,,,,,,
229749,0.50184196,7.665202,-2.3824034,-1.1128119,0.716468,0.7622,156.3,-148.5,-14.1,,,,,,
229792,0.6764997,9.939342,-2.4631526,-0.907018,0.830798,-0.365856,151.5,-150.90001,-21.300001,,,,,,
229812,-0.79792273,7.4731984,-2.2753358,-0.998482,1.3795819,-1.951232,144.3,-153.3,-16.5,,,,,,
229832,-1.4008509,8.021695,-2.8668993,0.739334,1.280496,0.716468,139.5,-160.5,-21.300001,,,,,,
229852,-1.7872512,9.897471,-3.0277996,-0.3811,0.57164997,1.516778,141.90001,-141.3,-19.5,,,,,,
229875,-1.9439646,9.949511,-3.4482942,-0.40396598,1.227142,0.365856,144.3,-148.5,-22.5,,,,,,
229895,-1.8973095,9.490734,-3.890322,-0.373478,-0.060976,0.022866,141.90001,-165.3,-21.900002,,,,,,
229919,-1.535433,9.516455,-3.166569,-0.830798,-1.707328,0.388722,156.3,-158.1,-20.7,,,,,,
229939,-1.2094451,9.319068,-2.948845,-1.1204339,-1.06708,0.015244,146.70001,-148.5,-21.300001,,,,,,
229959,-1.070676,9.087586,-2.8387866,-1.29574,-0.07622,-0.251526,153.90001,-150.90001,-26.1,,,,,,
229979,-1.1412568,8.896778,-2.941667,-1.021348,0.68597996,-0.28201398,151.5,-148.5,-23.7,,,,,,
230003,-1.2058562,9.041529,-2.9943037,-0.617382,0.792688,-0.07622,141.90001,-148.5,-16.5,,,,,,
230023,-1.3482143,8.980518,-3.0212202,-0.17530599,0.67073596,-0.144818,158.70001,-153.3,-21.900002,,,,,,
230044,-1.267465,8.988893,-2.9643965,0.106708,0.274392,-0.060976,146.70001,-143.70001,-21.300001,,,,,,
230084,-1.0664889,8.759804,-3.154008,-0.091464,0.41158798,-0.41921,141.90001,-150.90001,-21.300001,,,,,,
230104,-0.82842803,9.003846,-3.5709136,-0.144818,0.160062,0.274392,149.1,-153.3,-24.900002,,,,,,
230124,-0.5945541,9.258655,-3.5810819,-0.68597996,-0.396344,0.55640596,151.5,-148.5,-20.1,,,,,,
230144,-0.07117901,9.048707,-3.4255648,-1.8445239,-0.289636,0.33536798,146.70001,-153.3,-23.7,x,,,,,
230232,0.8756813,7.8889074,-4.3162,-2.7286758,-0.053354,-0.56402797,146.70001,-153.3,-23.1,x,,,,,
230328,3.0654826,8.814235,-4.1780286,-2.164648,9.893355,-4.76375,149.1,-158.1,-20.1,x,,,,,
230350,2.5875664,7.4785814,-4.134364,-2.050318,12.263798,-6.722604,153.90001,-141.3,-17.7,x,,,,,
230390,1.2405485,5.117711,-3.5637357,-1.699706,13.18606,-9.436036,153.90001,-150.90001,-18.300001,x,,,,,
230430,0.4815051,4.1756363,-2.8160572,-2.317088,13.254658,-11.471109,175.5,-141.3,-15.900001,x,,,,,
230456,-0.9618139,2.970378,-1.401449,-2.157026,14.06259,-12.103736,192.3,-131.70001,-12.3,x,,,,,
230477,-1.8554395,3.1695597,-1.3583827,-2.637212,16.250103,-11.943674,189.90001,-119.700005,-17.7,x,,,,,
230517,-3.4937532,5.8845305,-2.5301447,1.021348,13.7196,-8.361334,204.3,-107.700005,-15.3,x,,,,,
230537,-2.3148134,8.216092,0.10228245,-1.745438,10.678422,-8.429932,199.50002,-114.9,-13.500001,x,,,,,
230557,-5.233153,7.943339,-0.80510044,-0.41158798,18.33091,-10.350676,204.3,-117.3,-9.3,x,,,,,
230577,-5.0142326,11.162544,-3.1815224,-0.33536798,17.37816,-9.024447,211.50002,-105.3,-3.3000002,x,,,,,
230597,-5.6135716,12.10761,-2.677288,-2.522882,12.103736,-10.983302,211.50002,-100.50001,-5.7000003,x,,,,,
230617,-8.64496,11.529804,-2.0306954,-1.989342,9.969576,-11.692148,228.3,-86.100006,-7.5000005,x,,,,,
230637,-8.236428,14.14668,-2.9524338,-1.707328,8.673836,-7.172302,216.3,-90.9,-0.3,x,,,,,
230657,-7.982218,14.267505,-1.8165601,-2.195136,4.108258,-6.128088,221.1,-88.5,-3.9,x,,,,,
230678,-11.027364,13.501283,-2.8399827,1.265252,3.7195358,-4.733262,218.70001,-74.100006,4.5,x,,,,,
230698,-10.375388,15.439864,-4.735498,1.318606,0.40396598,1.1356779,211.50002,-76.5,5.1000004,x,,,,,
230718,-8.645558,16.444744,-4.6122804,-0.221038,-6.0899777,3.368924,218.70001,-81.3,2.1000001,x,,,,,
230738,-9.728795,14.736448,-4.3897715,-0.068598,-9.588476,3.475632,225.90001,-88.5,2.7,x,,,,,
230758,-9.280189,13.723194,-5.3491926,-0.434454,-13.292768,6.791202,225.90001,-78.9,1.5,x,,,,,
230778,-6.7416697,14.048584,-3.4758089,-2.530504,-18.986403,9.192132,228.3,-88.5,-7.5000005,x,,,,,
230798,-6.1477137,11.564496,-1.8674023,-2.332332,-19.916286,9.497012,223.50002,-102.9,-12.900001,x,,,,,
230819,-6.032272,9.824498,-2.1999698,-0.129574,-17.202854,11.562573,216.3,-112.50001,-11.700001,x,,,,,
230839,-4.2366467,9.959081,-2.5678277,0.259148,-16.669313,13.49094,206.70001,-114.9,-12.900001,x,,,,,
230859,-3.2096353,8.615651,-1.9373851,1.56251,-15.96809,11.493976,206.70001,-129.3,-21.900002,x,,,,,
230900,-3.1282878,8.694606,-3.095988,2.599102,-13.628136,10.609824,194.70001,-122.100006,-14.1,x,,,,,
230930,-1.7675124,8.240018,-2.5247614,1.471046,-14.451312,8.178406,187.5,-131.70001,-25.500002,x,,,,,
230950,-1.7878493,7.3691216,-2.526556,1.745438,-12.827826,6.5854077,177.90001,-148.5,-24.900002,x,,,,,
230993,-1.3063443,6.890009,-2.6748953,2.469528,-12.27142,7.210412,173.1,-141.3,-14.700001,x,,,,,
231035,-0.7387066,6.512581,-2.1664739,2.919226,-9.245486,6.21193,158.70001,-143.70001,-21.300001,x,,,,,
231055,-1.0814425,5.8713713,-2.2693543,2.7667859,-7.134192,4.0320377,161.1,-143.70001,-23.1,x,,,,,
231076,-0.5287584,5.218797,-2.765215,3.986306,-5.94516,3.2774599,141.90001,-162.90001,-23.7,x,,,,,
231096,0.535338,6.062777,-2.5863702,3.96344,-7.5305357,4.093014,139.5,-148.5,-16.5,x,,,,,
231116,0.79672647,6.806867,-1.869795,3.2927039,-5.4421077,3.147886,139.5,-150.90001,-17.7,x,,,,,
231136,0.757249,6.6489573,-2.9051805,3.7042918,-1.013726,1.059458,141.90001,-153.3,-26.1,x,,,,,
231156,1.0210301,6.3732133,-4.0386615,4.329296,-0.22865999,1.204276,139.5,-155.70001,-13.500001,x,,,,,
231176,1.7794753,8.252579,-4.033278,3.102154,-2.576236,3.841488,129.90001,-158.1,-21.300001,x,,,,,
231241,1.2513151,7.4277396,-5.325865,2.309466,2.05794,0.251526,134.70001,-150.90001,-14.700001,,,,,,
231350,0.0071777157,8.835768,-4.46753,0.15244,-1.082324,-1.6539739,134.70001,-153.3,-18.900002,,,,,,
231371,-0.740501,8.618642,-4.4788947,-0.106708,1.059458,-1.4024479,151.5,-155.70001,-13.500001,,,,,,
231412,-0.38759664,8.972743,-4.146327,0.091464,-0.739334,0.70122397,141.90001,-150.90001,-21.900002,,,,,,
231432,-0.25122005,9.191663,-3.6337185,-0.373478,-0.602138,0.68597996,139.5,-150.90001,-17.7,,,,,,
231474,-0.21473333,8.844142,-3.7844505,-0.30488,0.80793196,0.518296,141.90001,-153.3,-15.900001,,,,,,
231531,0.4803088,8.904554,-3.5756986,-0.19055,-0.198172,0.099086,132.3,-148.5,-15.900001,,,,,,
231552,0.60890955,9.033753,-3.656448,-0.53354,0.083841994,-0.16768399,141.90001,-158.1,-20.1,,,,,,
231593,0.91934574,8.369217,-3.6343167,-1.67684,0.80030996,-0.91463995,146.70001,-155.70001,-11.1,,,,,,
231613,0.8696999,8.403909,-4.1056533,-1.974098,1.996964,-1.021348,137.1,-148.5,-15.3,,,,,,
231635,0.79313755,8.721522,-4.9251094,-1.9054999,4.207344,-1.150922,141.90001,-155.70001,-10.5,,,,,,
231655,1.0509372,8.982911,-6.2033405,-1.493912,5.464974,-1.471046,146.70001,-155.70001,-15.900001,,,,,,
231676,1.3835047,8.482863,-6.631013,-1.8521459,2.7515419,-1.94361,134.70001,-155.70001,-15.3,x,,,,,
231697,1.4487023,8.307608,-5.8797455,-2.660078,1.1356779,-2.004586,134.70001,-141.3,-15.3,x,,,,,
231717,1.9553294,8.344692,-5.3946514,-2.7820299,2.042696,-2.370442,151.5,-153.3,-20.7,x,,,,,
231777,1.0048802,6.702192,-4.129579,-3.635694,9.512256,-4.9466777,165.90001,-148.5,-13.500001,x,,,,,
231799,0.76502484,7.0108337,-3.6068022,-3.2393498,7.957368,-5.0686297,158.70001,-141.3,-12.900001,x,,,,,
231839,0.46954224,5.914438,-1.945161,-3.3155699,10.068662,-7.77444,170.70001,-153.3,-20.1,x,,,,,
232131,-9.228149,14.873424,-2.6671195,1.98172,2.827762,-2.507638,218.70001,-90.9,-5.1000004,x,,,,,
232152,-9.705468,14.837535,-3.6696072,1.951232,-2.423796,0.60976,216.3,-88.5,-8.1,x,,,,,
232194,-6.4108963,14.250756,-1.1657807,-0.55640596,-10.000064,6.66925,230.70001,-95.700005,-8.1,x,,,,,
232215,-6.735688,13.156753,-1.4564781,0.663114,-9.214998,7.324742,221.1,-100.50001,-8.700001,x,,,,,
232235,-6.345699,11.705658,-2.6617362,1.1204339,-10.373542,8.201272,225.90001,-114.9,-12.3,x,,,,,
232255,-4.5877566,10.9765215,-1.9559275,0.81555396,-13.7272215,8.567128,211.50002,-117.3,-12.900001,x,,,,,
232275,-3.8735738,9.75631,-1.1053683,1.585376,-13.635757,7.957368,197.1,-129.3,-11.700001,x,,,,,
232317,-2.7377005,8.104239,-2.8597217,3.041178,-10.221102,6.17382,201.90001,-141.3,-14.1,x,,,,,
232337,-2.5767999,7.0395446,-3.0433514,2.964958,-10.350676,5.8765616,199.50002,-134.1,-22.5,x,,,,,
232359,-1.9936105,7.057489,-3.0248091,2.637212,-11.692148,6.5854077,192.3,-129.3,-16.5,x,,,,,
232379,-1.439132,7.408599,-2.317206,1.059458,-10.922326,5.9680257,173.1,-138.90001,-18.300001,x,,,,,
232399,-1.0862277,6.760212,-2.6850638,1.250008,-8.849142,4.72564,180.3,-141.3,-25.500002,x,,,,,
232419,-0.83740014,6.247005,-2.5002377,0.708846,-9.847624,4.5122237,182.70001,-148.5,-26.1,x,,,,,
232442,-1.267465,5.727219,-2.125202,0.243904,-8.80341,5.000032,182.70001,-138.90001,-22.5,x,,,,,
232463,-0.9115699,5.8588104,-2.6419976,0.45731997,-7.713464,5.800342,168.3,-143.70001,-17.7,x,,,,,
232483,-0.6071151,5.5800757,-2.3243835,0.56402797,-8.673836,5.647902,170.70001,-143.70001,-29.1,x,,,,,
232504,-0.3295768,5.8875213,-2.187409,1.3643379,-7.9192576,5.853696,168.3,-143.70001,-21.900002,x,,,,,
232586,1.1185274,7.6998944,-2.96978,2.957336,-4.146368,3.6661818,137.1,-150.90001,-21.900002,,,,,,
232606,1.0150486,7.932572,-3.4841828,2.62959,-2.32471,2.827762,139.5,-162.90001,-18.300001,,,,,,
232630,0.7548564,8.8058605,-4.1361585,3.147886,-0.022866,2.6829438,139.5,-155.70001,-22.5,,,,,,
232672,1.0054784,9.6049795,-5.1637683,2.385686,-1.996964,0.213416,146.70001,-158.1,-30.300001,,,,,,
232692,0.73691213,9.460828,-4.131972,0.998482,-2.492394,-0.41158798,134.70001,-170.1,-15.900001,,,,,,
232712,0.015551717,8.901564,-4.0727553,0.030488,0.358234,-1.310984,134.70001,-160.5,-15.3,,,,,,
232732,-0.23626648,8.801674,-4.7343016,0.769822,1.8292799,-1.25763,132.3,-153.3,-17.1,,,,,,
232792,-0.44142953,9.5619135,-4.544092,1.699706,-1.051836,-1.02897,144.3,-148.5,-15.3,x,,,,,
232812,-0.4593738,9.351965,-3.881948,0.312502,-1.432936,-0.81555396,153.90001,-158.1,-17.7,x,,,,,
232853,-0.66453683,8.844142,-3.8293114,-0.586894,1.509156,-0.07622,151.5,-153.3,-18.300001,x,,,,,
232873,-0.5514878,8.718532,-3.5667264,-0.67835796,0.49543,0.259148,153.90001,-153.3,-15.900001,x,,,,,
232895,-0.28770676,8.48406,-3.1773355,-0.99086,-0.3811,0.426832,141.90001,-153.3,-18.300001,x,,,,,
232915,-0.2087519,8.086893,-2.7963183,-0.998482,-0.586894,0.46494198,146.70001,-158.1,-23.7,x,,,,,
232979,1.0264133,8.641372,-2.773589,-0.182928,-0.708846,-0.625004,141.90001,-160.5,-22.5,x,,,,,
233047,1.1370698,8.3740015,-6.0615807,0.80030996,2.385686,-1.6006199,144.3,-148.5,-13.500001,x,,,,,
233330,-4.434034,5.6183567,-3.0188277,-2.004586,12.804959,-5.4116197,209.1,-112.50001,-12.900001,x,,,,,
233350,-4.6302247,7.3834767,-2.4799008,-2.62959,11.326292,-4.824726,206.70001,-107.700005,-10.5,x,,,,,
233394,-5.384483,9.804161,-0.7428936,-4.291186,16.638826,-10.89946,213.90001,-90.9,-16.5,x,,,,,
233414,-8.13295,11.004635,-3.5661285,-2.454284,18.14036,-9.832379,218.70001,-93.3,-11.700001,x,,,,,
233436,-7.271624,13.773438,-4.5416994,-3.917708,11.570196,-7.225656,223.50002,-90.9,-0.3,x,,,,,
233456,-9.192261,13.131631,-2.2526064,-3.7347798,5.6097918,-6.646384,235.50002,-93.3,-6.9,x,,,,,
233476,-9.481762,13.482142,-2.9165452,-3.033556,5.343022,-4.4512477,228.3,-86.100006,-2.7,x,,,,,
233497,-7.898478,14.588707,-2.6413994,-3.54423,0.320124,-2.035074,225.90001,-95.700005,-13.500001,x,,,,,
233517,-9.333423,12.6585,-1.8805615,-1.8445239,-2.05794,-1.432936,233.1,-90.9,-6.9,x,,,,,
233537,-8.555837,14.71013,-2.5887628,-0.3811,-3.96344,3.170752,240.3,-90.9,-2.7,x,,,,,
233581,-7.3643365,11.794183,-1.7722976,0.975616,-9.695184,5.64028,218.70001,-93.3,-11.1,x,,,,,
233643,-6.3750076,9.110315,-2.5756037,2.141782,-11.7455015,8.1250515,213.90001,-114.9,-15.3,x,,,,,
233689,-3.484781,9.567895,-2.0737617,1.3795819,-12.949778,11.35678,197.1,-112.50001,-18.300001,x,,,,,
233709,-3.4147983,7.936759,-2.0055733,1.41007,-11.082388,10.510737,194.70001,-119.700005,-21.300001,x,,,,,
233751,-2.6545584,7.2471004,-3.2311683,1.806414,-9.1463995,10.975679,189.90001,-143.70001,-15.900001,x,,,,,
233771,-2.1939883,7.09577,-3.0906048,1.509156,-11.364402,10.525982,182.70001,-122.100006,-23.7,x,,,,,
233811,-1.0024877,6.610078,-2.5672297,1.41007,-9.093046,6.4329677,153.90001,-148.5,-18.300001,,,,,,
233866,-0.017346146,5.92341,-3.0577068,1.417692,-10.381164,6.737848,137.1,-148.5,-22.5,,,,,,
233886,0.9522436,6.4545608,-2.4703305,1.5244,-9.466524,6.158576,134.70001,-160.5,-16.5,,,,,,
233929,1.6520709,6.791315,-2.777776,2.042696,-5.94516,2.881116,139.5,-162.90001,-20.7,,,,,,
233991,1.9589182,7.7004924,-2.8375902,1.684462,-1.6311079,1.173788,129.90001,-158.1,-26.1,,,,,,
234011,1.585677,8.616249,-3.396854,1.6311079,0.015244,1.250008,132.3,-167.70001,-24.900002,,,,,,
234031,1.3703456,9.109717,-3.6582425,1.097568,0.137196,0.144818,137.1,-165.3,-21.900002,,,,,,
234051,0.9211402,8.934462,-3.777273,0.99086,1.3872039,-1.21952,115.50001,-160.5,-33.300003,,,,,,
234111,0.24822934,8.862086,-5.1482167,1.6006199,-0.586894,-1.798792,132.3,-155.70001,-18.300001,,,,,,
234167,0.014355431,8.832777,-4.8886223,0.434454,0.861286,-0.80793196,139.5,-155.70001,-20.1,,,,,,
234191,0.08374002,8.650344,-4.38379,-0.053354,0.11432999,-0.541162,132.3,-150.90001,-22.5,,,,,,
234232,0.65317214,8.649147,-3.3902743,-0.861286,0.35061198,-0.07622,153.90001,-160.5,-18.300001,,,,,,
234294,0.790745,7.8177285,-4.4412117,-0.70122397,1.02897,-0.030488,146.70001,-160.5,-21.300001,,,,,,
234350,0.6382185,7.6544356,-5.568113,-2.088428,1.3719599,0.182928,127.50001,-165.3,-16.5,,,,,,
234370,0.63462967,8.292654,-6.293062,-2.621968,1.966476,1.265252,137.1,-162.90001,-17.1,,,,,,
234410,1.6909502,10.000352,-6.099862,-3.940574,1.699706,-1.1356779,134.70001,-158.1,-18.900002,,,,,,
234430,1.397262,8.778346,-6.30024,-2.942092,4.390272,-3.140264,132.3,-158.1,-21.900002,,,,,,
234450,1.1005831,8.008536,-6.522749,-2.926848,4.809482,-2.980202,129.90001,-162.90001,-27.900002,x,,,,,
234470,1.0814425,8.022293,-5.777463,-3.628072,3.2241058,-2.2865999,141.90001,-153.3,-26.1,x,,,,,
234490,1.3793176,7.8087564,-4.3945565,-4.489358,3.2317278,-3.7119138,141.90001,-146.1,-15.3,x,,,,,
234551,-0.59933925,4.075148,-2.447601,-4.260698,8.87963,-8.30798,161.1,-148.5,-19.5,x,,,,,
234615,-1.6771929,5.380894,-0.7686137,-3.628072,14.413201,-6.577786,175.5,-141.3,-22.5,x,,,,,
234655,-1.6562579,9.482361,1.6957353,-5.114362,20.1983,-9.550365,187.5,-131.70001,-26.7,x,,,,,
234676,-4.6661134,10.562009,-1.2214079,-2.7515419,21.600748,-11.440621,194.70001,-136.5,-17.1,x,,,,,
234716,-4.296461,12.14948,-0.4067372,-4.519846,10.053418,-10.426896,206.70001,-124.50001,-14.700001,x,,,,,
234740,-5.346202,11.629096,1.0060765,-2.850628,11.211962,-9.283596,211.50002,-110.100006,-26.7,x,,,,,
234760,-6.7051826,13.824281,-1.6012287,-1.150922,13.22417,-6.5549197,225.90001,-117.3,-9.3,x,,,,,
234781,-7.3703175,13.717213,-1.8835522,-1.75306,7.713464,-7.1113257,223.50002,-100.50001,-13.500001,x,,,,,
234802,-7.726213,14.455919,-0.67410713,-0.830798,2.40093,-3.094532,225.90001,-112.50001,-18.900002,x,,,,,
234822,-8.750234,14.891367,-1.4738243,0.35061198,0.602138,-2.050318,235.50002,-95.700005,-17.7,x,,,,,
234842,-10.405893,13.487526,-2.43504,0.625004,-3.2698379,-0.503052,225.90001,-98.100006,-11.1,x,,,,,
234863,-7.806962,14.329711,-0.7757914,-0.068598,-8.811031,3.7652678,235.50002,-105.3,-12.3,x,,,,,
234883,-6.423457,13.726783,-0.17106889,0.15244,-8.750056,6.257662,233.1,-112.50001,-20.7,x,,,,,
234905,-5.484373,13.387038,0.016748004,0.70122397,-7.911636,8.102186,216.3,-110.100006,-9.3,x,,,,,
234926,-7.180108,11.210396,-1.4026452,2.59148,-8.475664,7.9802337,221.1,-112.50001,-18.900002,x,,,,,
234946,-5.525047,10.81921,-1.3829066,2.347576,-11.997027,11.227205,206.70001,-112.50001,-17.7,x,,,,,
235007,-2.0952947,9.341797,-1.1909027,2.942092,-10.510737,7.9040136,189.90001,-136.5,-25.500002,x,,,,,
235027,-2.5181818,7.6801558,-2.1527166,3.54423,-9.336949,6.196686,189.90001,-134.1,-25.500002,x,,,,,
235047,-1.978657,7.3739066,-2.5582576,3.58234,-9.94671,6.295772,177.90001,-146.1,-24.900002,x,,,,,
235069,-0.94327146,7.710063,-2.096491,2.385686,-11.425378,6.143332,163.5,-138.90001,-23.1,x,,,,,
235089,-0.5012438,7.0144224,-1.6598468,1.67684,-10.815618,5.03052,165.90001,-138.90001,-27.900002,x,,,,,
235111,-1.0048802,5.874362,-2.2849061,2.888738,-8.330846,3.3003259,165.90001,-148.5,-23.1,x,,,,,
235132,-0.33914706,6.275118,-2.460162,3.3003259,-8.711946,3.833866,165.90001,-153.3,-29.1,x,,,,,
235152,-0.022729432,7.160968,-2.4075255,3.094532,-9.436036,3.88722,168.3,-150.90001,-27.300001,x,,,,,
235172,-0.04426258,6.8834295,-2.1527166,3.399412,-8.330846,2.675322,156.3,-150.90001,-22.5,x,,,,,
235192,0.4133168,7.325457,-2.216718,3.7576458,-8.368956,3.071666,161.1,-148.5,-23.7,x,,,,,
235235,-0.67171454,7.2327447,-2.56065,3.6966698,-2.454284,1.211898,161.1,-155.70001,-21.300001,x,,,,,
235255,-1.0802462,7.4211597,-3.9178364,4.64942,-1.554888,1.432936,156.3,-150.90001,-26.1,x,,,,,
235276,-1.2788297,6.956403,-4.045241,4.11588,-3.490876,1.730194,161.1,-146.1,-17.7,x,,,,,
235316,-0.27514577,8.397927,-3.8675923,3.475632,-3.971062,3.46801,144.3,-150.90001,-26.7,x,,,,,
235358,-0.8421853,8.311196,-3.761123,1.6311079,-1.798792,1.775926,139.5,-155.70001,-23.7,x,,,,,
235378,-0.6310408,7.8853188,-3.9878192,1.6158639,-2.004586,1.074702,144.3,-148.5,-19.5,x,,,,,
235401,-0.7291363,8.340506,-3.3466098,0.83842,-1.806414,1.585376,132.3,-155.70001,-26.1,x,,,,,
235421,-0.7333233,8.743055,-3.3543859,0.35061198,-0.480186,0.891774,149.1,-153.3,-25.500002,x,,,,,
235441,-0.77938026,8.166446,-3.2198036,-0.068598,-0.015244,-0.426832,137.1,-153.3,-9.900001,x,,,,,
235461,-1.1394624,7.6807537,-3.129484,-0.007622,1.006104,-0.830798,129.90001,-160.5,-19.5,x,,,,,
235482,-1.2686613,7.7938027,-3.5996244,0.3811,1.966476,-0.503052,132.3,-158.1,-21.900002,,,,,,
235502,-1.0850314,8.790907,-3.798806,0.663114,0.99086,0.106708,144.3,-158.1,-16.5,,,,,,
235524,-0.83859646,9.578063,-3.3819003,-0.289636,0.41921,-0.259148,144.3,-155.70001,-18.900002,,,,,,
235544,-0.9253272,9.182691,-3.137858,-0.640248,1.8978779,-1.6234859,134.70001,-153.3,-15.900001,,,,,,
235564,-0.8475686,9.2054205,-3.7605247,-0.67835796,2.8048959,-1.8292799,151.5,-158.1,-17.1,,,,,,
235604,-1.187912,8.281289,-4.054213,-0.46494198,1.996964,-1.3643379,149.1,-150.90001,-20.1,,,,,,
235667,0.06519759,9.786217,-4.818042,-0.64787,4.03966,-0.64787,153.90001,-155.70001,-21.900002,,,,,,
235687,0.15252645,9.562511,-5.041149,-0.754578,2.2942219,-0.640248,144.3,-141.3,-21.900002,,,,,,
235707,0.6878644,9.860387,-4.476502,-1.166166,0.594516,0.47256398,146.70001,-155.70001,-15.900001,,,,,,
235729,1.8105788,11.059664,-3.5840726,-2.393308,0.983238,1.02897,146.70001,-138.90001,-20.1,,,,,,
235750,1.0832369,9.787414,-3.488968,-2.004586,3.01069,-1.059458,149.1,-150.90001,-16.5,,,,,,
235791,1.1903045,10.335911,-3.476407,-0.746956,0.182928,-0.868908,144.3,-150.90001,-22.5,,,,,,
235851,0.45698124,8.598904,-3.0188277,-0.846042,0.92226195,-1.6234859,141.90001,-158.1,-18.300001,,,,,,
235871,0.19977975,8.171231,-2.8465624,-0.64787,0.213416,-1.478668,158.70001,-155.70001,-23.7,,,,,,
235894,0.2978752,7.9876013,-2.4487972,-0.754578,-0.46494198,-0.899396,144.3,-148.5,-17.1,,,,,,
235914,0.06280501,7.52404,-2.1449406,-1.02897,-0.243904,-0.739334,141.90001,-155.70001,-21.900002,,,,,,
235979,-0.37623194,7.8261027,-2.1616888,-0.625004,-0.045732,-0.091464,141.90001,-148.5,-23.1,,,,,,
236030,0.30864176,9.53739,-2.594146,-0.099086,-0.716468,2.195136,146.70001,-146.1,-21.900002,,,,,,
236050,0.2906975,10.478269,-3.0361738,-0.99086,0.708846,1.097568,134.70001,-155.70001,-26.1,,,,,,
236092,-0.6477888,8.606081,-4.1564956,-0.34298998,1.814036,-1.951232,149.1,-153.3,-23.7,,,,,,
236134,-0.68128484,9.860387,-6.2224813,0.716468,2.82014,-1.570132,146.70001,-148.5,-17.1,,,,,,
236154,0.28172535,9.747936,-6.535908,0.07622,0.07622,-1.989342,144.3,-141.3,-15.3,,,,,,
236174,0.39776507,9.403405,-5.798398,-0.94512796,-0.60976,-1.71495,151.5,-155.70001,-15.900001,,,,,,
236218,0.19977975,8.531911,-5.609983,0.022866,0.541162,-2.888738,149.1,-146.1,-21.300001,x,,,,,
236238,0.22490175,8.311794,-3.7389917,-1.06708,-0.46494198,-3.8262439,158.70001,-143.70001,-17.1,x,,,,,
236259,-0.3648672,6.4282427,-2.9063766,-0.663114,4.756128,-6.5854077,170.70001,-146.1,-15.3,x,,,,,
236279,-0.9025977,4.6338134,-3.5481842,0.213416,7.3628516,-7.233278,173.1,-134.1,-15.900001,x,,,,,
236299,-0.14056359,5.124889,-3.4279573,0.388722,5.731744,-4.5884438,175.5,-138.90001,-19.5,x,,,,,
236323,-0.02033686,6.0609827,-2.1323798,-0.46494198,4.83997,-4.718018,180.3,-143.70001,-19.5,x,,,,,
236344,-0.047851436,5.970065,-2.6886528,-0.106708,9.283596,-6.5244317,173.1,-131.70001,-15.900001,x,,,,,
236365,-0.22071476,5.4317365,-2.3530943,-1.326228,7.77444,-6.753092,185.1,-138.90001,-18.300001,x,,,,,
236385,-0.47492552,4.9974847,-1.0862277,-3.1936178,8.0945635,-6.951264,194.70001,-134.1,-17.1,x,,,,,
236406,-2.171857,4.393958,-1.6036214,-2.01983,11.768368,-6.59303,189.90001,-124.50001,-15.3,x,,,,,
236427,-1.6341265,6.8170357,-1.9188427,-2.431418,10.297321,-3.971062,197.1,-114.9,-15.3,x,,,,,
236447,-2.3686461,7.915226,-1.1675751,-3.2927039,10.922326,-5.617414,197.1,-119.700005,-14.1,x,,,,,
236467,-3.8143578,10.008128,-1.8757764,-2.621968,13.41472,-5.762232,199.50002,-126.9,-7.5000005,x,,,,,
236509,-4.8300047,11.727191,-2.1915958,-3.971062,8.780544,-11.01379,204.3,-112.50001,-11.700001,x,,,,,
236530,-7.6789594,12.943215,-1.4104211,-1.951232,8.147918,-8.147918,228.3,-110.100006,-8.1,x,,,,,
236572,-9.104933,12.97731,-3.3729281,-1.234764,1.5244,-4.4664917,223.50002,-110.100006,-12.3,x,,,,,
236632,-7.7938027,14.562987,-3.0397625,-1.3490939,-7.042728,2.7896519,218.70001,-105.3,-9.3,x,,,,,
236654,-5.74935,12.763773,-1.426571,-1.554888,-11.379645,5.823208,221.1,-124.50001,-13.500001,x,,,,,
236674,-5.1685534,12.127349,-0.3953725,-0.510674,-10.053418,6.798824,209.1,-112.50001,-14.1,x,,,,,
236694,-5.1649647,10.9226885,-1.3870935,0.586894,-8.07932,7.4390717,216.3,-117.3,-14.700001,x,,,,,
236714,-4.00696,10.765377,-1.3918787,0.41158798,-9.199754,7.896392,216.3,-112.50001,-17.1,x,,,,,
236734,-3.5673246,9.975828,-1.1568085,0.72409,-9.740916,6.280528,201.90001,-119.700005,-23.1,x,,,,,
236754,-3.0391645,8.684438,-1.0694796,0.80030996,-9.504634,5.045764,192.3,-134.1,-17.1,x,,,,,
236776,-2.5367243,7.3607473,-1.1783416,1.5244,-8.841519,4.34454,185.1,-119.700005,-20.7,x,,,,,
236796,-2.3471131,6.727314,-1.6604449,2.7667859,-8.071698,4.5122237,185.1,-136.5,-21.300001,x,,,,,
236819,-1.6407062,7.2871757,-2.238251,3.323192,-8.292736,5.60217,192.3,-124.50001,-18.900002,x,,,,,
236839,-1.7370071,7.350579,-2.234662,2.82014,-9.039692,4.664664,180.3,-148.5,-15.3,x,,,,,
236859,-0.65795726,7.0987606,-2.2741396,2.17227,-8.178406,3.064044,185.1,-148.5,-20.1,x,,,,,
236880,-0.4426258,7.187884,-2.0390694,1.417692,-8.071698,2.530504,175.5,-119.700005,-15.3,x,,,,,
236900,-0.77758586,6.814045,-2.1832218,1.18141,-5.52595,0.19055,185.1,-148.5,-26.7,x,,,,,
236920,-0.581395,5.7882295,-2.9721725,2.446662,-4.9543,-1.478668,177.90001,-134.1,-21.300001,x,,,,,
236940,-0.3881948,4.9885125,-2.72813,2.454284,-6.798824,-0.617382,185.1,-138.90001,-20.1,x,,,,,
236960,-0.18781689,6.271529,-2.5570612,2.2637339,-6.0976,1.56251,182.70001,-141.3,-21.300001,x,,,,,
236981,-0.6663313,6.2230797,-3.4632478,2.7667859,-2.560992,-0.16768399,165.90001,-143.70001,-24.900002,x,,,,,
237001,-0.7596416,7.128668,-4.559046,3.7042918,-2.035074,2.126538,187.5,-141.3,-18.900002,x,,,,,
237025,-0.39656878,8.025284,-4.3616586,2.32471,-3.643316,2.40093,175.5,-138.90001,-21.300001,x,,,,,
237046,-0.8571389,8.001957,-3.6821682,2.332332,-3.056422,1.455802,180.3,-138.90001,-16.5,x,,,,,
237066,-1.3021573,9.026576,-4.4920535,2.51526,0.35061198,1.67684,177.90001,-153.3,-24.300001,x,,,,,
237086,-1.192099,9.252075,-5.331846,1.974098,0.99086,0.57164997,177.90001,-131.70001,-18.300001,x,,,,,
237106,-0.8350076,9.131848,-5.5405984,1.8902559,-1.021348,0.289636,175.5,-141.3,-17.1,x,,,,,
237126,-0.66214424,9.319068,-5.17932,1.1128119,-1.33385,0.312502,175.5,-141.3,-16.5,x,,,,,
237146,-0.7201641,9.240112,-5.230162,0.739334,-0.541162,0.03811,182.70001,-148.5,-20.7,,,,,,
237166,-0.85355,9.443481,-5.0806265,0.106708,-0.3811,-0.060976,173.1,-136.5,-28.500002,,,,,,
237230,-1.6341265,9.116895,-4.5411015,-0.137196,0.434454,-0.739334,180.3,-148.5,-16.5,,,,,,
237251,-1.6161823,9.289161,-4.309022,-0.442076,0.099086,-0.442076,175.5,-131.70001,-18.300001,,,,,,
237271,-1.5025351,8.900368,-3.8424704,-0.94512796,0.0,-0.35061198,173.1,-141.3,-20.7,,,,,,
237291,-1.5162925,8.369815,-3.4375277,-1.082324,0.47256398,0.007622,182.70001,-138.90001,-15.3,,,,,,
237312,-1.4576744,8.132352,-3.1414468,-1.074702,0.70122397,0.510674,163.5,-134.1,-15.900001,,,,,,
237373,-0.8529519,8.3740015,-3.0720623,-0.396344,0.594516,0.312502,175.5,-146.1,-21.900002,,,,,,
237433,-0.6543684,8.547463,-3.3460119,-0.746956,1.425314,0.33536798,175.5,-138.90001,-18.300001,,,,,,
237471,-0.72435117,8.1150055,-4.1684585,-0.625004,1.509156,-0.015244,175.5,-134.1,-19.5,,,,,,
237493,-0.7016217,9.07024,-4.7923217,-1.158544,2.332332,0.53354,173.1,-148.5,-23.7,,,,,,
237533,-0.7997171,8.512173,-6.706379,0.137196,4.740884,-1.25763,168.3,-136.5,-23.1,,,,,,
237573,0.2906975,10.401707,-6.7452583,-1.021348,0.91463995,0.121952,177.90001,-146.1,-21.300001,x,,,,,
237594,0.4898791,10.391538,-6.3361287,-1.699706,1.768304,-1.1432999,153.90001,-141.3,-20.7,x,,,,,
237614,0.17764847,9.241309,-5.5053077,-2.2180018,2.7515419,-2.675322,175.5,-143.70001,-15.900001,x,,,,,
237674,0.024523862,7.271624,-2.9955,-1.989342,6.9283977,-7.27901,182.70001,-141.3,-11.1,x,,,,,
237732,-2.1694646,4.4184823,-2.865105,-1.227142,12.477214,-7.400962,201.90001,-114.9,-15.900001,x,,,,,
237767,-1.564742,6.869672,-2.7550466,-1.48629,8.887252,-4.9314337,192.3,-119.700005,-13.500001,x,,,,,
237787,-1.9654979,5.411998,-2.0013864,-2.675322,9.740916,-7.629622,204.3,-122.100006,-9.3,x,,,,,
237827,-1.9379833,6.0567956,-1.8273268,-3.437522,8.788166,-4.4664917,221.1,-112.50001,-12.900001,x,,,,,
237887,-3.4524813,10.826986,-2.0438545,-2.469528,8.178406,-2.7515419,225.90001,-112.50001,-4.5,x,,,,,
237910,-3.903481,12.440178,-2.4661434,-3.12502,10.40403,-6.6311398,216.3,-107.700005,-11.700001,x,,,,,
237930,-5.0519156,9.555932,-3.05352,-3.54423,7.789684,-9.1159115,204.3,-105.3,-8.1,x,,,,,
237950,-6.112423,10.810836,-2.1868107,-3.094532,6.5244317,-6.5549197,233.1,-107.700005,-6.3,x,,,,,
237970,-5.0973744,12.6070595,-2.3243835,-3.6966698,5.739366,-5.4116197,223.50002,-83.700005,-6.3,x,,,,,
237994,-6.1010585,11.757098,-1.5874715,-3.475632,3.88722,-6.067112,228.3,-93.3,-12.3,x,,,,,
238014,-7.9265904,11.490327,-2.0091622,-1.9131219,4.702774,-4.093014,230.70001,-76.5,-8.700001,x,,,,,
238036,-7.677165,13.552724,-3.1653726,-1.554888,1.6463519,-0.72409,235.50002,-95.700005,-0.90000004,x,,,,,
238056,-8.064762,13.241091,-2.187409,-1.48629,-2.103672,0.358234,240.3,-90.9,-7.5000005,x,,,,,
238076,-8.076725,12.970731,-2.631829,-0.868908,-3.338436,2.7972739,230.70001,-81.3,-2.1000001,x,,,,,
238096,-7.291961,12.839737,-2.1186223,-1.166166,-6.280528,4.710396,237.90001,-88.5,-15.900001,x,,,,,
238116,-7.8889074,11.574665,-2.2729433,-0.373478,-6.9893737,5.693634,240.3,-81.3,-7.5000005,x,,,,,
238136,-6.9713564,10.870052,-3.0810344,0.182928,-8.6509695,8.582372,233.1,-105.3,-18.300001,x,,,,,
238199,-3.4644442,9.941734,-1.8859448,-0.160062,-9.474146,9.390304,206.70001,-119.700005,-12.3,x,,,,,
238263,-2.5415094,8.21669,-2.9350874,1.493912,-10.86135,7.0655937,192.3,-136.5,-23.7,x,,,,,
238283,-2.0635931,8.204129,-2.3411317,1.310984,-12.1952,5.52595,197.1,-138.90001,-20.1,x,,,,,
238303,-1.5216757,6.956403,-2.292682,2.40093,-10.21348,2.926848,177.90001,-131.70001,-19.5,x,,,,,
238323,-0.8625222,6.2482014,-2.526556,3.0488,-10.083906,2.911604,192.3,-138.90001,-18.300001,x,,,,,
238368,-0.7943339,6.4874587,-2.443414,2.43904,-7.8277936,3.407034,177.90001,-141.3,-23.7,x,,,,,
238389,-0.6077133,6.5305247,-2.5385187,2.088428,-7.8277936,3.368924,177.90001,-134.1,-22.5,x,,,,,
238409,-0.43903694,6.4408035,-2.1353705,1.204276,-7.797306,3.2927039,175.5,-146.1,-18.900002,x,,,,,
238429,-0.37802637,6.5448804,-2.2902894,1.265252,-6.234796,3.567096,177.90001,-141.3,-18.300001,x,,,,,
238491,-0.25779963,8.069547,-3.1857095,2.073184,-3.117398,1.67684,168.3,-143.70001,-16.5,x,,,,,
238511,0.13398403,8.784925,-3.5810819,2.7744079,-2.7744079,2.195136,168.3,-138.90001,-15.900001,x,,,,,
238531,0.45997193,9.356153,-3.9728656,2.980202,-1.989342,2.454284,163.5,-148.5,-24.300001,x,,,,,
238551,-0.0053832866,9.403405,-4.685254,2.995446,-1.501534,0.30488,158.70001,-150.90001,-26.1,x,,,,,
238613,-0.72853816,8.865675,-5.364744,1.478668,-2.080806,-0.137196,156.3,-138.90001,-21.900002,x,,,,,
238633,-0.5592637,8.7304945,-4.752246,0.663114,-2.827762,0.053354,170.70001,-143.70001,-24.900002,x,,,,,
238657,-0.38161522,8.714943,-4.154701,0.030488,-2.195136,0.144818,165.90001,-148.5,-20.7,x,,,,,
238677,-0.36307278,8.437405,-3.7294214,-0.40396598,-1.3490939,0.060976,161.1,-158.1,-16.5,x,,,,,
238737,-0.3409415,8.910536,-2.6796806,-0.40396598,0.19055,0.19055,175.5,-141.3,-17.7,,,,,,
238780,-0.82424104,8.137735,-3.2066445,-0.060976,1.204276,-0.327746,161.1,-150.90001,-21.300001,,,,,,
238840,-0.40314835,8.991285,-3.6385038,1.1204339,0.251526,0.274392,177.90001,-146.1,-20.1,,,,,,
238880,-0.19439647,8.709559,-3.6385038,-0.243904,0.548784,0.17530599,168.3,-146.1,-12.900001,,,,,,
239092,1.2913907,9.3244505,-5.0561028,-3.1936178,7.4543157,-0.960372,144.3,-153.3,-21.300001,x,,,,,
239112,1.2519132,8.808253,-4.5883546,-3.833866,8.940606,-1.8902559,153.90001,-150.90001,-21.900002,x,,,,,
239154,0.43903694,7.00246,-3.9238179,-3.460388,11.01379,-5.000032,151.5,-153.3,-14.1,x,,,,,
239195,-0.14116174,6.2924643,-2.7795703,-2.43904,11.036655,-7.01224,170.70001,-148.5,-17.1,x,,,,,
239215,-0.34213778,5.91683,-2.36745,-1.737816,11.471109,-8.003099,168.3,-146.1,-24.900002,x,,,,,
239237,-1.0904146,5.126683,-2.0384712,-1.958854,11.66166,-9.573232,180.3,-136.5,-21.300001,x,,,,,
239277,-3.6588407,3.6187649,-3.4823885,2.385686,11.417756,-7.58389,175.5,-129.3,-16.5,x,,,,,
239319,-0.8798683,8.217886,0.60173184,-2.2789779,1.935988,-4.9771657,204.3,-122.100006,-9.900001,x,,,,,
239339,0.053234726,9.816124,0.97796375,-4.580822,7.9040136,-6.59303,199.50002,-126.9,-11.700001,x,,,,,
239359,-3.1157267,10.435801,-0.88226086,-4.15399,14.192163,-9.786648,201.90001,-117.3,-8.700001,x,,,,,
239382,-5.10515,11.590217,-3.142045,-2.51526,12.355262,-11.143364,201.90001,-107.700005,-2.1000001,x,,,,,
239402,-5.678171,12.223052,-2.5086117,-3.940574,6.0290017,-10.876594,223.50002,-100.50001,-7.5000005,x,,,,,
239422,-5.8677826,10.792294,-0.8391946,-4.108258,3.033556,-10.495494,213.90001,-98.100006,-7.5000005,x,,,,,
239442,-7.2524834,11.731379,-1.4672447,-1.3719599,4.748506,-6.196686,218.70001,-90.9,-3.9,x,,,,,
239463,-6.484468,13.750709,-2.3644593,-1.440558,3.605206,-3.612828,242.70001,-90.9,-10.5,x,,,,,
239483,-8.110221,13.090957,-2.2125309,-0.259148,1.006104,-3.8186219,230.70001,-78.9,-18.300001,x,,,,,
239505,-9.240112,12.54246,-2.9614058,0.160062,-1.9054999,-1.440558,237.90001,-88.5,-9.900001,x,,,,,
239526,-7.8978796,13.832654,-2.3058412,-0.47256398,-5.541194,1.5244,252.3,-76.5,-5.1000004,x,,,,,
239546,-7.6125655,13.466591,-1.6969316,-0.47256398,-7.0198617,2.59148,213.90001,-86.100006,-11.1,x,,,,,
239566,-8.022892,12.431804,-1.6000324,-0.045732,-8.208894,3.856732,242.70001,-93.3,-12.3,x,,,,,
239586,-7.2536798,12.078899,-0.97616935,0.15244,-9.961954,6.5701637,245.1,-100.50001,-19.5,x,,,,,
239606,-6.512581,12.223052,-0.5096178,0.731712,-9.779026,8.68908,233.1,-105.3,-12.900001,x,,,,,
239626,-5.1404405,11.651227,-0.723753,0.94512796,-8.490908,10.792751,221.1,-105.3,-20.7,x,,,,,
239691,-3.4136019,9.41477,-2.2035587,2.454284,-10.068662,10.762263,213.90001,-131.70001,-17.7,x,,,,,
239711,-2.640203,8.983509,-2.012751,2.431418,-10.076283,9.557988,201.90001,-134.1,-23.1,x,,,,,
239731,-2.5630426,8.128763,-2.5815852,2.644834,-8.445176,8.368956,182.70001,-134.1,-19.5,x,,,,,
239751,-2.2286806,6.95401,-3.204252,2.8048959,-8.010722,7.4695597,185.1,-138.90001,-22.5,x,,,,,
239771,-1.4158044,6.9145327,-3.040959,2.843006,-9.94671,7.6524878,180.3,-134.1,-22.5,x,,,,,
239791,-0.8505593,7.095172,-2.292084,2.17227,-10.388785,6.8369336,182.70001,-150.90001,-27.900002,x,,,,,
239811,-0.37563378,6.916327,-2.3991516,2.309466,-8.795788,5.708878,175.5,-136.5,-18.900002,x,,,,,
239835,-0.47552365,5.425755,-2.7347097,2.926848,-7.820172,3.528986,161.1,-143.70001,-28.500002,x,,,,,
239856,0.20277047,5.4646344,-2.652166,3.323192,-7.713464,4.817104,141.90001,-148.5,-20.7,x,,,,,
239878,0.656761,6.2517905,-2.2035587,2.7439198,-8.186028,5.617414,156.3,-134.1,-29.1,x,,,,,
239898,0.59515226,6.505403,-2.1311834,2.2332458,-5.495462,4.87808,141.90001,-146.1,-21.300001,x,,,,,
239961,0.62745196,8.171829,-3.6343167,2.2103798,-4.260698,3.490876,149.1,-153.3,-20.7,x,,,,,
239991,1.2471281,9.434509,-3.6678126,1.288118,-2.843006,2.2332458,137.1,-160.5,-15.900001,x,,,,,
240012,0.9994969,8.586343,-3.4716218,0.777444,-2.949714,0.57164997,125.100006,-165.3,-18.300001,x,,,,,
240052,0.46714967,7.647258,-3.3430212,0.49543,-0.853664,0.449698,132.3,-170.1,-15.900001,,,,,,
240074,0.43365365,9.138429,-4.1846085,1.158544,-0.17530599,0.617382,137.1,-160.5,-16.5,,,,,,
240095,0.47552365,9.374695,-4.355677,0.93750596,-0.525918,-0.434454,129.90001,-155.70001,-22.5,,,,,,
240161,0.06579573,9.332227,-4.371827,0.655492,-0.754578,-1.5929979,137.1,-155.70001,-21.300001,,,,,,
240253,-0.055627298,8.616249,-3.8418722,0.11432999,0.716468,-0.03811,139.5,-150.90001,-20.1,,,,,,
240313,0.2643792,8.813637,-3.2909827,-0.388722,0.663114,0.07622,139.5,-162.90001,-20.7,,,,,,
240353,0.4982531,8.320766,-3.0600994,-0.67835796,0.365856,-0.548784,141.90001,-148.5,-21.900002,,,,,,
240373,0.68846256,8.450563,-3.2054482,-0.137196,0.11432999,-0.373478,141.90001,-138.90001,-15.3,,,,,,
240413,0.8338113,8.171829,-3.3567784,-0.518296,0.55640596,-1.18141,151.5,-148.5,-24.300001,,,,,,
240437,0.7309307,7.7423625,-3.6498685,-0.503052,0.99086,-1.3872039,132.3,-158.1,-22.5,,,,,,
240457,0.7201641,7.8410563,-4.0057635,-0.81555396,1.432936,-1.1432999,149.1,-150.90001,-22.5,,,,,,
240480,0.5885727,8.502005,-4.6302247,-0.93750596,2.2256238,-0.983238,146.70001,-146.1,-12.900001,,,,,,
240500,0.17346147,8.305813,-5.376707,-0.87653,3.2317278,-2.004586,137.1,-148.5,-18.300001,,,,,,
240521,0.086132586,8.454153,-5.7583222,-0.358234,3.856732,-1.8902559,153.90001,-162.90001,-24.300001,,,,,,
240541,0.32419348,8.93805,-6.6932197,0.594516,4.4512477,-1.547266,146.70001,-160.5,-12.3,,,,,,
240564,0.7997171,9.110315,-6.6752753,-1.242386,1.013726,-1.3567159,151.5,-134.1,-17.1,,,,,,
240584,0.14953575,8.823805,-6.050814,-1.6006199,2.7439198,-1.44818,156.3,-148.5,-21.300001,,,,,,
240628,0.25301448,9.366321,-6.217696,-1.082324,2.2027578,-1.760682,158.70001,-153.3,-23.7,x,,,,,
240648,0.08792701,8.83517,-4.263563,-2.446662,1.3872039,-3.902464,139.5,-150.90001,-19.5,x,,,,,
240668,-0.36367092,7.6376877,-3.6498685,-2.378064,4.923812,-5.9375377,161.1,-143.70001,-18.900002,x,,,,,
240708,-0.5281602,5.9437466,-2.3686461,-3.071666,5.838452,-6.486322,156.3,-146.1,-16.5,x,,,,,
240731,-0.47253296,5.8803434,-1.1849213,-3.7271578,9.085423,-6.996996,175.5,-141.3,-15.3,x,,,,,
240751,-0.4426258,5.3785014,-0.9827489,-3.7957559,11.554952,-7.69822,173.1,-134.1,-20.1,x,,,,,
240773,-0.5209825,5.28878,-1.2596891,-3.452766,13.140327,-7.8887696,177.90001,-143.70001,-23.7,x,,,,,
240835,-2.7795703,6.5089917,-1.7423905,-1.006104,14.161675,-6.638762,199.50002,-131.70001,-14.1,x,,,,,
240857,-2.8806565,7.564714,-2.2328677,-0.708846,12.934534,-6.875044,194.70001,-129.3,-6.3,x,,,,,
240877,-3.4752107,8.823805,-1.8045974,-1.29574,11.234828,-7.233278,209.1,-122.100006,-15.900001,x,,,,,
240897,-4.1116347,10.31019,-2.7173636,-1.1204339,10.93757,-7.8887696,216.3,-107.700005,-3.9,x,,,,,
240917,-4.027895,12.206902,-2.447003,-2.545748,8.003099,-7.385718,213.90001,-110.100006,-7.5000005,x,,,,,
240937,-4.890417,11.491523,-2.3578796,-2.7134318,6.4634557,-9.1159115,197.1,-114.9,-9.3,x,,,,,
240957,-7.2871757,10.251573,-2.3327575,-1.760682,3.650938,-8.551884,211.50002,-88.5,-5.1000004,x,,,,,
240980,-6.7452583,14.869236,-2.5032284,-1.974098,1.3872039,-2.157026,225.90001,-93.3,-8.1,x,,,,,
241000,-6.925299,15.148569,-1.9666941,-2.614346,-0.69360197,-2.987824,223.50002,-100.50001,-12.900001,x,,,,,
241020,-8.529519,14.140698,-2.7077932,-1.33385,-2.187514,-1.692084,216.3,-95.700005,-11.1,x,,,,,
241040,-7.8380656,14.3667965,-2.3865905,-1.814036,-5.495462,1.417692,218.70001,-95.700005,-6.9,x,,,,,
241062,-7.2536798,14.113183,-1.5420126,-1.5244,-7.324742,3.407034,218.70001,-105.3,-14.700001,x,,,,,
241082,-6.73509,13.148977,-1.3900843,-0.830798,-8.1555395,5.800342,230.70001,-102.9,-10.5,x,,,,,
241102,-5.5914407,12.717117,-0.90558845,-0.358234,-8.673836,7.9802337,211.50002,-110.100006,-11.1,x,,,,,
241142,-5.4837747,10.42623,-1.9302074,1.730194,-7.073216,8.643348,209.1,-126.9,-22.5,x,,,,,
241165,-4.6894407,9.803563,-2.941069,2.13416,-8.925362,10.160126,199.50002,-126.9,-17.1,x,,,,,
241185,-2.962004,10.009324,-2.1724553,1.432936,-11.89032,10.686044,192.3,-131.70001,-17.7,x,,,,,
241205,-2.2442324,9.482959,-1.8129714,1.478668,-11.539708,9.542744,175.5,-129.3,-17.7,x,,,,,
241225,-2.0187325,8.697597,-2.2209048,1.432936,-10.25159,8.292736,173.1,-126.9,-20.7,x,,,,,
241245,-1.8596265,7.7967935,-2.5403132,1.585376,-9.474146,7.0503497,187.5,-143.70001,-20.1,x,,,,,
241305,-0.9187476,7.819523,-2.5588555,1.44818,-8.3842,6.082356,168.3,-153.3,-22.5,x,,,,,
241369,-0.5329454,6.6597238,-3.2275794,2.187514,-6.3872356,2.484772,151.5,-148.5,-18.900002,x,,,,,
241410,0.22071476,6.5371046,-2.777776,1.6539739,-6.25004,1.6006199,156.3,-160.5,-19.5,x,,,,,
241430,0.25421077,6.0597863,-2.5869684,1.8369019,-5.243936,1.204276,141.90001,-160.5,-23.7,x,,,,,
241450,0.3714468,6.107638,-2.8005054,2.179892,-4.024416,1.8597679,141.90001,-148.5,-24.300001,x,,,,,
241490,0.7082013,7.9553013,-2.6120903,1.67684,-3.2317278,1.6234859,151.5,-148.5,-24.300001,x,,,,,
241510,0.7644267,7.828495,-2.7843556,1.516778,-1.67684,0.46494198,149.1,-158.1,-21.900002,x,,,,,
241550,0.74947315,8.7304945,-3.2538977,1.509156,-0.373478,0.640248,139.5,-153.3,-15.900001,x,,,,,
241570,0.35170805,9.365723,-3.6450832,1.29574,0.884152,0.19055,146.70001,-155.70001,-26.7,,,,,,
241590,-0.10228245,9.13125,-4.4041266,1.516778,2.09605,-0.93750596,153.90001,-141.3,-17.7,,,,,,
241613,-0.11962859,8.956593,-5.141637,2.43904,1.432936,-0.960372,146.70001,-160.5,-14.1,,,,,,
241673,-0.56046,8.903358,-4.68645,1.166166,-1.044214,-0.891774,149.1,-160.5,-18.900002,,,,,,
241726,-0.42647594,8.681447,-4.318592,0.213416,-0.785066,-0.137196,146.70001,-155.70001,-17.1,,,,,,
241746,-0.21234076,8.740065,-4.118214,0.221038,-0.22865999,0.3811,134.70001,-153.3,-17.7,,,,,,
241791,-0.25122005,8.380581,-3.514688,-0.373478,0.94512796,0.297258,139.5,-153.3,-15.3,,,,,,
241811,-0.3367545,8.360843,-3.580484,-0.259148,1.3490939,0.365856,139.5,-150.90001,-12.3,,,,,,
241831,-0.3409415,8.411685,-3.73959,-0.17530599,1.089946,0.28201398,149.1,-162.90001,-12.900001,,,,,,
241853,-0.17166704,8.508584,-3.8293114,0.091464,0.518296,0.221038,146.70001,-143.70001,-17.7,,,,,,
241933,0.5556748,8.14252,-3.727627,-0.884152,0.297258,-0.67835796,134.70001,-141.3,-23.7,,,,,,
242035,0.4384388,8.609072,-4.928698,-1.554888,3.01069,-1.463424,144.3,-153.3,-17.1,x,,,,,
242056,0.33137122,8.821412,-4.8347898,-2.500016,2.995446,-1.760682,153.90001,-146.1,-20.1,x,,,,,
242096,-0.22490175,8.922499,-5.9598966,-1.661596,7.294254,-3.140264,153.90001,-148.5,-20.7,x,,,,,
242138,0.3564932,9.638475,-6.5185623,-2.339954,4.428382,-3.612828,151.5,-146.1,-16.5,x,,,,,
242178,-0.033496007,8.241812,-4.4208746,-4.298808,7.3933396,-5.990892,163.5,-148.5,-13.500001,x,,,,,
242210,-0.60890955,6.9857116,-4.3263683,-4.4055157,11.433,-7.195168,161.1,-141.3,-17.7,x,,,,,
242230,-1.150827,6.0256925,-4.0595965,-3.917708,11.783611,-7.8735256,173.1,-136.5,-26.7,x,,,,,
242273,-1.1980804,4.952624,-2.2747378,-2.93447,10.106771,-7.8887696,189.90001,-131.70001,-12.3,x,,,,,
242293,-0.80749303,5.162572,-1.9583201,-2.423796,10.419273,-7.942124,194.70001,-138.90001,-5.1000004,x,,,,,
242313,-0.8182596,4.9065666,-1.4636558,-2.865872,10.632689,-8.734812,192.3,-126.9,-14.700001,x,,,,,
242333,-1.873982,4.5692143,-1.4971519,-2.309466,12.7363615,-9.03207,209.1,-110.100006,-12.900001,x,,,,,
242396,-2.6043146,9.651037,-0.5508897,-2.7362978,9.367437,-4.45887,204.3,-119.700005,-6.3,x,,,,,
242417,-3.9417622,9.42793,-0.7183697,-2.40093,13.323256,-9.062558,206.70001,-110.100006,-11.700001,x,,,,,
242438,-5.6961155,10.290452,-1.7848586,-1.310984,12.7363615,-8.23176,216.3,-117.3,-9.900001,x,,,,,
242458,-5.7625093,12.580143,-2.1371648,-2.004586,10.068662,-6.9893737,216.3,-95.700005,-11.700001,x,,,,,
242502,-6.7919135,12.361821,-1.5802938,-1.547266,6.74547,-3.7652678,216.3,-93.3,-5.1000004,x,,,,,
242522,-6.513179,14.088659,-2.4021423,-1.783548,4.9543,-2.865872,230.70001,-98.100006,-4.5,x,,,,,
242543,-8.05579,13.833851,-2.2579896,-1.059458,1.798792,-3.094532,216.3,-102.9,-7.5000005,x,,,,,
242564,-8.690419,14.009705,-2.9237227,-1.21952,-0.60976,-0.030488,223.50002,-81.3,-5.1000004,x,,,,,
242584,-7.480376,14.434984,-2.2394474,-1.8597679,-4.565578,2.599102,233.1,-90.9,-7.5000005,x,,,,,
242604,-6.969562,14.170007,-2.0306954,-0.70122397,-6.280528,4.0015497,225.90001,-98.100006,-11.1,x,,,,,
242624,-7.450469,12.52631,-2.1945865,-0.060976,-8.109808,4.824726,221.1,-86.100006,-8.700001,x,,,,,
242644,-6.8601017,12.13034,-2.054023,0.289636,-9.969576,7.492426,223.50002,-102.9,-10.5,x,,,,,
242664,-5.7876315,12.081292,-1.9798533,0.35061198,-10.6631775,9.169266,223.50002,-98.100006,-15.3,x,,,,,
242684,-5.2403307,11.094954,-2.129389,0.373478,-11.2195835,9.6723175,206.70001,-100.50001,-14.700001,x,,,,,
242704,-4.8072753,9.948912,-2.5337336,0.716468,-11.600684,9.969576,211.50002,-124.50001,-16.5,x,,,,,
242727,-3.8257225,9.816124,-2.4003477,0.792688,-12.096114,10.647934,199.50002,-122.100006,-19.5,x,,,,,
242747,-3.0595014,9.224561,-2.568426,1.059458,-11.936051,9.9086,197.1,-124.50001,-19.5,x,,,,,
242770,-2.242438,8.131156,-2.62824,1.577754,-12.2104435,8.856764,187.5,-138.90001,-21.300001,x,,,,,
242790,-1.8273268,7.5210495,-2.3656554,1.775926,-11.92843,8.368956,177.90001,-138.90001,-19.5,x,,,,,
242810,-1.0515354,7.990592,-2.2406435,1.722572,-11.783611,8.056454,182.70001,-141.3,-16.5,x,,,,,
242830,-1.1239107,6.9803286,-1.7023149,1.554888,-11.211962,6.257662,170.70001,-138.90001,-18.900002,x,,,,,
242850,-1.3416346,5.992196,-2.0641913,2.088428,-9.245486,6.051868,168.3,-136.5,-18.900002,x,,,,,
242870,-1.2937832,6.119003,-2.4535825,2.599102,-8.5899935,6.547298,177.90001,-143.70001,-27.300001,x,,,,,
242894,-0.74947315,7.517461,-2.4781063,2.393308,-8.841519,6.844556,161.1,-146.1,-21.300001,x,,,,,
242914,-0.37264308,7.3081107,-1.9056835,1.166166,-9.390304,4.45887,153.90001,-158.1,-27.300001,x,,,,,
242934,-0.723753,5.4795876,-1.5976399,1.013726,-7.16468,2.2180018,149.1,-148.5,-23.7,x,,,,,
242997,0.2033686,7.7040815,-2.6689138,2.088428,-3.7500238,3.102154,137.1,-153.3,-22.5,x,,,,,
243076,1.2830167,9.197046,-3.7635155,2.2942219,-1.196654,1.3490939,127.50001,-165.3,-18.900002,x,,,,,
243134,0.6968366,9.1797,-5.016625,2.050318,-0.41158798,0.182928,127.50001,-150.90001,-20.7,,,,,,
243233,0.21174261,8.78672,-4.0434465,0.015244,-0.091464,-0.80030996,146.70001,-150.90001,-21.900002,,,,,,
243254,0.09151588,8.740065,-3.9638934,0.007622,0.548784,-0.243904,149.1,-158.1,-15.3,,,,,,
243294,0.34213778,8.934462,-3.4734163,0.213416,0.46494198,0.358234,134.70001,-155.70001,-20.1,,,,,,
243314,0.30684733,9.174317,-3.343619,0.022866,1.021348,0.11432999,146.70001,-155.70001,-21.900002,,,,,,
243334,0.123815596,8.805263,-3.3513951,-0.17530599,1.3643379,-0.312502,141.90001,-155.70001,-14.1,,,,,,
243357,0.04426258,8.689821,-3.2826085,-0.20579399,1.173788,-0.358234,144.3,-170.1,-14.700001,,,,,,
243419,0.17585403,8.613258,-3.1139324,-0.106708,0.33536798,0.251526,125.100006,-160.5,-15.900001,,,,,,
243439,0.3074455,9.146204,-3.3735263,0.045732,0.243904,0.15244,137.1,-165.3,-21.900002,,,,,,
243459,0.4163075,9.076819,-3.267057,-0.243904,-0.388722,-0.40396598,139.5,-148.5,-12.900001,,,,,,
243479,0.5748154,8.743055,-3.06309,-0.586894,-0.442076,-0.731712,129.90001,-150.90001,-18.300001,,,,,,
243499,0.51021594,8.315384,-3.2832067,-0.655492,0.33536798,-0.83842,146.70001,-155.70001,-15.900001,,,,,,
243519,0.74648243,8.810048,-3.6283352,-0.518296,0.259148,-0.655492,132.3,-158.1,-23.1,,,,,,
243539,0.95702875,8.890797,-3.6397,-1.044214,0.3811,-1.234764,139.5,-150.90001,-11.1,,,,,,
243563,0.9133643,8.494228,-3.8125632,-1.6234859,1.25763,-1.775926,149.1,-155.70001,-17.7,,,,,,
243583,0.5473008,7.902665,-4.5010257,-1.3414719,2.507638,-2.13416,144.3,-148.5,-21.300001,,,,,,
243667,1.0993868,8.750234,-6.379793,-1.440558,1.48629,-2.2027578,151.5,-150.90001,-18.900002,x,,,,,
243727,2.1192205,7.5820603,-3.3501987,-3.993928,4.657042,-4.11588,158.70001,-146.1,-14.700001,x,,,,,
243767,1.1035738,6.3863726,-2.8250291,-4.11588,9.56561,-5.990892,163.5,-143.70001,-21.300001,x,,,,,
243791,0.3134269,5.346202,-2.635418,-3.536608,10.74702,-7.9192576,153.90001,-136.5,-18.900002,x,,,,,
243831,-1.2040617,5.347996,-2.280719,-1.3872039,10.434518,-7.461938,170.70001,-134.1,-21.300001,x,,,,,
243892,-4.237843,5.761313,-2.7030082,0.17530599,14.413201,-9.71805,187.5,-119.700005,-16.5,x,,,,,
243913,-2.765215,8.99607,-1.9583201,-1.478668,7.5457797,-5.8765616,194.70001,-126.9,-12.3,x,,,,,
243953,-4.4448004,10.152281,-2.631829,-1.3719599,14.352225,-8.811031,206.70001,-110.100006,-9.3,x,,,,,
243973,-4.966979,10.320957,-2.234662,-2.469528,8.658592,-8.186028,216.3,-119.700005,-19.5,x,,,,,
243993,-4.698413,13.061049,-1.5180869,-2.47715,8.696702,-5.914672,213.90001,-98.100006,-12.900001,x,,,,,
244013,-5.8713713,13.21238,-2.6725028,-1.8521459,7.942124,-7.4543157,216.3,-95.700005,-12.900001,x,,,,,
244033,-6.2858844,12.523319,-1.7316239,-2.2561119,4.070148,-6.265284,221.1,-102.9,-9.900001,x,,,,,
244053,-6.1578817,13.122659,-1.4415245,-1.227142,5.045764,-3.483254,221.1,-110.100006,-9.3,x,,,,,
244077,-8.582155,12.234416,-3.4734163,1.3795819,4.298808,-3.407034,213.90001,-93.3,-11.1,x,,,,,
244097,-7.8105507,13.069424,-3.9321918,0.861286,-1.6234859,0.129574,228.3,-95.700005,-7.5000005,x,,,,,
244160,-6.3534746,11.723602,-2.8686936,-0.106708,-7.0351057,6.28815,216.3,-105.3,-5.7000003,x,,,,,
244189,-4.778564,11.321052,-2.2777283,-0.640248,-10.602201,8.277492,211.50002,-114.9,-12.900001,x,,,,,
244251,-2.9626021,10.036241,-1.8793652,0.213416,-12.835447,9.268352,199.50002,-138.90001,-11.700001,x,,,,,
244271,-2.53493,9.913622,-1.4660485,0.289636,-12.72874,8.795788,201.90001,-122.100006,-14.1,x,,,,,
244291,-2.577398,9.014014,-1.5288534,0.93750596,-10.44214,7.6372437,187.5,-126.9,-19.5,x,,,,,
244311,-2.4954524,8.321963,-2.6491752,1.821658,-8.3842,7.248522,187.5,-143.70001,-21.900002,x,,,,,
244335,-1.631734,8.811842,-2.5791924,1.996964,-9.428413,7.0960817,170.70001,-138.90001,-21.900002,x,,,,,
244355,-1.1047701,8.847731,-1.9684886,1.250008,-9.763782,5.777476,173.1,-143.70001,-25.500002,x,,,,,
244375,-1.0515354,8.0934725,-1.9637034,1.41007,-7.77444,3.7347798,173.1,-141.3,-20.1,x,,,,,
244417,-1.1801361,6.2482014,-2.4464047,2.568614,-5.343022,2.7286758,161.1,-155.70001,-21.300001,x,,,,,
244437,-1.1891083,6.8511295,-2.9267135,2.385686,-5.0228977,4.4055157,149.1,-148.5,-23.7,x,,,,,
244457,-1.121518,7.3978324,-2.844768,2.378064,-5.632658,4.4969797,153.90001,-143.70001,-21.900002,x,,,,,
244477,-0.8092874,7.7585125,-2.640203,1.8826339,-5.8613176,3.7271578,158.70001,-150.90001,-22.5,x,,,,,
244497,-0.861924,7.196258,-2.6156793,1.3948259,-4.664664,2.111294,151.5,-158.1,-16.5,x,,,,,
244520,-0.9719823,5.9862146,-3.1073527,1.920744,-4.359784,2.59148,134.70001,-136.5,-17.7,x,,,,,
244540,-0.44800907,6.8014836,-3.0349774,1.6006199,-5.4421077,4.519846,158.70001,-158.1,-16.5,x,,,,,
244560,0.09869359,7.220782,-2.761626,1.3719599,-5.076252,4.108258,151.5,-160.5,-26.7,x,,,,,
244582,0.68367743,7.4534597,-2.815459,1.768304,-4.0320377,3.7347798,144.3,-158.1,-15.900001,x,,,,,
244602,1.2955776,8.153287,-2.8142626,1.501534,-3.3155699,3.2164838,151.5,-165.3,-24.300001,x,,,,,
244622,1.4493004,8.637783,-3.0684733,1.821658,-1.554888,2.088428,127.50001,-148.5,-14.1,x,,,,,
244663,1.518685,9.341797,-4.01653,2.2637339,-1.18141,-0.213416,139.5,-150.90001,-19.5,x,,,,,
244723,0.6495833,9.078016,-4.911352,2.2027578,-0.19055,-2.065562,134.70001,-150.90001,-18.900002,,,,,,
244743,0.03828115,8.522341,-5.2552843,2.560992,-0.083841994,-2.2713559,149.1,-153.3,-10.5,,,,,,
244763,-0.21054633,8.771767,-5.4018292,1.3872039,-0.7622,-1.234764,139.5,-148.5,-11.700001,,,,,,
244786,-0.33795077,9.156971,-4.8802485,0.26677,-1.722572,-1.036592,146.70001,-155.70001,-20.1,x,,,,,
244806,-0.37383935,9.134241,-4.547083,-0.327746,-1.074702,-1.44818,144.3,-150.90001,-23.7,x,,,,,
244826,-0.52516955,8.659316,-4.306629,-0.746956,-0.388722,-1.310984,146.70001,-150.90001,-19.5,x,,,,,
244850,-0.5275621,8.496023,-3.8006005,-1.089946,-0.312502,0.0,139.5,-148.5,-27.900002,x,,,,,
244911,-0.34453034,8.587539,-3.609793,-0.41158798,0.480186,-0.045732,151.5,-148.5,-18.900002,x,,,,,
244972,0.18362989,8.7089615,-3.686355,-0.396344,0.884152,-0.274392,149.1,-162.90001,-17.7,x,,,,,
245012,0.79134315,8.456545,-3.656448,-1.06708,1.036592,-0.60976,149.1,-150.90001,-20.7,x,,,,,
245172,1.3769251,8.249588,-5.593235,-3.368924,4.199722,-5.9985137,156.3,-146.1,-22.5,x,,,,,
245329,-2.1682682,6.1979575,-1.7071,-2.042696,7.743952,-6.082356,206.70001,-131.70001,-13.500001,x,,,,,
245349,-3.4488924,6.592732,-0.8463723,-2.7591639,10.830862,-7.218034,204.3,-124.50001,-17.7,x,,,,,
245389,-3.852639,10.465708,-0.8840553,-4.4207597,9.405548,-6.311016,204.3,-119.700005,-16.5,x,,,,,
245448,-6.517964,11.989776,-3.0439496,-2.2027578,9.466524,-6.8979096,211.50002,-110.100006,-9.3,x,,,,,
245470,-6.156686,13.108303,-1.9750681,-2.6905658,5.5335717,-6.036624,216.3,-98.100006,-8.700001,x,,,,,
245510,-8.027079,14.390123,-3.1970742,-1.71495,4.321674,-3.3155699,225.90001,-86.100006,-12.3,x,,,,,
245553,-9.242505,13.104116,-2.1909976,-2.416174,-3.567096,-1.48629,233.1,-110.100006,-6.3,x,,,,,
245573,-8.106631,13.705848,-2.677886,-1.6311079,-5.5030837,3.628072,218.70001,-105.3,-9.900001,x,,,,,
245593,-6.1853967,13.704054,-1.2555021,-2.599102,-8.429932,6.4786997,225.90001,-107.700005,-16.5,x,,,,,
245633,-4.6846557,11.198433,-1.4259728,-1.33385,-7.042728,8.490908,225.90001,-114.9,-20.7,x,,,,,
245673,-3.138456,10.002147,-1.418197,-0.56402797,-9.687562,8.711946,204.3,-112.50001,-17.7,x,,,,,
245693,-3.4004428,9.028968,-1.3350551,-0.20579399,-8.894874,7.690598,206.70001,-119.700005,-23.1,x,,,,,
245756,-1.5587605,8.618642,-1.079648,0.830798,-13.651002,9.085423,182.70001,-143.70001,-23.7,x,,,,,
245776,-1.1400605,8.16525,-0.9313086,1.272874,-10.1677475,7.9802337,180.3,-134.1,-24.300001,x,,,,,
245796,-0.95284176,7.7465496,-1.6789873,1.56251,-8.071698,6.6311398,168.3,-146.1,-20.1,x,,,,,
245816,-0.5987411,7.4426928,-1.6861651,2.050318,-8.399444,6.02138,165.90001,-155.70001,-20.7,x,,,,,
245840,-1.3649622,7.329644,-1.1657807,1.920744,-8.216516,5.129606,153.90001,-155.70001,-24.900002,x,,,,,
245860,-0.99291736,8.036649,-1.794429,2.644834,-7.0808377,5.076252,170.70001,-150.90001,-29.7,x,,,,,
245881,-0.3229972,8.8381605,-1.4457116,2.347576,-8.26987,4.0472817,156.3,-165.3,-29.7,x,,,,,
245901,-0.43903694,7.6209397,-1.2118376,1.8978779,-6.608274,1.6311079,153.90001,-153.3,-22.5,x,,,,,
245922,-0.5586655,6.5089917,-1.9068798,3.475632,-5.266802,3.2012398,158.70001,-148.5,-30.300001,x,,,,,
245942,0.019140575,7.4995165,-1.9589182,3.155508,-5.762232,4.4664917,153.90001,-153.3,-24.900002,x,,,,,
245965,-0.17645217,7.1759214,-1.870393,2.599102,-2.8048959,2.911604,139.5,-155.70001,-27.900002,x,,,,,
245985,-0.24164976,6.2499957,-3.1450357,3.643316,-0.853664,2.2408679,139.5,-165.3,-26.1,x,,,,,
246065,1.6227618,7.9929843,-3.3400304,2.118916,-2.545748,0.87653,122.700005,-172.5,-15.3,x,,,,,
246192,-0.31701577,8.984706,-5.1847034,1.94361,-1.730194,-1.18141,144.3,-148.5,-16.5,,,,,,
246227,-0.25899592,8.912929,-4.652954,1.272874,-2.355198,-0.617382,134.70001,-146.1,-21.300001,,,,,,
246251,-0.018542431,9.200635,-4.280311,0.53354,-0.640248,-0.47256398,151.5,-165.3,-19.5,,,,,,
246293,-0.19977975,8.908143,-3.7994041,-0.099086,0.49543,-0.213416,137.1,-153.3,-18.900002,,,,,,
246313,-0.018542431,8.987697,-3.5410063,-0.358234,0.594516,-0.137196,134.70001,-150.90001,-16.5,,,,,,
246333,0.018542431,8.879433,-3.222196,-0.70122397,1.074702,-0.40396598,149.1,-160.5,-21.900002,,,,,,
246353,-0.1309933,8.465517,-3.4728181,-0.510674,2.408552,-0.785066,122.700005,-146.1,-19.5,,,,,,
246376,-0.1752559,8.327347,-3.8000023,-0.144818,1.745438,-0.68597996,141.90001,-155.70001,-17.1,,,,,,
246396,0.01016843,8.456545,-3.4776032,-0.030488,0.746956,-0.442076,144.3,-162.90001,-21.300001,x,,,,,
246420,0.16090046,8.721522,-3.6420925,-0.26677,1.204276,-0.640248,137.1,-150.90001,-20.1,x,,,,,
246460,0.55328226,8.536696,-3.4835846,-0.746956,0.632626,-0.861286,139.5,-153.3,-20.1,x,,,,,
246480,0.6794904,8.325552,-3.5493803,-1.310984,1.6082419,-1.02897,134.70001,-148.5,-24.300001,x,,,,,
246500,0.5580674,8.028873,-3.874172,-1.554888,2.660078,-1.173788,132.3,-150.90001,-17.1,x,,,,,
246520,0.23507018,8.338711,-4.5710087,-1.310984,3.856732,-0.663114,141.90001,-170.1,-22.5,x,,,,,
246580,0.54072124,9.028968,-5.359361,-1.75306,3.6585598,-0.47256398,144.3,-158.1,-18.900002,x,,,,,
246603,0.715379,9.511669,-5.8474455,-1.250008,5.343022,-1.189032,132.3,-148.5,-17.1,x,,,,,
246683,0.58259124,8.030069,-4.8174434,-3.96344,6.0976,-4.710396,137.1,-150.90001,-20.1,x,,,,,
246728,0.0891233,5.5669165,-2.8926194,-5.312534,7.027484,-5.236314,153.90001,-146.1,-20.7,x,,,,,
246773,-1.1699677,4.681665,-2.560052,-3.993928,10.449761,-6.0137577,156.3,-136.5,-20.1,x,,,,,
246793,-1.9086742,5.0052605,-2.3734312,-3.140264,9.733294,-5.9985137,189.90001,-143.70001,-18.900002,x,,,,,
246835,-1.5467978,7.220782,-1.0467502,-2.812518,8.262248,-6.737848,182.70001,-134.1,-15.3,x,,,,,
246855,-2.6952322,6.3157916,-1.5725179,-1.02897,11.730258,-7.77444,189.90001,-143.70001,-18.300001,x,,,,,
246875,-2.1515203,8.015714,-2.0629952,-0.480186,9.664696,-5.289668,189.90001,-138.90001,-12.900001,x,,,,,
246899,-2.77,10.051194,0.19260204,-2.6829438,9.9086,-7.339986,180.3,-126.9,-14.1,x,,,,,
246941,-4.350892,11.542963,-2.5116024,-0.92988396,8.818654,-6.5549197,204.3,-114.9,-14.1,x,,,,,
246961,-4.3706307,10.819808,-1.0006932,-1.29574,5.388754,-7.103704,197.1,-122.100006,-18.300001,x,,,,,
246985,-5.162572,12.160845,-1.3691492,-0.083841994,6.9436417,-5.175338,201.90001,-119.700005,-12.3,x,,,,,
247005,-5.682956,13.379262,-2.3321595,-0.594516,5.777476,-4.679908,225.90001,-114.9,-12.3,x,,,,,
247029,-5.8492403,13.545546,-1.7274369,-1.021348,1.707328,-3.894842,209.1,-110.100006,-12.900001,x,,,,,
247049,-6.5089917,13.802149,-1.9170482,-0.68597996,0.891774,-2.62959,206.70001,-117.3,-11.1,x,,,,,
247073,-6.647761,13.113687,-2.2585878,-0.525918,-1.265252,-0.46494198,213.90001,-110.100006,-12.900001,x,,,,,
247093,-6.1853967,13.184866,-1.7370071,-0.388722,-3.7195358,2.309466,221.1,-110.100006,-12.900001,x,,,,,
247155,-4.4465947,12.144096,-1.6801836,-0.23628199,-8.132674,7.3171196,213.90001,-114.9,-10.5,x,,,,,
247190,-3.2700477,11.08359,-1.744783,0.015244,-8.468041,8.414688,197.1,-126.9,-15.900001,x,,,,,
247210,-3.6074002,9.562511,-2.2980652,0.72409,-8.544262,8.064075,185.1,-129.3,-21.300001,x,,,,,
247251,-1.912263,9.45664,-2.037873,0.80030996,-10.762263,8.673836,192.3,-134.1,-14.700001,x,,,,,
247271,-1.79084,8.694606,-2.1467352,0.80793196,-9.60372,7.9649897,177.90001,-136.5,-20.1,x,,,,,
247291,-1.5665364,8.113212,-2.5367243,0.87653,-9.024447,7.416206,173.1,-146.1,-26.1,x,,,,,
247315,-0.94087887,7.5443773,-2.8130665,1.204276,-8.696702,6.875044,168.3,-143.70001,-29.1,x,,,,,
247335,-0.50602895,7.919413,-2.694036,1.471046,-9.253108,6.4634557,151.5,-148.5,-17.7,x,,,,,
247357,-0.2506219,7.5581346,-2.4296567,1.75306,-9.268352,5.045764,141.90001,-143.70001,-20.7,x,,,,,
247377,0.23626648,7.3200736,-2.2185123,1.806414,-8.46042,4.618932,137.1,-160.5,-23.1,x,,,,,
247397,0.42228892,7.204034,-1.8045974,1.204276,-7.4390717,4.314052,141.90001,-155.70001,-19.5,x,,,,,
247417,0.18482618,6.8756533,-1.8859448,1.25763,-5.495462,3.986306,134.70001,-155.70001,-26.1,x,,,,,
247482,0.34333408,7.0180116,-2.677886,2.2103798,-4.131124,1.577754,141.90001,-150.90001,-18.300001,x,,,,,
247502,0.46834594,6.791315,-2.652166,2.050318,-4.199722,1.3948259,132.3,-148.5,-24.900002,x,,,,,
247524,0.9994969,7.308709,-2.761028,1.798792,-3.414656,2.126538,122.700005,-155.70001,-24.300001,x,,,,,
247544,0.7620341,7.1567807,-2.761028,1.478668,-2.408552,1.75306,134.70001,-162.90001,-22.5,x,,,,,
247564,0.9564306,7.4241505,-3.071464,1.56251,-1.94361,1.951232,117.9,-170.1,-24.900002,x,,,,,
247587,1.3230922,8.264542,-3.0882123,1.3643379,-1.730194,1.928366,117.9,-162.90001,-21.900002,x,,,,,
247608,1.3254849,8.46791,-3.3394322,1.3414719,-0.853664,1.1128119,110.700005,-162.90001,-25.500002,x,,,,,
247628,1.0383762,8.579762,-3.7449732,1.8597679,-0.03811,0.846042,120.3,-158.1,-26.1,x,,,,,
247649,0.8876442,9.216785,-4.3263683,2.2408679,0.289636,0.82317597,125.100006,-162.90001,-29.1,x,,,,,
247670,0.5849838,9.740758,-4.6876464,2.431418,0.03811,0.15244,120.3,-158.1,-18.300001,x,,,,,
247690,-0.05024401,9.2484865,-4.74447,2.111294,-0.640248,-1.051836,122.700005,-158.1,-19.5,x,,,,,
247710,-0.092712164,9.234131,-4.7749753,2.6829438,-2.32471,-1.059458,115.50001,-153.3,-23.7,,,,,,
247730,-0.24942562,9.058277,-4.1050553,2.195136,-3.2393498,-0.960372,122.700005,-158.1,-18.300001,,,,,,
247753,-0.50842154,9.421948,-4.4794927,1.013726,-0.442076,-0.47256398,129.90001,-155.70001,-17.7,,,,,,
247773,-0.32419348,9.2484865,-4.811462,0.449698,-0.274392,-0.47256398,110.700005,-143.70001,-23.1,,,,,,
247793,-0.16448931,9.309497,-4.1600842,-0.41921,-0.967994,-0.251526,139.5,-158.1,-17.1,,,,,,
