time,sensor_accX,sensor_accY,sensor_accZ,sensor_gyroX,sensor_gyroY,sensor_gyroZ,sensor_magX,sensor_magY,sensor_magZ,label_Boxing_slip_left,label_Boxing_slip_right,label_Boxing_pullback,label_Boxing_roll_left,label_Boxing_roll_right,label_Boxing_recording_cut
1047732,3.9232197,7.769279,-2.217914,0.57164997,-0.891774,-2.903982,65.100006,-177.3,-20.1,,,,,,
1047905,3.7204492,8.176016,-2.1527166,0.49543,-1.189032,-1.051836,67.5,-174.90001,-27.900002,,,,,,
1047926,3.6600368,8.019302,-2.238251,0.28201398,-1.074702,-0.868908,65.100006,-167.70001,-24.900002,,,,,,
1047966,4.523755,10.807247,-2.9721725,0.3811,-1.227142,-0.22865999,62.7,-172.5,-20.7,,,,,,
1047986,3.9943988,9.883715,-2.5534723,-0.655492,-2.2103798,-2.538126,72.3,-165.3,-26.1,,,,,,
1048006,3.242533,8.048014,-2.008564,0.30488,-2.6905658,-3.7881339,62.7,-174.90001,-19.5,,,,,,
1048026,3.3795078,8.768776,-1.9523387,-0.015244,-2.469528,-2.164648,60.300003,-167.70001,-21.300001,,,,,,
1048046,2.7717946,8.475088,-1.6472857,-0.739334,-1.8750119,-2.545748,69.9,-174.90001,-25.500002,,,,,,
1048069,2.318402,9.213795,-1.8691968,-0.541162,-1.1432999,-1.707328,79.5,-182.1,-28.500002,,,,,,
1048089,1.6269488,9.28258,-1.8608228,-0.716468,-0.60976,-1.8978779,79.5,-167.70001,-26.7,,,,,,
1048109,1.234567,9.866368,-2.1939883,-0.28201398,-0.884152,-1.539644,91.5,-172.5,-20.7,,,,,,
1048131,0.88226086,9.460828,-1.915852,-0.56402797,-0.93750596,-1.958854,93.9,-165.3,-23.7,,,,,,
1048151,-0.055029154,9.826891,-2.1012762,0.221038,0.23628199,-1.6158639,96.3,-170.1,-26.7,,,,,,
1048171,-0.47731808,10.632589,-2.9350874,0.47256398,1.288118,-1.3948259,79.5,-174.90001,-22.5,,,,,,
1048191,-1.0431614,10.106224,-3.0882123,0.426832,0.602138,-2.2408679,81.9,-158.1,-24.300001,,,,,,
1048212,-1.4869834,9.867564,-3.0307903,0.91463995,-0.388722,-2.01983,77.100006,-158.1,-19.5,,,,,,
1048232,-1.6562579,10.6200285,-2.994902,0.53354,-0.434454,-1.425314,86.700005,-165.3,-20.1,,,,,,
1048252,-1.9924142,10.146897,-3.099577,0.365856,0.69360197,-2.888738,103.50001,-172.5,-25.500002,,,,,,
1048272,-2.5522761,9.168934,-3.6295316,1.432936,1.059458,-3.864354,86.700005,-162.90001,-18.900002,,,,,,
1048313,-2.1246037,9.310694,-3.9812396,1.806414,-1.928366,-1.204276,81.9,-165.3,-18.300001,,,,,,
1048355,-1.9481517,8.953602,-3.744375,2.088428,-0.83842,-0.16768399,101.100006,-158.1,-14.1,,,,,,
1048504,-0.06878644,8.100052,-2.77,-0.731712,0.34298998,-0.289636,103.50001,-174.90001,-23.1,,,,,,
1048525,0.2254999,8.691017,-2.622259,-0.72409,0.510674,0.007622,98.700005,-162.90001,-19.5,,,,,,
1048565,0.46176636,8.634792,-2.9590132,-0.33536798,2.195136,-1.250008,115.50001,-174.90001,-17.1,,,,,,
1048585,0.88226086,8.76399,-3.078642,0.16768399,2.2180018,-1.02897,93.9,-177.3,-19.5,,,,,,
1048605,1.0204319,8.908143,-3.075053,-0.243904,2.347576,-1.532022,98.700005,-165.3,-26.7,,,,,,
1048626,1.1239107,8.865675,-3.192887,0.121952,3.1783738,-1.814036,103.50001,-179.70001,-15.3,,,,,,
1048646,2.0091622,10.178,-3.8077781,0.45731997,3.3003259,-0.60976,105.9,-162.90001,-15.900001,,,,,,
1048666,2.3746276,10.228843,-3.794619,-0.182928,2.2561119,-2.073184,108.3,-170.1,-21.900002,,,,,,
1048688,2.0761542,9.033155,-3.7850487,0.625004,1.684462,-2.6905658,103.50001,-167.70001,-21.300001,,,,,,
1048771,3.0529218,9.0433235,-3.338834,-0.41158798,0.7622,-1.8369019,113.100006,-143.70001,-18.300001,,,,,,
1048858,2.1150336,8.1796055,-2.5654352,-1.166166,0.503052,-1.56251,117.9,-165.3,-18.900002,,,,,,
1048921,1.5551717,9.131848,-2.339337,-1.3490939,-0.137196,-0.17530599,117.9,-158.1,-24.300001,,,,,,
1049042,-1.1155367,8.908143,-2.7478688,-0.67835796,-2.042696,-0.11432999,115.50001,-170.1,-18.300001,,,,,,
1049062,-1.7148759,9.250281,-2.5086117,-0.388722,-0.792688,1.478668,125.100006,-162.90001,-18.900002,,,,,,
1049105,-1.7005205,9.060072,-3.166569,-0.07622,-0.289636,-0.358234,105.9,-155.70001,-20.1,,,,,,
1049125,-1.7956252,8.554043,-3.0846233,0.449698,-0.785066,0.083841994,120.3,-165.3,-16.5,,,,,,
1049168,-1.4774132,8.947022,-3.1193156,0.640248,-1.6234859,0.434454,110.700005,-155.70001,-20.1,,,,,,
1049188,-0.95523435,8.203531,-2.8316088,0.7622,-1.8902559,0.487808,113.100006,-165.3,-20.1,,,,,,
1049208,-0.30684733,8.972144,-2.8513474,0.548784,-2.073184,1.310984,115.50001,-165.3,-13.500001,,,,,,
1049228,0.29548264,9.567895,-2.3513,-0.480186,-1.1051899,0.87653,110.700005,-162.90001,-20.7,,,,,,
1049250,0.30983806,8.842946,-2.6144829,-0.289636,1.18141,-0.320124,103.50001,-170.1,-20.7,,,,,,
1049270,0.37922263,8.241812,-3.0600994,0.17530599,1.3948259,-0.091464,103.50001,-160.5,-27.300001,,,,,,
1049290,0.90798104,9.371704,-2.874077,0.23628199,0.015244,0.998482,101.100006,-172.5,-16.5,,,,,,
1049310,2.3859923,11.426325,-2.7670095,-0.525918,0.792688,0.55640596,103.50001,-170.1,-18.900002,,,,,,
1049371,0.5090197,8.647951,-4.150514,0.70122397,0.0,-0.7622,105.9,-170.1,-14.700001,,,,,,
1049400,0.5305528,9.121082,-3.368143,0.11432999,-1.204276,-0.3811,115.50001,-160.5,-20.7,,,,,,
1049420,0.5568711,9.349573,-3.4118075,-0.40396598,-0.26677,-0.69360197,120.3,-160.5,-20.7,,,,,,
1049461,0.5263658,8.689821,-3.155204,-1.6539739,0.327746,-0.34298998,105.9,-174.90001,-12.900001,,,,,,
1049481,0.53115094,8.705373,-3.0517254,-1.425314,0.594516,0.053354,113.100006,-158.1,-23.1,,,,,,
1049501,0.4007558,8.609072,-3.1103435,-0.830798,0.632626,0.198172,110.700005,-162.90001,-18.900002,,,,,,
1049523,0.4827014,8.980518,-3.091801,-0.49543,0.03811,0.57164997,101.100006,-165.3,-15.3,,,,,,
1049588,0.61429286,9.10254,-3.4088168,0.182928,0.182928,0.40396598,125.100006,-162.90001,-11.700001,,,,,,
1049608,0.5724228,9.136036,-3.4207797,0.221038,-0.11432999,0.46494198,91.5,-158.1,-19.5,,,,,,
1049628,0.59694666,9.074427,-3.3609653,-0.099086,-0.34298998,0.243904,120.3,-165.3,-21.300001,,,,,,
1049648,0.5873764,9.106727,-3.2144203,-0.396344,-0.251526,0.243904,113.100006,-162.90001,-12.3,,,,,,
1049668,0.5957504,9.33761,-3.2215981,-0.70122397,-0.053354,0.030488,103.50001,-167.70001,-23.7,,,,,,
1049688,0.573021,8.966163,-3.0870159,-0.94512796,0.099086,-0.35061198,103.50001,-170.1,-11.1,,,,,,
1049710,0.5329454,8.915321,-2.9003952,-0.87653,0.3811,-0.068598,120.3,-160.5,-19.5,,,,,,
1049730,0.6310408,9.180298,-2.886638,-0.739334,0.57164997,-0.022866,108.3,-158.1,-22.5,,,,,,
1049770,0.55208594,8.92848,-2.9141526,-0.503052,0.60976,0.28201398,108.3,-158.1,-24.900002,,,,,,
1049790,0.61070395,8.881825,-2.866301,-0.49543,0.480186,0.365856,105.9,-174.90001,-26.1,,,,,,
1049810,0.75904346,8.9464245,-2.8645067,-0.449698,0.49543,0.434454,113.100006,-170.1,-14.700001,,,,,,
1049833,0.8906349,9.0540905,-2.9231248,-0.449698,0.510674,0.30488,110.700005,-170.1,-18.300001,,,,,,
1049873,0.9983006,8.93805,-2.8471606,-0.487808,0.87653,0.015244,110.700005,-155.70001,-20.7,,,,,,
1049893,1.0030857,8.966762,-2.9931073,-0.320124,1.082324,-0.007622,113.100006,-174.90001,-16.5,,,,,,
1049913,1.0467502,8.905152,-2.8555346,-0.388722,0.94512796,-0.106708,120.3,-165.3,-27.300001,,,,,,
1049934,1.0904146,9.0188,-2.8357959,-0.388722,1.02897,-0.068598,108.3,-170.1,-15.3,,,,,,
1049975,0.9731786,9.272412,-2.789739,-0.617382,1.3414719,-0.41158798,103.50001,-167.70001,-20.1,,,,,,
1050005,0.6208724,8.798085,-2.7323172,-0.67835796,1.8445239,-0.7622,113.100006,-162.90001,-20.1,,,,,,
1050025,0.5072252,9.278394,-2.9255173,-0.22865999,1.493912,-0.160062,103.50001,-172.5,-21.300001,,,,,,
1050065,0.1573116,9.932762,-2.5983331,-0.426832,0.99086,0.373478,105.9,-162.90001,-21.900002,,,,,x,
1050105,-0.36965236,9.420752,-2.3800108,-0.67073596,-0.274392,1.310984,105.9,-165.3,-21.300001,,,,,x,
1050145,-0.4007558,8.862086,-1.1418549,-1.303362,-3.361302,2.7972739,110.700005,-170.1,-23.1,,,,,x,
1050182,-0.4216908,7.64666,0.66214424,-1.5929979,-5.67839,2.2789779,101.100006,-170.1,-19.5,,,,,x,
1050202,-0.794932,6.869672,1.1556122,-0.46494198,-7.073216,2.09605,98.700005,-165.3,-20.1,,,,,x,
1050248,-0.3074455,5.480186,0.5658432,1.211898,-11.821722,2.522882,96.3,-167.70001,-27.300001,,,,,x,
1050288,0.69982725,3.1318767,1.493563,0.731712,-18.361397,3.46801,89.100006,-167.70001,-23.7,,,,,x,
1050360,3.2981603,3.731814,-0.14295617,-0.182928,-10.030552,-0.19055,79.5,-172.5,-22.5,,,,,x,
1050380,2.9261155,3.5661285,-1.790242,0.23628199,-2.118916,-2.93447,81.9,-165.3,-27.300001,,,,,x,
1050420,3.317301,4.4699225,-7.497124,6.768336,5.358266,1.318606,89.100006,-172.5,-20.7,,,,,x,
1050483,2.5373225,6.4784865,-7.887113,3.35368,1.280496,-8.91774,93.9,-158.1,-18.900002,,,,,x,
1050784,-5.772678,13.716615,-6.59333,-3.7957559,6.951264,-6.814068,170.70001,-126.9,-17.1,,,,,x,
1050805,-5.182909,14.961948,-6.345699,-1.3719599,9.67994,-2.812518,158.70001,-124.50001,-16.5,,,,,x,
1050846,-5.980233,14.482238,-5.720639,-1.41007,7.1418138,-4.5427117,168.3,-138.90001,-14.700001,,,,,x,
1050962,-5.451475,11.766668,-1.7711014,-5.091496,-2.179892,4.939056,161.1,-141.3,-11.700001,,,,,x,
1050982,-5.1805162,11.945514,-1.2513151,-4.76375,-1.692084,5.4878397,153.90001,-160.5,-8.700001,,,,,x,
1051025,-3.999184,9.350171,-1.9182445,-3.2698379,-1.71495,6.13571,141.90001,-150.90001,-17.1,,,,,x,
1051045,-3.898696,9.038538,-1.1119478,-4.72564,-3.6661818,6.9893737,151.5,-146.1,-17.1,,,,,x,
1051065,-2.9590132,8.604286,-1.4660485,-4.352162,-2.850628,7.118948,129.90001,-158.1,-15.3,,,,,x,
1051085,-2.329767,7.4397025,-1.3954675,-4.336918,-5.762232,6.311016,120.3,-150.90001,-19.5,,,,,x,
1051145,0.073571585,5.487364,0.5299547,-4.375028,-7.835416,4.184478,117.9,-167.70001,-20.1,,,,,x,
1051169,-0.23207948,2.5923517,-0.016748004,-0.93750596,-5.777476,1.006104,98.700005,-167.70001,-18.300001,,,,,x,
1051189,0.79553014,2.4840877,-1.0347873,1.570132,-7.50767,4.9009457,98.700005,-165.3,-15.900001,,,,,x,
1051209,1.2614836,4.355677,0.08314187,0.045732,-10.21348,7.16468,110.700005,-172.5,-24.900002,,,,,x,
1051232,1.3422328,3.8275168,-0.5610581,0.82317597,-6.082356,4.108258,91.5,-167.70001,-16.5,,,,,x,
1051252,1.8189528,3.5027251,-1.0018895,1.425314,-7.461938,4.314052,98.700005,-160.5,-21.300001,,,,,x,
1051292,3.3603673,4.618262,-0.03828115,0.320124,-7.538158,4.580822,81.9,-186.90001,-27.300001,,,,,x,
1051502,2.7496634,8.662905,-4.2276745,1.432936,0.060976,-2.05794,60.300003,-174.90001,-23.7,,,,,,
1051523,2.39317,8.807655,-3.4829865,0.23628199,-1.547266,-0.846042,74.700005,-184.5,-16.5,,,,,,
1051565,2.2238955,8.841749,-3.2814124,-0.022866,0.487808,-0.60976,79.5,-172.5,-17.7,,,,,,
1051585,2.0606024,8.807655,-3.0146406,-0.22865999,0.045732,-0.67835796,74.700005,-165.3,-24.900002,,,,,,
1051607,2.0827339,8.871656,-2.677886,-0.487808,0.243904,-0.67073596,72.3,-160.5,-22.5,,,,,,
1051627,2.0235176,9.158765,-2.6294365,-0.297258,1.539644,-0.82317597,74.700005,-172.5,-21.300001,,,,,,
1051647,1.8500562,8.890199,-2.8585253,-0.213416,2.416174,-1.493912,77.100006,-186.90001,-23.1,,,,,,
1051667,1.5258627,8.61924,-2.899199,0.20579399,2.027452,-1.3795819,77.100006,-179.70001,-16.5,,,,,,
1051687,1.5964435,8.934462,-2.6970267,0.274392,1.737816,-0.70122397,81.9,-165.3,-17.7,,,,,,
1051710,1.2949796,9.03794,-2.4380307,0.11432999,2.012208,-1.3795819,79.5,-167.70001,-21.900002,,,,,,
1051730,1.5031333,9.318469,-2.5319393,0.15244,2.187514,-0.7622,81.9,-182.1,-21.300001,,,,,,
1051750,1.3266811,9.232337,-2.385394,-0.442076,2.035074,-1.265252,84.3,-177.3,-21.300001,,,,,,
1051793,1.0503391,9.354358,-2.5157893,0.20579399,1.9131219,-0.594516,79.5,-170.1,-15.3,,,,,x,
1051815,0.9139625,9.693505,-2.2203066,-0.640248,0.983238,-0.67835796,84.3,-162.90001,-17.1,,,,,x,
1051835,0.719566,9.591821,-2.3040466,-0.449698,0.72409,-0.967994,84.3,-172.5,-21.300001,,,,,x,
1051855,0.73571587,9.268226,-2.4828916,-0.045732,-0.769822,-0.525918,84.3,-167.70001,-20.1,,,,,x,
1051939,0.95463616,8.19755,-0.9654028,-1.280496,-6.9131536,1.8521459,81.9,-162.90001,-22.5,,,,,x,
1051985,0.95044917,7.1813045,0.39297992,-3.003068,-8.498529,1.3490939,77.100006,-174.90001,-20.7,,,,,x,
1052026,0.49167353,4.230665,-0.49645868,-1.242386,-11.372024,-0.259148,91.5,-167.70001,-22.5,,,,,x,
1052046,1.4026452,4.572803,0.42527965,-0.907018,-15.297354,1.1280559,91.5,-165.3,-24.300001,,,,,x,
1052069,2.53493,4.5339236,0.5544785,-0.731712,-14.06259,-0.289636,77.100006,-170.1,-26.7,,,,,x,
1052089,2.4834895,3.7258325,-0.10766573,-0.7622,-12.53819,-1.227142,86.700005,-167.70001,-25.500002,,,,,x,
1052109,2.414105,3.4560702,-0.8439797,0.022866,-11.821722,-1.94361,96.3,-179.70001,-23.7,,,,,x,
1052129,2.4781063,2.815459,-1.3063443,0.998482,-10.914703,-2.614346,77.100006,-177.3,-21.900002,,,,,x,
1052150,2.8411791,4.091896,-1.7776809,1.25763,-9.801891,-1.5929979,84.3,-165.3,-23.7,,,,,x,
1052170,3.0182295,5.3659406,-2.1981754,0.983238,-7.3476076,-2.385686,77.100006,-165.3,-23.7,,,,,x,
1052191,2.2388492,5.6135716,-2.8483567,0.518296,-3.567096,-4.085392,86.700005,-177.3,-27.900002,,,,,x,
1052211,1.4839927,6.2984457,-4.083522,0.884152,-0.160062,-4.710396,98.700005,-170.1,-25.500002,,,,,x,
1052231,1.2435392,6.340914,-4.6756835,-0.41158798,-1.463424,-5.67839,110.700005,-162.90001,-20.1,,,,,x,
1052251,0.96899164,6.501216,-4.375416,-0.358234,-1.806414,-5.769854,103.50001,-162.90001,-28.500002,,,,,x,
1052272,0.5455064,7.706474,-4.3120127,1.166166,1.509156,-5.5793037,108.3,-162.90001,-26.7,,,,,x,
1052292,0.58378756,9.665991,-5.4329324,2.62959,7.66011,-4.740884,110.700005,-172.5,-24.300001,,,,,x,
1052375,1.2614836,14.463696,-8.938648,0.47256398,12.827826,-3.35368,127.50001,-153.3,-20.1,,,,,x,
1052464,-0.36127836,14.8423195,-7.9989657,-0.907018,13.818686,-3.414656,132.3,-160.5,-15.900001,,,,,x,
1052484,-0.70939755,14.174792,-8.708364,0.33536798,14.618996,-6.36437,139.5,-153.3,-12.900001,,,,,x,
1052524,-1.8034011,14.124548,-8.073135,-1.5244,11.623549,-3.62045,156.3,-148.5,-12.900001,,,,,x,
1052544,-1.6963334,15.146176,-6.9677672,-2.446662,10.525982,-5.64028,158.70001,-150.90001,-13.500001,,,,,x,
1052568,-3.5212677,12.891775,-6.2099204,-1.051836,12.027515,-7.789684,161.1,-148.5,-13.500001,,,,,x,
1052588,-3.5906522,13.530592,-6.8080635,-0.015244,14.961986,-3.445144,156.3,-148.5,-16.5,,,,,x,
1052608,-3.2766273,14.232214,-6.803278,-1.455802,12.134224,-3.041178,156.3,-136.5,-14.700001,,,,,x,
1052629,-4.229469,13.660389,-5.8498383,-1.692084,8.734812,-3.109776,156.3,-122.100006,-18.300001,,,,,x,
1052651,-4.7887325,13.873926,-5.175731,-2.43904,9.550365,-1.935988,158.70001,-136.5,-8.700001,,,,,x,
1052671,-4.4657354,12.94501,-5.146422,-1.29574,10.449761,-1.3872039,153.90001,-136.5,-8.700001,,,,,x,
1052691,-5.2176013,13.326027,-4.5955324,-2.545748,8.544262,1.250008,153.90001,-129.3,-8.700001,,,,,x,
1052711,-5.3282576,13.553322,-4.5925417,-2.47715,9.550365,1.8597679,153.90001,-136.5,-9.3,,,,,x,
1052731,-5.0345693,13.235109,-5.1494126,-1.3490939,8.666214,1.509156,151.5,-155.70001,-8.1,,,,,x,
1052754,-4.9801383,12.774539,-4.5859623,-3.323192,1.25763,2.179892,149.1,-141.3,-8.1,,,,,x,
1052777,-4.4017344,12.947403,-3.4925568,-4.5884438,-2.065562,3.910086,158.70001,-150.90001,-8.700001,,,,,x,
1052797,-4.230665,12.497001,-2.3291688,-5.762232,-3.879598,3.064044,137.1,-141.3,-20.1,,,,,x,
1052817,-4.138551,10.496811,-1.7926345,-5.198204,-3.4299,1.21952,141.90001,-150.90001,-20.7,,,,,x,
1052837,-3.6696072,8.159866,-1.1980804,-4.5579557,-6.112844,1.4024479,139.5,-146.1,-15.3,,,,,x,
1052857,-3.0421553,7.0425353,0.3367545,-5.29729,-8.376577,4.275942,137.1,-162.90001,-13.500001,,,,,x,
1052877,-2.0217233,7.5072923,0.9863378,-3.96344,-4.5579557,6.0899777,134.70001,-155.70001,-20.1,,,,,x,
1052937,-0.24344419,5.0309806,-0.23148133,-2.2713559,-9.497012,4.740884,110.700005,-153.3,-16.5,,,,,x,
1052957,0.76083785,5.0567007,0.58558196,-2.7591639,-9.5275,5.929916,122.700005,-160.5,-14.1,,,,,x,
1052977,0.8559426,4.2815075,0.22191104,-2.62959,-6.8369336,5.198204,113.100006,-162.90001,-11.1,,,,,x,
1052997,1.5677327,3.8669944,-0.5514878,-1.013726,-6.74547,5.7165,108.3,-177.3,-24.300001,,,,,x,
1053081,2.924321,4.7271237,-0.8056986,0.72409,-5.625036,4.4512477,91.5,-162.90001,-22.5,,,,,x,
1053120,3.3394322,5.8719697,-1.1364716,0.891774,-4.298808,3.330814,93.9,-177.3,-20.1,,,,,x,
1053142,4.0105486,6.4856644,-1.5707234,1.3719599,-2.13416,2.6905658,84.3,-160.5,-25.500002,,,,,x,
1053224,3.4321444,8.740664,-3.4321444,-0.442076,-0.373478,1.3948259,77.100006,-167.70001,-23.1,,,,,,
1053264,3.0044723,8.764589,-3.3077307,-0.91463995,0.068598,-0.053354,79.5,-174.90001,-20.7,,,,,,
1053326,2.7676075,9.508678,-2.5032284,-0.579272,-0.160062,0.144818,79.5,-172.5,-23.1,,,,,,
1053366,2.2735415,8.687428,-2.6653252,0.022866,1.493912,-1.79117,72.3,-170.1,-21.900002,,,,,,
1053387,1.9415721,8.616848,-2.4870784,0.33536798,1.585376,-1.6006199,74.700005,-182.1,-22.5,,,,,,
1053427,1.2429411,8.879433,-2.6168754,0.091464,1.6082419,-1.250008,74.700005,-170.1,-16.5,,,,,,
1053470,1.3518031,9.515857,-2.648577,0.213416,1.5929979,-1.303362,84.3,-172.5,-21.900002,,,,,x,
1053490,1.1346772,9.156971,-2.6360161,-0.129574,1.150922,-1.570132,84.3,-174.90001,-17.1,,,,,x,
1053510,1.0168431,9.139625,-2.3351502,-0.41158798,0.487808,-1.234764,86.700005,-170.1,-23.1,,,,,x,
1053551,0.748875,10.540476,-1.7591385,-1.211898,0.60976,-1.44818,86.700005,-170.1,-20.7,,,,,x,
1053571,0.14235802,10.127159,-1.5659384,-1.570132,-0.015244,-2.416174,74.700005,-158.1,-27.900002,,,,,x,
1053591,-0.44442022,8.77715,-1.0772555,-1.532022,-2.065562,-2.660078,81.9,-174.90001,-17.7,,,,,x,
1053611,-0.75605273,7.8883095,-0.11424531,-1.425314,-4.146368,-1.3795819,98.700005,-167.70001,-21.300001,,,,,x,
1053651,-1.0365818,7.003058,0.42647594,-0.80030996,-5.7165,0.41921,81.9,-177.3,-16.5,,,,,x,
1053711,0.21951847,6.42585,0.36307278,0.95274997,-14.054968,0.960372,89.100006,-174.90001,-19.5,,,,,x,
1053731,0.5024401,4.9430537,0.8433816,0.594516,-15.823272,0.434454,86.700005,-174.90001,-23.7,,,,,x,
1053751,1.464254,4.4256597,0.94327146,1.166166,-16.227238,1.821658,101.100006,-174.90001,-21.300001,,,,,x,
1053795,1.661043,3.23057,0.9378882,-0.30488,-12.957399,0.70122397,96.3,-160.5,-20.7,,,,,x,
1053815,2.121613,3.5942411,-0.4815051,1.8521459,-10.983302,1.1432999,98.700005,-182.1,-26.1,,,,,x,
1053835,2.9183395,6.450972,-0.94327146,1.8902559,-11.01379,2.370442,79.5,-165.3,-26.7,,,,,x,
1053855,1.995405,6.266744,-2.0779486,0.22865999,-5.464974,-2.065562,96.3,-177.3,-28.500002,,,,,x,
1053920,2.4081235,11.214582,-6.2194905,3.2622159,2.7896519,0.045732,93.9,-165.3,-22.5,,,,,x,
1053960,0.20576118,6.3893633,-6.343306,2.568614,-1.8521459,-7.2409,105.9,-160.5,-20.1,,,,,x,
1053980,0.7267437,8.26514,-5.8958955,2.012208,1.280496,-2.179892,110.700005,-160.5,-22.5,,,,,x,
1054023,1.2202116,11.626703,-8.393142,4.83997,6.562542,-4.4969797,110.700005,-172.5,-20.7,,,,,x,
1054046,0.3146232,10.049998,-8.350076,2.652456,3.635694,-6.25004,103.50001,-158.1,-20.7,,,,,x,
1054066,0.18721876,9.760497,-8.27471,2.987824,5.5640597,-5.29729,122.700005,-158.1,-21.900002,,,,,x,
1054086,1.7166703,11.939532,-9.027772,3.46801,7.477182,-1.806414,122.700005,-160.5,-17.1,,,,,x,
1054146,0.8571389,10.51296,-7.866178,-2.065562,4.504602,-6.311016,117.9,-153.3,-14.700001,,,,,x,
1054261,-0.9438696,12.531693,-6.538899,-2.62959,9.900978,-4.634176,127.50001,-150.90001,-14.700001,,,,,x,
1054281,-1.2788297,11.798968,-6.5957227,-2.05794,13.445208,-5.663146,139.5,-150.90001,-10.5,,,,,x,
1054322,-1.7836623,14.554015,-7.5533495,-2.012208,11.936051,-2.827762,132.3,-150.90001,-12.3,,,,,x,
1054365,-3.9949968,13.324233,-6.8433537,-1.5244,14.740948,-4.30643,158.70001,-150.90001,-3.3000002,,,,,x,
1054385,-3.6905422,13.980395,-7.8243084,-1.44818,11.631172,-1.577754,132.3,-146.1,-11.1,,,,,x,
1054406,-3.857424,14.3560295,-6.622639,-4.679908,6.112844,-1.06708,139.5,-150.90001,-14.1,,,,,x,
1054448,-4.0177264,12.490421,-6.6363964,-2.89636,6.699738,2.507638,149.1,-146.1,-5.1000004,,,,,x,
1054490,-3.2640662,11.677546,-3.8837423,-5.52595,-1.8902559,2.583858,137.1,-153.3,-10.5,,,,,x,
1054560,-2.455975,6.588545,-2.121613,-4.253076,-4.80186,2.660078,134.70001,-162.90001,-14.700001,,,,,x,
1054603,-1.2878019,6.0920863,0.10467502,-4.718018,0.92226195,1.798792,122.700005,-162.90001,-16.5,,,,,x,
1054682,0.5030382,4.6942263,0.5024401,-2.2484899,-3.8262439,4.26832,113.100006,-160.5,-22.5,,,,,x,
1054702,0.46954224,4.8730707,0.5873764,-2.393308,-3.58234,4.199722,110.700005,-160.5,-22.5,,,,,,
1054744,1.2656705,5.4813824,0.2601922,-1.722572,-2.919226,3.330814,96.3,-165.3,-20.7,,,,,,
1054764,1.5599569,5.624338,-0.053832866,-1.1051899,-3.155508,2.980202,103.50001,-160.5,-22.5,,,,,,
1054784,1.903291,6.024496,-0.23267761,-0.853664,-3.6585598,2.82014,93.9,-170.1,-20.1,,,,,,
1054804,2.1126409,5.9216156,-0.27095875,-0.46494198,-3.521364,2.469528,89.100006,-162.90001,-26.7,,,,,,
1054866,2.9009933,7.5838547,-0.2853142,-0.3811,-2.01983,2.2180018,98.700005,-170.1,-27.300001,,,,,,
1054886,2.6533623,7.6029954,-0.5849838,-0.434454,-0.55640596,1.5244,74.700005,-162.90001,-26.7,,,,,,
1054906,2.941069,8.595913,-1.0814425,0.510674,0.525918,1.989342,84.3,-162.90001,-26.7,,,,,,
1054928,2.9733686,9.735375,-1.4158044,0.541162,1.074702,1.326228,91.5,-177.3,-17.7,,,,,,
1054990,2.4260678,9.030165,-2.6838675,1.71495,-0.525918,0.55640596,93.9,-174.90001,-17.7,,,,,,
1055010,2.4966488,9.8645735,-1.6825762,0.70122397,-1.280496,0.64787,77.100006,-184.5,-25.500002,,,,,,
1055052,2.0970893,9.489538,-2.522967,0.67073596,0.259148,-0.617382,96.3,-179.70001,-26.1,,,,,,
1055072,1.4403282,8.348282,-2.3040466,0.716468,-0.106708,-1.158544,81.9,-167.70001,-21.900002,,,,,,
1055094,1.6532671,8.085098,-2.4996395,0.967994,-0.586894,-0.221038,84.3,-167.70001,-11.1,,,,,,
1055134,1.9337962,9.475183,-2.5403132,0.731712,-0.182928,-0.060976,93.9,-160.5,-15.3,,,,,,
1055185,2.719158,9.281384,-2.0570138,0.251526,-1.013726,-0.45731997,86.700005,-177.3,-17.7,,,,,,
1055220,2.753252,8.975734,-1.8859448,0.137196,-0.26677,-1.021348,81.9,-167.70001,-18.900002,,,,,,
1055283,2.668316,9.965062,-2.2412417,0.792688,-1.326228,-1.585376,96.3,-170.1,-18.900002,,,,,,
1055422,0.33615634,9.404004,-2.8758714,0.67835796,-2.6829438,-0.708846,98.700005,-162.90001,-25.500002,,,,,,
1055479,-0.753062,8.164652,-2.743682,0.625004,-1.958854,-1.509156,101.100006,-177.3,-21.900002,,,,,,
1055525,-0.794932,9.2443,-2.844768,0.64787,-2.416174,0.754578,110.700005,-162.90001,-13.500001,,,,,,
1055546,-0.45578495,10.099644,-2.8214405,0.373478,-1.775926,-0.015244,103.50001,-160.5,-19.5,,,,,,
1055586,-0.8350076,7.5031056,-2.5953424,-0.30488,-0.998482,-1.737816,108.3,-162.90001,-24.900002,,,,,,
1055629,0.3367545,8.167643,-2.7891407,0.388722,0.099086,0.259148,96.3,-150.90001,-24.300001,,,,,,
1055649,0.5138048,8.833375,-2.5899591,0.137196,0.518296,-0.586894,101.100006,-172.5,-17.7,,,,,,
1055689,1.1986785,9.361536,-3.299955,0.40396598,2.355198,-2.088428,105.9,-165.3,-20.1,,,,,,
1055733,1.2578946,9.661205,-3.0726604,0.129574,2.2561119,-1.471046,117.9,-167.70001,-20.7,,,,,,
1055763,1.1603974,9.999156,-3.4614534,0.030488,3.551852,-1.280496,115.50001,-162.90001,-17.1,,,,,,
1055783,0.82842803,9.486547,-3.65585,-0.198172,3.650938,-1.71495,103.50001,-160.5,-14.700001,,,,,,
1055824,0.64659256,9.428528,-3.518277,0.26677,2.454284,-1.006104,127.50001,-165.3,-19.5,,,,,,
1055844,0.4288685,9.554137,-3.7084863,0.434454,2.59148,-0.56402797,113.100006,-165.3,-21.900002,,,,,x,
1055864,-0.078954875,9.391443,-3.631326,0.03811,2.32471,-0.45731997,108.3,-162.90001,-20.7,,,,,x,
1055884,-0.39776507,9.274207,-3.5422027,-0.41158798,1.532022,0.274392,113.100006,-160.5,-20.7,,,,,x,
1055944,-1.627547,9.123475,-1.6107991,-4.4664917,-1.920744,2.7591639,115.50001,-170.1,-21.900002,,,,,x,
1055986,-1.6759967,8.05579,-0.7901469,-2.431418,-6.768336,4.809482,101.100006,-179.70001,-25.500002,,,,,x,
1056006,-0.6208724,7.776457,-1.0886202,-0.769822,-12.27142,4.321674,101.100006,-167.70001,-17.7,,,,,x,
1056027,0.30325848,6.4569535,0.004187001,-1.082324,-17.484867,3.39179,93.9,-177.3,-24.300001,,,,,x,
1056067,2.6874564,4.7295165,1.3129238,-1.6387299,-19.161707,3.1936178,96.3,-182.1,-27.900002,,,,,x,
1056107,3.0642865,3.4758089,1.4732262,-1.432936,-16.532118,1.8597679,89.100006,-165.3,-32.100002,,,,,x,
1056127,3.908266,3.4560702,1.9008983,-1.554888,-15.312597,0.53354,84.3,-172.5,-18.900002,,,,,x,
1056147,3.7007105,2.7789721,1.1693695,-1.227142,-10.655556,-1.3795819,81.9,-174.90001,-25.500002,,,,,x,
1056191,3.8000023,3.2897863,-1.4636558,1.097568,-4.085392,-3.551852,93.9,-167.70001,-21.900002,,,,,x,
1056231,2.6719046,3.2784216,-4.878454,4.618932,4.4055157,-3.910086,105.9,-167.70001,-25.500002,,,,,x,
1056301,2.6713066,9.919603,-8.577371,5.510706,6.82169,-4.207344,113.100006,-160.5,-24.300001,,,,,x,
1056364,-0.051440295,9.911229,-7.929581,1.707328,8.872007,-8.468041,134.70001,-165.3,-21.900002,,,,,x,
1056483,-1.9942087,12.602873,-11.282173,3.6966698,18.765364,-6.349126,158.70001,-136.5,-19.5,,,,,x,
1056503,-0.4396351,12.398308,-11.517841,0.47256398,10.381164,-6.28815,168.3,-129.3,-12.900001,,,,,x,
1056544,-2.7167654,14.580932,-7.5653124,-1.1432999,11.265316,-3.2241058,165.90001,-138.90001,-16.5,,,,,x,
1056564,-2.308832,16.570953,-8.396731,-0.365856,13.64338,-5.52595,182.70001,-117.3,-11.1,,,,,x,
1056627,-4.659534,16.195917,-6.6411815,-4.9009457,6.036624,-4.375028,177.90001,-124.50001,-5.1000004,,,,,x,
1056743,-5.2355456,12.816409,-6.0221033,-2.004586,5.14485,-0.16768399,175.5,-119.700005,-7.5000005,,,,,x,
1056778,-5.746958,12.191948,-4.619458,-1.417692,5.4573517,1.958854,177.90001,-131.70001,-11.1,,,,,x,
1056798,-5.577085,12.338493,-4.891613,-1.417692,3.39179,1.806414,168.3,-122.100006,-6.9,,,,,x,
1056839,-5.0261955,10.076915,-3.3992465,-1.3795819,-2.187514,5.03052,168.3,-119.700005,-9.900001,,,,,x,
1056859,-4.6027102,10.562607,-2.920732,-2.59148,-2.423796,6.0899777,161.1,-136.5,-11.700001,,,,,x,
1056882,-3.8340964,8.745448,-2.7723927,-2.850628,-2.309466,5.6097918,158.70001,-138.90001,-7.5000005,,,,,x,
1056903,-3.2030556,8.464919,-2.1634831,-4.771372,-5.0838737,6.814068,151.5,-136.5,-2.1000001,,,,,x,
1056923,-2.970976,7.5964155,-1.309335,-5.823208,-5.190582,6.295772,158.70001,-143.70001,-6.3,,,,,x,
1056943,-2.8686936,6.4270463,-1.5719197,-5.4573517,-5.015276,5.243936,137.1,-155.70001,-11.700001,,,,,x,
1056963,-2.338739,4.5859623,-1.2094451,-5.480218,-8.033587,4.245454,153.90001,-146.1,-18.900002,,,,,x,
1056987,-1.1795379,3.877761,-0.49167353,-4.5427117,-11.211962,6.181442,139.5,-146.1,-11.700001,,,,,x,
1057007,-0.694444,4.2701426,0.4019521,-4.413138,-10.678422,7.690598,127.50001,-158.1,-8.700001,,,,,x,
1057027,-0.045458864,4.6338134,-0.38640037,-3.650938,-7.522914,8.071698,113.100006,-155.70001,-12.3,,,,,x,
1057047,0.7058087,4.5931396,-0.761436,-3.2469718,-8.6509695,8.109808,122.700005,-162.90001,-23.1,,,,,x,
1057069,1.4199914,4.3455086,-0.1016843,-3.2317278,-9.710428,7.766818,117.9,-158.1,-19.5,,,,,x,
1057089,1.673604,3.8095727,-0.12321745,-2.949714,-7.820172,6.814068,115.50001,-172.5,-22.5,,,,,x,
1057153,3.8789573,4.8455563,-0.2254999,-0.731712,-5.5335717,5.929916,105.9,-160.5,-23.1,,,,,x,
1057203,4.7576294,6.910944,-1.8524488,1.501534,-1.6311079,4.824726,93.9,-174.90001,-15.900001,,,,,x,
1057224,5.070458,8.3740015,-2.368048,0.602138,0.792688,3.3003259,57.9,-170.1,-23.7,,,,,x,
1057265,3.551773,7.5605273,-3.438724,0.82317597,1.75306,-0.053354,74.700005,-177.3,-18.900002,,,,,x,
1057306,3.2186074,9.046314,-4.438819,0.602138,3.437522,-0.81555396,74.700005,-167.70001,-25.500002,,,,,x,
1057346,2.5474908,9.3346195,-4.3574715,0.327746,0.182928,-2.050318,72.3,-162.90001,-15.3,,,,,,
1057502,0.9061866,8.534304,-3.033183,-0.07622,3.54423,-1.8445239,93.9,-174.90001,-16.5,,,,,x,
1057522,0.5233751,9.581054,-3.217411,0.40396598,2.500016,-0.57164997,77.100006,-167.70001,-15.900001,,,,,x,
1057562,0.09809545,10.94183,-2.577398,-0.259148,-0.518296,-0.777444,84.3,-158.1,-16.5,,,,,x,
1057640,-1.0611056,7.129864,0.39178365,-1.775926,-8.80341,1.265252,86.700005,-162.90001,-24.300001,,,,,x,
1057680,-0.51559925,5.9598966,0.32658607,-1.8369019,-14.641862,1.554888,93.9,-160.5,-23.1,,,,,x,
1057704,-0.2769402,4.434034,0.9994969,-1.8369019,-18.475727,2.2332458,89.100006,-179.70001,-20.7,,,,,x,
1057744,2.1993718,3.7635155,1.8685987,-2.85825,-18.933048,4.245454,81.9,-162.90001,-21.900002,,,,,x,
1057765,2.5205746,2.970378,1.2698575,-1.9054999,-16.34919,3.346058,84.3,-172.5,-17.1,,,,,x,
1057785,2.9931073,3.0906048,0.77220255,-1.280496,-14.71046,2.7515419,72.3,-167.70001,-20.7,,,,,x,
1057829,3.3077307,5.38867,-3.0283978,1.8597679,-1.089946,-2.09605,69.9,-162.90001,-32.100002,,,,,x,
1057859,2.8304126,5.553159,-5.2654524,3.2317278,-2.2103798,-3.346058,74.700005,-170.1,-26.7,,,,,x,
1057879,2.6760917,6.8726625,-5.5244484,2.149404,-0.983238,-2.980202,86.700005,-170.1,-25.500002,,,,,x,
1057924,1.9613107,6.8008857,-7.9373574,2.599102,3.971062,-4.253076,96.3,-153.3,-32.100002,,,,,x,
1057945,1.9050853,7.509685,-7.065863,-0.30488,-1.204276,-3.3155699,101.100006,-165.3,-24.900002,,,,,x,
1057965,3.0224164,11.734967,-7.3942432,-0.07622,2.637212,-0.373478,96.3,-165.3,-25.500002,,,,,x,
1057986,3.5739043,12.306791,-7.7130537,-0.388722,7.01224,-6.623518,103.50001,-160.5,-24.300001,,,,,x,
1058007,1.1735566,8.359646,-8.521145,1.8978779,6.9893737,-12.256176,122.700005,-162.90001,-20.1,,,,,x,
1058070,0.2619866,13.5246105,-7.090985,1.097568,14.992474,-6.638762,127.50001,-158.1,-20.1,,,,,x,
1058160,-1.9349926,16.733648,-8.289663,-0.80793196,16.776022,-7.118948,149.1,-153.3,-20.7,,,,,x,
1058220,-3.058305,16.401081,-8.008536,-4.5274677,7.957368,-2.43904,173.1,-141.3,-13.500001,,,,,x,
1058243,-3.7377954,16.137897,-5.2899766,-3.932952,7.690598,-5.884184,170.70001,-141.3,-12.900001,,,,,x,
1058263,-5.024401,14.271691,-5.760715,-0.160062,18.10225,-5.9070497,163.5,-136.5,-18.300001,,,,,x,
1058283,-5.7762666,15.113278,-7.8464394,-1.1356779,15.160157,-2.332332,165.90001,-124.50001,-6.9,,,,,x,
1058399,-5.271434,12.4653,-3.3795078,-4.260698,3.445144,3.2164838,161.1,-148.5,-11.1,,,,,x,
1058423,-4.14872,10.5327,-0.8529519,-5.015276,0.17530599,3.948196,146.70001,-141.3,-10.5,,,,,x,
1058463,-3.5386138,9.301124,-1.6215656,-3.2012398,3.117398,4.923812,146.70001,-148.5,-18.300001,,,,,x,
1058483,-3.0953898,9.671972,-1.3254849,-4.756128,-0.92988396,4.618932,141.90001,-153.3,-12.3,,,,,x,
1058505,-2.7227468,8.324356,-0.5634507,-5.5488157,-3.50612,2.7972739,125.100006,-150.90001,-18.300001,,,,,x,
1058525,-2.9069748,6.2428184,-0.06519759,-5.37351,-4.847592,3.018312,129.90001,-158.1,-17.1,,,,,x,
1058545,-1.6245563,5.874362,-0.17585403,-6.0976,-5.8765616,5.236314,137.1,-162.90001,-23.7,,,,,x,
1058565,-1.0060765,4.965783,0.33316565,-5.0991178,-6.295772,3.7652678,115.50001,-160.5,-14.700001,,,,,x,
1058585,0.2464349,5.598618,-0.06459944,-2.7286758,-6.6311398,4.4360037,122.700005,-160.5,-21.900002,,,,,x,
1058607,0.33137122,6.0472255,1.1956878,-3.841488,-8.262248,3.041178,122.700005,-162.90001,-23.1,,,,,x,
1058628,0.23207948,4.5082035,1.0527316,-3.940574,-5.4268637,0.602138,120.3,-160.5,-15.3,,,,,x,
1058648,1.1107515,3.305936,1.0323948,-2.530504,-7.797306,1.417692,122.700005,-167.70001,-23.7,,,,,x,
1058668,1.3745326,3.1438394,1.4211878,-2.301844,-8.0945635,2.195136,108.3,-158.1,-27.300001,,,,,x,
1058688,2.0133493,3.643887,1.183725,-1.44818,-7.0808377,3.7576458,103.50001,-167.70001,-23.1,,,,,x,
1058708,2.4428158,4.012343,0.32479164,0.0,-6.0290017,3.948196,103.50001,-167.70001,-27.900002,,,,,x,
1058732,3.522464,4.575196,-0.8056986,3.064044,-6.646384,4.923812,96.3,-160.5,-30.300001,,,,,x,
1058752,3.73959,5.828903,-0.87508315,2.355198,-5.8918056,4.9543,103.50001,-174.90001,-26.1,,,,,x,
1058772,4.1977673,7.056891,-2.1814275,3.064044,-2.454284,3.955818,98.700005,-160.5,-30.900002,,,,,x,
1058796,4.4190803,7.9050574,-3.1432414,3.437522,-2.652456,2.2484899,91.5,-172.5,-17.1,,,,,x,
1058816,3.7294214,7.8930945,-3.3741245,2.050318,-2.088428,0.243904,81.9,-177.3,-23.7,,,,,x,
1058836,4.115822,7.8907022,-3.953725,2.55337,-2.2256238,0.373478,84.3,-172.5,-20.1,,,,,,
1058876,3.3202915,9.501501,-3.0397625,0.388722,1.516778,0.16768399,89.100006,-160.5,-20.7,,,,,,
1058939,2.2436342,8.972144,-3.078642,1.6387299,0.396344,-0.548784,89.100006,-177.3,-22.5,,,,,,
1058959,2.0133493,9.574474,-2.5474908,1.56251,0.053354,-0.289636,77.100006,-165.3,-24.900002,,,,,,
1058981,0.72794,8.642568,-2.3967588,0.45731997,1.5929979,-1.250008,93.9,-170.1,-16.5,,,,,,
1059001,0.7410991,8.947022,-2.4822934,0.602138,1.204276,-0.297258,98.700005,-162.90001,-25.500002,,,,,,
1059021,0.732127,10.331723,-2.0809393,0.365856,0.251526,0.11432999,93.9,-172.5,-23.7,,,,,,
1059041,0.39656878,10.931063,-1.4199914,-0.33536798,-1.265252,-0.449698,98.700005,-177.3,-20.7,,,,,x,
1059063,-0.17764847,9.817321,-0.4228871,-1.8673899,-2.942092,-1.29574,98.700005,-162.90001,-24.900002,,,,,x,
1059083,-0.88704604,7.70767,-0.08732887,-1.455802,-3.2545938,-0.731712,93.9,-160.5,-18.300001,,,,,x,
1059103,-0.61070395,7.8051677,0.123815596,-0.525918,-5.670768,1.94361,81.9,-170.1,-26.1,,,,,x,
1059125,0.1489376,8.527724,0.40494278,-0.541162,-8.018344,2.812518,81.9,-170.1,-19.5,,,,,x,
1059145,0.18542433,7.183697,0.81048375,-0.967994,-10.777508,1.5929979,93.9,-165.3,-23.7,,,,,x,
1059165,0.48808467,6.0514126,1.6939409,-1.051836,-13.041242,1.547266,77.100006,-174.90001,-18.900002,,,,,x,
1059185,0.6591536,5.496336,1.698726,-1.089946,-12.911668,1.6463519,98.700005,-177.3,-21.900002,,,,,x,
1059208,0.88943857,4.547681,1.4875816,-0.884152,-13.689112,1.3490939,86.700005,-174.90001,-26.7,,,,,x,
1059228,0.8631203,3.5571563,2.019929,-0.579272,-15.411684,1.3643379,93.9,-179.70001,-22.5,,,,,x,
1059248,0.3564932,2.4194884,1.9960032,-0.899396,-14.032102,1.227142,81.9,-172.5,-29.7,,,,,x,
1059268,1.2411467,4.2557874,0.48688838,0.518296,-12.103736,3.856732,77.100006,-179.70001,-23.1,,,,,x,
1059310,-0.15910603,5.008849,-2.187409,-0.33536798,-3.2927039,-3.3155699,72.3,-174.90001,-27.900002,,,,,x,
1059330,-0.18362989,3.179728,-4.6714964,3.910086,-2.644834,-3.460388,96.3,-165.3,-30.300001,,,,,x,
1059350,0.60651696,4.7977047,-5.3162947,3.2241058,-8.940606,0.434454,84.3,-179.70001,-30.900002,,,,,x,
1059371,1.8135695,8.220279,-4.4250617,2.004586,-9.397925,3.12502,79.5,-158.1,-28.500002,,,,,x,
1059432,2.0857246,8.90276,-5.998776,2.507638,1.516778,-2.881116,81.9,-167.70001,-24.300001,,,,,x,
1059453,2.1090522,8.769972,-6.1776204,1.501534,1.79117,-4.72564,91.5,-165.3,-29.7,,,,,x,
1059473,2.627044,10.399912,-6.635798,2.378064,5.4573517,-4.009172,96.3,-160.5,-23.7,,,,,x,
1059494,2.2747378,11.091963,-6.9641786,2.2408679,7.43145,-4.5579557,93.9,-155.70001,-29.7,,,,,x,
1059514,1.7435868,10.649338,-7.778251,3.490876,10.09915,-7.286632,93.9,-172.5,-24.900002,,,,,x,
1059534,2.4081235,11.157759,-9.011622,4.824726,11.128119,-5.701256,127.50001,-162.90001,-20.7,,,,,x,
1059554,1.83271,11.79837,-9.542175,1.966476,10.396408,-5.5183277,101.100006,-158.1,-23.7,,,,,x,
1059574,1.698726,11.397017,-9.532604,2.355198,10.350676,-5.655524,120.3,-158.1,-24.900002,,,,,x,
1059594,2.845366,11.90783,-9.405798,1.44818,10.312566,-5.167716,127.50001,-153.3,-18.900002,,,,,x,
1059617,2.284308,11.867755,-8.982911,1.440558,13.948259,-6.714982,134.70001,-162.90001,-16.5,,,,,x,
1059637,1.7118852,11.071627,-9.910631,3.384168,16.46352,-6.623518,120.3,-158.1,-14.700001,,,,,x,
1059657,1.4594688,12.216472,-10.063755,1.440558,15.266866,-5.4573517,146.70001,-155.70001,-7.5000005,,,,,x,
1059677,0.45757937,13.147182,-9.69171,0.121952,15.213511,-6.8369336,132.3,-155.70001,-12.3,,,,,x,
1059698,-1.1017793,11.490327,-9.948314,1.730194,16.92084,-8.529017,137.1,-148.5,-11.700001,,,,,x,
1059718,-0.40135393,12.721305,-10.134336,-0.28201398,12.53819,-5.320156,146.70001,-146.1,-3.9,,,,,x,
1059739,-2.4966488,13.834449,-8.027677,-5.114362,9.1463995,-5.9985137,139.5,-153.3,-14.1,,,,,x,
1059759,-3.882546,12.7147255,-7.1741266,-2.469528,13.689112,-7.149436,149.1,-143.70001,-14.700001,,,,,x,
1059781,-3.8041892,12.7147255,-7.854215,-2.065562,11.753123,-5.480218,151.5,-141.3,-14.1,,,,,x,
1059801,-5.2899766,12.938431,-6.531721,-4.9771657,8.757678,-4.0777698,149.1,-134.1,-12.3,,,,,x,
1059821,-5.3898664,14.149072,-6.2828937,-3.521364,8.597616,-2.2865999,139.5,-141.3,-13.500001,,,,,x,
1059843,-5.087206,13.5138445,-5.1482167,-3.856732,3.3155699,-3.368924,137.1,-153.3,-5.7000003,,,,,x,
1059926,-5.4293437,12.106414,-2.24184,-5.0533857,3.422278,1.79117,139.5,-143.70001,-18.900002,,,,,x,
1059963,-4.079933,12.33311,-3.2030556,-5.25918,-0.068598,4.519846,134.70001,-155.70001,-15.900001,,,,,x,
1059983,-4.0936904,10.9837,-1.7561477,-5.129606,-4.76375,3.62045,137.1,-150.90001,-11.1,,,,,x,
1060026,-3.2072427,9.804161,-1.1035738,-5.03052,0.67073596,6.318638,127.50001,-158.1,-14.700001,,,,,x,
1060047,-2.6126885,8.711952,-1.8542432,-4.199722,-1.189032,5.3354,113.100006,-160.5,-17.1,,,,,x,
1060068,-1.8488599,7.409197,-1.4911704,-3.7805119,-5.510706,4.15399,120.3,-165.3,-18.300001,,,,,x,
1060088,-1.3524013,5.9796352,-0.36546534,-3.7957559,-8.414688,2.987824,117.9,-165.3,-22.5,,,,,x,
1060108,-0.28710863,5.501719,-0.21892032,-3.102154,-7.58389,3.056422,98.700005,-160.5,-18.900002,,,,,x,
1060128,0.5072252,4.322181,-0.39836323,-4.176856,-7.4848037,2.088428,105.9,-162.90001,-23.1,,,,,x,
1060149,-1.3374476,1.9110668,-0.45578495,-3.7271578,-7.0503497,2.301844,110.700005,-172.5,-23.1,,,,,x,
1060211,1.0192356,2.769402,0.41810194,-1.974098,-10.144882,2.118916,96.3,-177.3,-20.1,,,,,x,
1060231,2.4254696,2.8381884,-0.43185923,0.22865999,-9.916222,3.7728899,84.3,-170.1,-26.7,,,,,x,
1060251,3.3573766,4.3496957,0.14415246,0.17530599,-11.097631,4.413138,74.700005,-172.5,-30.300001,,,,,x,
1060275,3.7533472,4.3610606,-0.6968366,0.94512796,-8.033587,3.12502,84.3,-177.3,-28.500002,,,,,x,
1060338,5.2451158,6.144723,-0.70521057,0.289636,-2.507638,1.798792,69.9,-177.3,-28.500002,,,,,x,
1060387,4.3431163,8.677858,-3.2335608,1.158544,1.722572,0.091464,84.3,-179.70001,-27.900002,,,,,x,
1060408,4.2892833,8.372806,-3.2951696,0.69360197,0.160062,-0.243904,81.9,-167.70001,-34.5,,,,,x,
1060449,3.7090845,9.370508,-3.55596,0.297258,3.3079479,0.11432999,65.100006,-174.90001,-21.900002,,,,,,
1060469,3.0947917,8.854909,-3.6833644,1.18141,2.7591639,-0.853664,72.3,-172.5,-17.7,,,,,,
1060489,2.8728807,8.825002,-3.2102332,1.288118,2.309466,-1.021348,62.7,-184.5,-20.7,,,,,,
1060509,2.530743,9.327441,-2.902788,0.983238,2.7210538,-1.074702,77.100006,-167.70001,-26.1,,,,,,
1060533,1.5874715,8.699391,-2.6641288,-0.083841994,3.2088618,-1.94361,77.100006,-174.90001,-24.900002,,,,,,
1060554,1.3159145,9.84962,-2.5450983,0.83842,2.7744079,-0.015244,72.3,-177.3,-27.300001,,,,,,
1060576,0.995908,11.566291,-2.116828,-0.56402797,0.83842,0.3811,55.500004,-167.70001,-21.300001,,,,,x,
1060616,-0.20935003,8.988295,-1.1059663,-0.144818,-0.861286,-2.080806,67.5,-167.70001,-24.300001,,,,,x,
1060639,-0.11005831,8.798683,-0.3618765,-0.56402797,-3.6661818,-0.251526,81.9,-170.1,-24.300001,,,,,x,
1060659,-0.11544159,8.6868305,-0.19738717,-0.53354,-4.176856,0.518296,86.700005,-179.70001,-20.7,,,,,x,
1060679,0.018542431,6.895392,-0.22849062,-0.518296,-9.67994,0.35061198,67.5,-189.3,-19.5,,,,,x,
1060699,0.18303175,6.154891,0.4982531,-0.739334,-12.134224,0.68597996,69.9,-172.5,-20.7,,,,,x,
1060719,0.58558196,5.409007,1.6688188,-1.6539739,-13.048863,2.149404,67.5,-177.3,-23.7,,,,,x,
1060739,1.3302699,5.3575664,1.6329303,-2.2027578,-12.23331,2.507638,72.3,-174.90001,-24.900002,,,,,x,
1060824,1.0527316,2.5744073,0.6220687,-0.15244,-8.42231,0.23628199,60.300003,-182.1,-31.500002,,,,,x,
1060884,0.31163248,1.3948694,-3.6253445,4.4207597,-1.56251,-5.60217,84.3,-167.70001,-33.9,,,,,x,
1060924,3.8035913,8.937452,-5.27263,1.661596,-4.87808,3.833866,74.700005,-172.5,-33.9,,,,,x,
1060986,2.3536925,7.123883,-7.5449753,4.9009457,3.003068,-2.500016,79.5,-177.3,-25.500002,,,,,x,
1061106,1.8871411,13.735157,-8.568398,0.487808,10.59458,-4.397894,96.3,-158.1,-23.7,,,,,x,
1061126,0.58079684,13.160341,-8.927284,0.26677,12.91929,-7.972612,101.100006,-165.3,-18.300001,,,,,x,
1061167,-0.62805015,10.50997,-9.339404,1.56251,12.42386,-6.189064,122.700005,-158.1,-24.300001,,,,,x,
1061187,0.39896137,14.840526,-9.67257,0.80030996,12.218065,-1.821658,120.3,-155.70001,-20.7,,,,,x,
1061229,-1.0186375,12.166826,-8.659316,2.2256238,16.981815,-6.5549197,132.3,-141.3,-11.700001,,,,,x,
1061271,-2.2651675,13.282961,-10.477671,1.98172,9.923843,-4.5579557,134.70001,-148.5,-14.1,,,,,x,
1061291,-3.9112568,15.319039,-7.3571587,-4.87808,0.07622,-4.138746,132.3,-141.3,-11.700001,,,,,x,
1061311,-5.02799,15.484127,-4.322779,-6.3567476,4.367406,-5.9222937,151.5,-150.90001,-9.900001,,,,,x,
1061331,-4.539905,12.849905,-5.1392446,-1.71495,11.54733,-7.248522,146.70001,-143.70001,-12.3,,,,,x,
1061412,-4.8329954,12.699772,-1.0545261,-5.304912,1.532022,-2.7896519,146.70001,-143.70001,-8.1,,,,,x,
1061462,-3.8412743,12.77753,-3.7425807,-3.92533,3.96344,1.463424,139.5,-150.90001,-10.5,,,,,x,
1061482,-3.6989162,11.784015,-1.1873138,-5.3658876,-1.8673899,2.164648,151.5,-146.1,-12.3,,,,,x,
1061524,-2.9805465,10.916707,-1.4552819,-4.695152,5.5030837,4.9771657,125.100006,-138.90001,-15.3,,,,,x,
1061565,-1.912263,10.164842,-0.5580674,-4.9771657,-1.8673899,3.12502,113.100006,-162.90001,-18.900002,,,,,x,
1061585,-2.6037164,7.4020195,-0.06878644,-3.628072,-1.669218,2.2865999,125.100006,-174.90001,-21.900002,,,,,x,
1061605,-2.334552,7.191473,-0.8338113,-2.675322,-1.8750119,6.8521776,117.9,-155.70001,-18.300001,,,,,x,
1061649,-0.49107537,7.613762,-0.48808467,-2.97258,-4.824726,8.216516,101.100006,-182.1,-17.7,,,,,x,
1061669,-0.14833945,6.3750076,-0.14594689,-3.094532,-6.4482117,6.295772,101.100006,-165.3,-20.1,,,,,x,
1061689,0.0053832866,4.777368,-0.025720147,-2.7286758,-6.638762,4.53509,96.3,-174.90001,-24.300001,,,,,x,
1061709,0.053234726,3.756936,-0.1531246,-1.425314,-7.1418138,4.64942,89.100006,-155.70001,-24.900002,,,,,x,
1061729,0.53653425,4.8138547,-0.1782466,-0.92988396,-9.306461,6.295772,81.9,-170.1,-30.300001,,,,,x,
1061749,0.42109266,4.495044,-0.14534874,-0.861286,-9.497012,5.3354,72.3,-174.90001,-20.1,,,,,x,
1061769,1.1041719,4.0009785,-0.32060462,-0.388722,-10.472628,5.228692,72.3,-186.90001,-24.300001,,,,,x,
1061789,2.6360161,4.4017344,-0.08374002,0.15244,-11.24245,5.899428,60.300003,-189.3,-27.300001,,,,,x,
1061854,3.4070225,4.565027,-1.9780588,1.440558,-2.812518,1.989342,55.500004,-177.3,-21.300001,,,,,x,
1061963,4.840771,9.022388,-3.2353554,0.82317597,0.373478,-0.243904,45.9,-177.3,-26.1,,,,,,
1062000,3.5565581,8.159268,-3.9124532,0.541162,2.660078,-2.2332458,62.7,-174.90001,-23.7,,,,,,
1062062,3.648672,9.388453,-2.8250291,-0.015244,-0.80793196,-1.41007,53.100002,-162.90001,-22.5,,,,,x,
1062082,3.2658606,8.801076,-2.8310106,0.28201398,0.69360197,-2.187514,48.300003,-167.70001,-22.5,,,,,x,
1062104,2.723345,8.75442,-2.021125,-0.632626,1.417692,-1.730194,62.7,-172.5,-21.900002,,,,,x,
1062124,2.292682,8.646755,-2.3501036,-0.121952,3.399412,-1.8750119,65.100006,-174.90001,-26.1,,,,,x,
1062144,1.9983957,8.709559,-2.7879443,0.16768399,2.652456,-1.425314,67.5,-177.3,-24.300001,,,,,x,
1062184,2.6132867,8.862086,-1.5946492,0.091464,0.7622,-0.11432999,69.9,-182.1,-24.300001,,,,,x,
1062204,2.5588555,9.974632,-1.8446729,-0.121952,3.12502,-0.68597996,69.9,-174.90001,-20.7,,,,,x,
1062244,1.7842605,9.289759,-2.8034961,1.242386,2.149404,-0.81555396,72.3,-174.90001,-21.900002,,,,,x,
1062304,0.55208594,9.4105835,-2.497845,0.144818,-0.053354,-3.1783738,60.300003,-172.5,-16.5,,,,,x,
1062426,0.7710063,4.8688836,-0.0077758585,-3.2545938,-14.71046,0.67073596,69.9,-174.90001,-24.300001,,,,,x,
1062467,1.3924768,2.4757137,0.4509998,-3.140264,-16.760778,0.754578,79.5,-174.90001,-25.500002,,,,,x,
1062546,3.322086,4.196571,-0.5592637,-1.455802,-13.963504,-0.41921,84.3,-177.3,-27.900002,,,,,x,
1062567,3.523062,4.8078732,-0.49645868,-1.806414,-10.739398,-2.301844,67.5,-182.1,-32.100002,,,,,x,
1062587,3.212626,4.815051,-1.2626798,-0.525918,-5.52595,-3.7195358,62.7,-172.5,-33.9,,,,,x,
1062610,2.5851738,6.0944786,-4.0099506,1.760682,4.146368,-3.84911,81.9,-167.70001,-31.500002,,,,,x,
1062631,2.5038264,7.4169726,-5.2983503,2.89636,7.3476076,-3.7881339,81.9,-162.90001,-25.500002,,,,,x,
1062651,2.359674,10.322751,-6.668098,2.7896519,8.841519,-2.7210538,84.3,-179.70001,-26.1,,,,,x,
1062711,-0.46535522,7.80756,-7.076031,1.692084,3.6661818,-7.8430376,98.700005,-155.70001,-26.7,,,,,x,
1062731,-0.053234726,10.640964,-5.9808316,0.655492,6.692116,-2.7515419,125.100006,-158.1,-27.300001,,,,,x,
1062751,1.6131916,13.235707,-6.8272038,2.2484899,14.702838,-3.117398,110.700005,-160.5,-30.300001,,,,,x,
1062792,-0.15671346,9.045716,-8.7412615,4.367406,9.359816,-7.16468,127.50001,-153.3,-18.900002,,,,,x,
1062812,-0.7034161,11.487336,-7.220782,-0.137196,8.361334,-3.071666,125.100006,-148.5,-18.900002,,,,,x,
1062832,0.2924919,13.030544,-7.6071825,2.942092,16.051931,-2.85825,122.700005,-158.1,-20.1,,,,,x,
1062856,1.3087368,12.885196,-9.222767,5.6097918,17.065659,-4.443626,113.100006,-158.1,-12.900001,,,,,x,
1062896,-0.07058087,15.297506,-8.726308,0.67073596,13.216548,-3.4299,139.5,-153.3,-21.900002,,,,,x,
1062916,-0.3439322,14.139502,-8.041434,-0.045732,14.512288,-7.248522,139.5,-155.70001,-12.3,,,,,x,
1062936,-2.2322695,14.54265,-9.418958,2.179892,17.027548,-4.634176,144.3,-141.3,-13.500001,,,,,x,
1062956,-1.5904622,16.250349,-9.741955,0.92988396,15.213511,-2.7134318,129.90001,-150.90001,-11.700001,,,,,x,
1062976,-0.73272514,17.315641,-8.646156,-3.635694,8.086942,-4.702774,132.3,-146.1,-6.9,,,,,x,
1062996,-3.4273593,13.721998,-6.370821,-3.7652678,5.975648,-9.03207,141.90001,-150.90001,-9.900001,,,,,x,
1063019,-3.0068648,13.966639,-6.480281,-1.21952,8.064075,-1.02897,137.1,-141.3,-15.900001,,,,,x,
1063039,-1.9583201,17.091936,-5.003466,-6.0976,4.817104,-0.960372,151.5,-148.5,-12.900001,,,,,x,
1063082,-3.9932024,12.454533,-5.217003,0.967994,9.085423,-4.847592,134.70001,-141.3,-11.700001,,,,,x,
1063102,-4.2115245,12.712333,-3.8346946,-2.919226,1.3795819,-1.501534,146.70001,-141.3,-9.900001,,,,,x,
1063122,-4.468128,14.460106,-2.0552192,-2.827762,0.853664,0.053354,161.1,-148.5,-14.1,,,,,x,
1063142,-3.9268086,14.215466,-2.546893,-1.082324,4.0625257,-1.539644,158.70001,-146.1,-14.700001,,,,,x,
1063224,-4.038063,10.676852,-2.7873464,-2.843006,0.640248,3.376546,156.3,-134.1,-15.3,,,,,x,
1063265,-3.2054482,8.995472,-1.7214555,-4.336918,-4.76375,3.35368,156.3,-160.5,-13.500001,,,,,x,
1063285,-2.9069748,7.983414,-1.5007408,-3.16313,-4.855214,3.346058,144.3,-158.1,-17.1,,,,,x,
1063326,-2.5756037,6.482075,-0.94327146,-2.7439198,-6.4634557,5.091496,144.3,-155.70001,-20.1,,,,,x,
1063370,-1.4827964,6.3187823,-0.8487649,-2.2408679,-5.663146,6.714982,120.3,-150.90001,-20.7,,,,,x,
1063410,-0.61190027,4.6457763,-1.5372274,-0.34298998,-7.187546,4.9161897,108.3,-165.3,-22.5,,,,,x,
1063465,1.0300022,2.9649947,-0.37563378,-0.33536798,-8.932983,6.4634557,96.3,-179.70001,-26.1,,,,,x,
1063500,1.7986159,4.709778,-0.24105161,-0.769822,-7.248522,7.20279,98.700005,-172.5,-23.1,,,,,x,
1063522,2.4966488,4.9298944,-0.7058087,-0.579272,-6.0137577,5.693634,91.5,-172.5,-26.7,,,,,x,
1063563,4.3036385,6.4737015,-1.1143403,0.846042,-4.176856,4.83997,81.9,-172.5,-19.5,,,,,x,
1063583,4.5339236,6.9677672,-1.5988362,0.487808,-3.01069,3.16313,72.3,-165.3,-21.300001,,,,,x,
1063667,4.0344744,10.898763,-3.82333,-0.396344,1.051836,2.43904,69.9,-167.70001,-18.300001,,,,,,
1063687,3.9632952,9.944127,-3.7742822,-0.525918,0.83842,-1.082324,72.3,-165.3,-29.7,,,,,,
1063707,3.8107688,8.9679575,-3.5511749,-0.16768399,0.121952,-1.768304,57.9,-162.90001,-23.1,,,,,,
1063747,3.5039215,8.382974,-3.5822783,0.40396598,1.67684,-1.3948259,72.3,-165.3,-22.5,,,,,,
1063792,3.200663,8.713747,-3.3382359,0.70122397,1.6311079,-0.49543,69.9,-170.1,-25.500002,,,,,,
1063884,1.4720298,9.281384,-2.4111142,-0.426832,3.170752,-1.539644,69.9,-165.3,-16.5,,,,,x,
1063979,-0.021533147,8.952406,-1.1412568,-1.1051899,-2.469528,-1.8369019,96.3,-172.5,-26.1,,,,,x,
1063999,-0.6663313,8.399123,-0.44322395,-1.75306,-3.574718,-0.602138,103.50001,-162.90001,-18.900002,,,,,x,
1064042,-0.80270785,6.8044744,-0.31402507,-1.684462,-9.062558,0.7622,93.9,-184.5,-28.500002,,,,,x,
1064103,-0.04187001,3.5667264,0.8673073,-3.08691,-13.239413,1.432936,79.5,-170.1,-26.1,,,,,x,
1064123,0.86910176,3.672598,0.40494278,-2.7972739,-14.359848,1.3643379,72.3,-177.3,-24.900002,,,,,x,
1064143,1.0467502,3.0475385,1.1562104,-3.46801,-16.34919,0.480186,69.9,-184.5,-28.500002,,,,,x,
1064166,1.6060139,2.47691,1.6335285,-4.375028,-15.2439995,0.23628199,91.5,-184.5,-29.7,,,,,x,
1064228,2.6204643,3.1055584,-0.8714943,-0.426832,-7.9192576,-2.675322,74.700005,-194.1,-30.300001,,,,,x,
1064285,1.7429886,6.93487,-4.329359,3.574718,3.536608,-5.731744,96.3,-184.5,-30.300001,,,,,x,
1064305,1.6472857,9.224561,-5.6285253,4.657042,3.6890478,-2.97258,91.5,-165.3,-26.7,,,,,x,
1064345,0.8631203,10.0494,-6.0986657,5.0686297,6.74547,-7.8430376,103.50001,-165.3,-18.300001,,,,,x,
1064388,1.5904622,11.7242,-8.871656,5.853696,10.617446,-4.214966,101.100006,-172.5,-25.500002,,,,,x,
1064523,0.37204492,11.296528,-8.677858,-0.259148,6.318638,-5.5335717,149.1,-148.5,-15.3,,,,,x,
1064543,0.35350248,13.029348,-8.181399,-1.3414719,8.818654,-4.123502,132.3,-153.3,-15.900001,,,,,x,
1064585,-1.8913281,11.606366,-7.275213,-2.416174,9.131156,-7.797306,149.1,-138.90001,-12.900001,,,,,x,
1064625,-2.6204643,14.134717,-7.5838547,-0.95274997,14.184542,-0.67835796,156.3,-148.5,-11.700001,,,,,x,
1064647,-2.5486872,14.681419,-7.634697,-1.71495,11.73788,-1.722572,156.3,-143.70001,-8.700001,,,,,x,
1064689,-4.968774,13.602967,-5.3665385,-2.17227,12.637276,-2.614346,149.1,-143.70001,-12.3,,,,,x,
1064709,-4.627832,13.932544,-6.229061,-1.036592,14.260761,-1.928366,153.90001,-131.70001,-4.5,,,,,x,
1064731,-3.6797755,15.713216,-5.9904017,-3.513742,3.0488,-1.48629,158.70001,-146.1,-13.500001,,,,,x,
1064751,-5.882736,13.893665,-3.5595489,-4.832348,2.2789779,-3.155508,149.1,-134.1,-14.700001,,,,,x,
1064774,-4.6756835,14.071314,-4.3502936,-1.821658,5.5335717,0.92226195,163.5,-141.3,-8.700001,,,,,x,
1064794,-4.506409,13.710035,-3.3286657,-5.4116197,1.94361,1.56251,144.3,-148.5,-8.1,,,,,x,
1064814,-3.6241484,13.044302,-2.6880546,-5.327778,0.46494198,2.652456,144.3,-155.70001,-12.3,,,,,x,
1064834,-3.530838,12.677042,-2.1748478,-5.6097918,-0.160062,3.132642,149.1,-138.90001,-12.900001,,,,,x,
1064854,-3.4034336,11.936542,-1.2202116,-6.227174,0.213416,3.7881339,141.90001,-155.70001,-10.5,,,,,x,
1064878,-3.602017,10.285666,-1.5988362,-4.771372,1.471046,3.2622159,125.100006,-148.5,-9.900001,,,,,x,
1064898,-3.1462321,10.029063,-1.4241784,-4.618932,-1.8445239,3.7042918,134.70001,-170.1,-20.7,,,,,x,
1064938,-2.179035,7.318877,0.51141226,-3.871976,-6.036624,3.612828,117.9,-167.70001,-14.700001,,,,,x,
1064958,-1.5384238,7.6693892,0.7010236,-3.955818,-4.824726,6.806446,129.90001,-165.3,-24.300001,,,,,x,
1064980,-1.2555021,7.245306,0.28710863,-3.879598,-3.88722,6.8826656,120.3,-162.90001,-17.1,,,,,x,
1065000,-0.60232997,6.6752753,-0.09510473,-2.157026,-4.519846,6.204308,117.9,-160.5,-19.5,,,,,x,
1065020,-0.26079035,6.1776204,-0.24464047,-1.150922,-6.112844,5.701256,115.50001,-167.70001,-25.500002,,,,,x,
1065042,0.067590155,5.5453835,-0.16448931,-0.967994,-6.753092,4.9466777,103.50001,-170.1,-26.7,,,,,x,
1065062,0.49346796,4.9861197,-0.719566,-0.137196,-6.654006,4.733262,110.700005,-162.90001,-16.5,,,,,x,
1065082,0.8230447,5.2810044,-1.0999849,-0.41158798,-7.766818,5.25918,98.700005,-172.5,-28.500002,,,,,x,
1065102,0.59515226,4.838977,-0.9953099,-0.861286,-8.544262,4.0472817,89.100006,-170.1,-24.300001,,,,,x,
1065142,2.158698,4.6080933,-0.4133168,-0.899396,-8.902495,4.283564,96.3,-174.90001,-23.7,,,,,x,
1065184,2.0845282,4.0386615,-1.1813323,1.227142,-5.4421077,2.55337,81.9,-172.5,-28.500002,,,,,x,
1065204,2.5361261,4.773181,-1.1944915,0.998482,-5.571682,4.070148,81.9,-174.90001,-23.7,,,,,x,
1065244,3.1426432,5.9138393,-2.0031807,0.891774,-1.692084,2.7439198,65.100006,-167.70001,-12.900001,,,,,x,
1065284,4.287489,7.2937555,-2.26756,0.64787,-1.9131219,2.2332458,62.7,-165.3,-21.900002,,,,,,
1065365,3.9800434,8.491238,-3.4883697,1.044214,1.234764,-1.4024479,69.9,-172.5,-21.900002,,,,,,
1065385,3.2407386,8.19396,-3.2018592,1.059458,0.45731997,-0.99086,60.300003,-182.1,-23.1,,,,,,
1065425,2.6031182,8.507986,-3.075053,1.3414719,0.11432999,-1.56251,69.9,-172.5,-20.1,,,,,x,
1065448,2.5504816,9.652233,-3.0116498,1.173788,1.5244,-1.234764,72.3,-167.70001,-23.7,,,,,x,
1065468,2.0193307,8.874049,-3.0020795,0.26677,1.94361,-2.332332,74.700005,-162.90001,-23.7,,,,,x,
1065533,1.5348349,9.171925,-2.9434617,-0.129574,1.326228,-0.60976,77.100006,-177.3,-19.5,,,,,x,
1065553,1.5473958,9.317273,-2.807683,-0.510674,1.1204339,-0.525918,72.3,-179.70001,-24.300001,,,,,x,
1065597,1.522872,10.371201,-2.2896912,-0.80030996,0.442076,-0.480186,67.5,-167.70001,-20.7,,,,,x,
1065637,0.7428936,9.783825,-1.6113971,-0.312502,-1.516778,-1.3414719,81.9,-179.70001,-26.1,,,,,x,
1065782,-0.07058087,4.334742,-0.3702505,-1.455802,-13.140327,1.204276,77.100006,-184.5,-27.300001,,,,,x,
1065802,0.95044917,4.676282,0.18961132,-1.501534,-16.135773,3.2317278,62.7,-182.1,-23.7,,,,,x,
1065842,2.0940986,2.5498836,0.8876442,-3.50612,-17.004683,1.082324,72.3,-167.70001,-30.900002,,,,,x,
1065862,2.292682,1.0916109,0.8978126,-3.407034,-15.411684,-0.129574,65.100006,-174.90001,-29.1,,,,,x,
1065885,3.518277,2.469134,-0.44800907,-0.41921,-11.913186,0.144818,77.100006,-182.1,-30.300001,,,,,x,
1065906,3.798806,4.606299,-1.2525114,1.29574,-8.925362,-0.289636,72.3,-170.1,-29.7,,,,,x,
1065968,1.6389117,6.8433537,-5.1900864,2.980202,2.2180018,-5.18296,79.5,-167.70001,-30.900002,,,,,x,
1066082,2.0402656,10.256357,-5.3904643,1.577754,0.975616,-6.722604,115.50001,-165.3,-20.7,,,,,x,
1066103,1.2818204,11.615338,-7.0772276,3.0488,11.135742,-6.8826656,108.3,-155.70001,-20.1,,,,,x,
1066143,-0.49167353,10.653524,-8.238821,0.80793196,11.105254,-8.42231,127.50001,-150.90001,-22.5,,,,,x,
1066184,-1.2064544,12.917496,-8.595314,1.75306,16.372055,-6.02138,132.3,-158.1,-26.1,,,,,x,
1066263,-2.7903368,13.82129,-7.873356,-0.365856,13.22417,-5.655524,151.5,-150.90001,-14.1,,,,,x,
1066284,-2.7927296,14.187353,-9.109717,0.19055,15.114426,-4.4055157,153.90001,-138.90001,-15.3,,,,,x,
1066326,-3.7264307,13.141201,-5.7433686,-4.108258,6.0442457,-5.274424,165.90001,-141.3,-20.1,,,,,x,
1066346,-4.280311,13.650819,-5.4837747,-1.33385,14.36747,-4.131124,163.5,-138.90001,-0.3,,,,,x,
1066366,-3.8927145,13.934339,-7.533611,-0.792688,14.573264,-4.314052,163.5,-134.1,-11.1,,,,,x,
1066386,-4.472315,12.040618,-6.2153034,-2.8048959,7.416206,-4.1921,163.5,-141.3,-14.700001,,,,,x,
1066410,-5.1781235,13.640651,-4.2599745,-3.445144,8.6204815,-0.830798,158.70001,-146.1,-11.1,,,,,x,
1066430,-5.024999,13.1035185,-5.692527,-1.166166,12.256176,-1.097568,161.1,-134.1,-10.5,,,,,x,
1066450,-4.359266,12.645939,-5.4197736,-2.385686,5.121984,-0.053354,144.3,-131.70001,-13.500001,,,,,x,
1066470,-4.321583,13.031741,-3.6175687,-4.176856,3.16313,1.56251,156.3,-148.5,-7.5000005,,,,,x,
1066511,-3.6833644,12.82598,-5.221788,-2.431418,7.042728,2.812518,158.70001,-126.9,-10.5,,,,,x,
1066531,-3.2335608,13.166922,-4.287489,-4.169234,0.320124,3.422278,137.1,-143.70001,-10.5,,,,,x,
1066551,-3.2850013,11.37967,-2.8645067,-5.266802,-0.83842,2.576236,146.70001,-146.1,-5.1000004,,,,,x,
1066571,-3.2407386,9.915416,-2.72813,-4.718018,-0.830798,3.12502,153.90001,-141.3,-17.7,,,,,x,
1066594,-2.2986634,9.94652,-2.2496157,-5.0381417,-3.2545938,4.169234,134.70001,-162.90001,-12.900001,,,,,x,
1066614,-2.4745176,9.222168,-0.8344094,-6.0137577,-5.60217,3.841488,132.3,-153.3,-18.900002,,,,,x,
1066634,-2.5289485,8.122782,-0.73990285,-5.061008,-2.378064,4.5274677,146.70001,-146.1,-11.1,,,,,x,
1066654,-2.513995,7.1406307,-1.7214555,-3.8262439,-0.960372,5.152472,122.700005,-153.3,-12.900001,,,,,x,
1066674,-2.1281927,6.559236,-2.0600045,-2.7058098,-4.618932,6.0137577,134.70001,-158.1,-23.7,,,,,x,
1066757,0.38640037,4.874267,-0.71657526,-3.3155699,-7.210412,5.79272,105.9,-160.5,-18.900002,,,,,x,
1066802,1.3559902,4.498035,-0.061608724,-1.8521459,-7.3476076,5.777476,84.3,-165.3,-18.900002,,,,,x,
1066823,1.4409264,5.1775255,-0.40374652,-1.4024479,-6.4939437,5.403998,86.700005,-170.1,-29.7,,,,,x,
1066863,2.7101858,6.6704903,-0.32180092,0.045732,-8.254626,5.091496,72.3,-167.70001,-27.300001,,,,,x,
1066883,3.0606976,7.266839,0.40015766,-0.480186,-7.01224,3.650938,79.5,-172.5,-22.5,,,,,x,
1066903,2.9069748,6.835578,-0.055029154,-0.083841994,-4.222588,1.8597679,79.5,-174.90001,-23.1,,,,,x,
1066923,2.7753835,6.2996416,-0.40853164,0.49543,-3.4299,0.891774,84.3,-177.3,-23.7,,,,,x,
1066943,2.6258476,5.9796352,-0.84039086,1.3872039,-2.2865999,0.259148,62.7,-174.90001,-23.1,,,,,x,
1066963,2.8345995,6.677668,-1.6161823,1.1051899,-2.7515419,1.3643379,72.3,-172.5,-26.1,,,,,x,
1066983,2.9805465,6.885822,-1.5755086,0.251526,-2.423796,1.3643379,81.9,-179.70001,-30.900002,,,,,x,
1067003,3.7497582,7.4307303,-2.1634831,-0.129574,0.83842,0.541162,72.3,-182.1,-20.7,,,,,x,
1067026,4.282704,7.9134316,-3.3352451,0.83842,2.339954,-0.068598,79.5,-172.5,-21.300001,,,,,x,
1067069,3.7126734,9.3130865,-3.8586204,0.739334,1.013726,0.19055,60.300003,-162.90001,-18.900002,,,,,,
1067104,3.3298619,9.249683,-3.5679228,0.312502,-0.487808,-0.81555396,67.5,-179.70001,-15.3,,,,,x,
1067124,3.1109416,8.535501,-3.4118075,0.57164997,-0.053354,-1.280496,74.700005,-160.5,-26.7,,,,,x,
1067164,2.5504816,8.588137,-2.564239,0.198172,-0.792688,-0.213416,69.9,-167.70001,-26.1,,,,,x,
1067187,2.317804,8.83517,-3.0032759,0.144818,1.158544,-0.884152,72.3,-174.90001,-23.7,,,,,x,
1067230,1.8775707,8.59352,-2.5708184,0.221038,0.41921,-1.4024479,77.100006,-165.3,-23.1,,,,,x,
1067292,1.5222739,9.5296135,-2.5409114,-0.03811,1.3795819,-1.204276,72.3,-179.70001,-23.1,,,,,x,
1067359,0.8625222,9.523034,-2.375824,0.160062,1.432936,-0.82317597,74.700005,-182.1,-26.7,,,,,x,
1067522,1.083835,6.3492875,0.18901318,-1.577754,-14.359848,1.98172,72.3,-167.70001,-26.7,,,,,x,
1067542,1.5264609,4.7157593,0.24105161,-2.035074,-16.821754,1.3414719,79.5,-177.3,-22.5,,,,,x,
1067582,2.564239,2.710784,1.4522911,-2.6905658,-16.570229,2.446662,69.9,-167.70001,-27.300001,,,,,x,
1067602,2.9548264,3.4147983,0.5586655,-2.05794,-14.573264,2.47715,65.100006,-184.5,-27.900002,,,,,x,
1067626,3.9591084,3.3669467,0.2685662,-1.310984,-12.126602,0.091464,74.700005,-182.1,-33.300003,,,,,x,
1067646,3.7437768,4.245021,-0.89183116,-0.602138,-8.07932,-1.242386,67.5,-170.1,-24.900002,,,,,x,
1067706,2.6976247,4.955016,-3.0140424,-0.30488,-2.43904,-4.0625257,79.5,-167.70001,-22.5,,,,,x,
1067824,1.0455539,10.83536,-7.555742,5.190582,13.49094,-6.410102,110.700005,-174.90001,-31.500002,,,,,x,
1067845,1.041965,11.989178,-8.65154,4.0320377,13.094596,-7.728708,129.90001,-160.5,-24.900002,,,,,x,
1067885,-0.5909653,10.465708,-6.873261,-0.259148,10.243968,-9.855246,137.1,-158.1,-20.7,,,,,x,
1067908,-1.2214079,10.10742,-8.134147,2.637212,15.632722,-8.567128,134.70001,-146.1,-23.1,,,,,x,
1067928,-0.7267437,12.160845,-9.49552,3.39179,17.355293,-5.327778,134.70001,-155.70001,-17.1,,,,,x,
1067948,0.20097604,14.991258,-9.599597,0.49543,12.461969,-5.0991178,156.3,-153.3,-14.700001,,,,,x,
1068008,-3.0487347,12.9850855,-9.214991,0.426832,13.818686,-5.9985137,158.70001,-138.90001,-18.900002,,,,,x,
1068048,-2.01634,14.769944,-7.1340513,-2.530504,6.3719916,-3.902464,156.3,-134.1,-18.300001,,,,,x,
1068068,-4.600916,12.632181,-5.539402,-2.583858,9.618964,-5.045764,163.5,-136.5,-7.5000005,,,,,x,
1068088,-5.0190177,13.151369,-7.296148,0.33536798,14.390336,-1.471046,163.5,-131.70001,-14.700001,,,,,x,
1068108,-4.5201664,14.768748,-3.9339864,-6.318638,2.40093,-2.2713559,163.5,-141.3,-14.1,,,,,x,
1068128,-6.0591884,12.425822,-3.3914707,-1.699706,14.093078,-1.3490939,168.3,-134.1,-16.5,,,,,x,
1068148,-5.141637,12.840335,-5.468223,1.326228,18.429996,0.525918,168.3,-141.3,-13.500001,,,,,x,
1068169,-3.660635,14.163427,-7.837467,1.6234859,12.675385,2.2332458,153.90001,-134.1,-8.700001,,,,,x,
1068189,-3.1049602,15.278964,-6.182406,-1.280496,2.51526,2.164648,151.5,-146.1,-8.700001,,,,,x,
1068211,-3.6534572,14.676036,-4.3903694,-2.469528,4.580822,-0.160062,149.1,-143.70001,-17.1,,,,,x,
1068231,-3.7449732,12.670463,-5.1769276,-1.920744,8.010722,0.365856,146.70001,-134.1,-5.7000003,,,,,x,
1068253,-3.322086,13.392421,-5.9587,-2.088428,5.4268637,3.01069,146.70001,-143.70001,-12.900001,,,,,x,
1068274,-3.1719522,13.101126,-4.773181,-3.079288,1.928366,3.490876,134.70001,-150.90001,-7.5000005,,,,,x,
1068362,-1.0174412,9.168336,-2.7054007,-5.205826,-2.073184,4.794238,117.9,-146.1,-5.1000004,,,,,x,
1068382,-0.9283179,9.110913,-1.9206371,-6.272906,-0.853664,4.5274677,132.3,-158.1,-18.900002,,,,,x,
1068422,-1.3063443,7.430132,-2.393768,-5.914672,-0.045732,3.3155699,117.9,-162.90001,-12.3,,,,,x,
1068442,-1.3613734,7.083209,-1.2142302,-6.78358,-4.0625257,4.390272,110.700005,-182.1,-23.1,,,,,x,
1068486,-0.93609375,6.213509,-1.1771454,-5.266802,-2.050318,4.4512477,103.50001,-167.70001,-22.5,,,,,x,
1068507,-0.80689484,5.6835546,-1.2961758,-4.809482,-4.9466777,3.986306,103.50001,-167.70001,-18.900002,,,,,x,
1068527,-0.41271865,4.8144526,-0.71597713,-3.8262439,-6.996996,3.864354,96.3,-170.1,-21.300001,,,,,x,
1068547,0.64240557,5.509495,-0.53414166,-3.170752,-7.759196,5.0228977,96.3,-167.70001,-25.500002,,,,,x,
1068571,0.681883,5.767893,-0.6573591,-3.117398,-6.425346,3.948196,96.3,-167.70001,-21.900002,,,,,x,
1068591,0.6471907,5.0770373,-1.0437595,-2.378064,-6.753092,2.843006,89.100006,-186.90001,-25.500002,,,,,x,
1068611,1.1657807,4.857519,-0.9025977,-1.75306,-8.429932,3.39179,77.100006,-174.90001,-27.900002,,,,,x,
1068654,1.9660959,5.7720795,-0.6830793,-1.471046,-8.201272,4.657042,77.100006,-167.70001,-32.100002,,,,,x,
1068674,2.4547787,6.425252,-0.36905423,-1.326228,-8.696702,4.30643,72.3,-170.1,-24.900002,,,,,x,
1068694,2.5965385,6.3905597,-0.11364716,-1.570132,-7.835416,3.2317278,72.3,-172.5,-26.1,,,,,x,
1068714,2.7753835,5.7248263,-0.2548089,-1.280496,-6.638762,2.347576,65.100006,-177.3,-27.300001,,,,,x,
1068734,3.6121855,6.836176,-0.5664414,-0.365856,-6.394858,2.957336,60.300003,-186.90001,-30.300001,,,,,x,
1068776,3.9812396,6.538301,-0.7710063,0.045732,-4.413138,1.509156,60.300003,-174.90001,-28.500002,,,,,x,
1068836,4.681665,8.388357,-2.0312936,0.960372,1.6463519,-1.3948259,50.7,-172.5,-23.7,,,,,,
1068856,4.5757937,7.5072923,-2.7299244,2.179892,1.730194,-1.532022,67.5,-174.90001,-35.7,,,,,,
1068876,4.489063,7.844645,-2.7538502,1.8597679,0.487808,-0.792688,67.5,-172.5,-28.500002,,,,,,
1068900,4.543494,9.0110235,-3.061894,1.6006199,1.48629,-0.998482,60.300003,-162.90001,-27.900002,,,,,,
1068962,3.9064717,8.399722,-2.0857246,0.92226195,0.396344,-2.2789779,65.100006,-179.70001,-20.1,,,,,,
1069027,3.3914707,9.948912,-2.6742973,1.75306,1.074702,-0.243904,67.5,-179.70001,-30.900002,,,,,,
1069069,2.2394474,9.329236,-2.012153,0.23628199,1.29574,-0.46494198,69.9,-172.5,-23.7,,,,,,
1069199,-0.5209825,8.826198,-2.8226366,0.67073596,2.065562,-1.684462,79.5,-186.90001,-21.900002,,,,,,
1069259,-0.004785144,9.493127,-2.9889205,1.1204339,-0.510674,0.388722,60.300003,-179.70001,-20.7,,,,,,
1069281,-0.13398403,8.402114,-2.9171433,1.013726,-1.1432999,-0.243904,69.9,-184.5,-23.1,,,,,,
1069321,0.38939106,8.007938,-2.4876766,0.106708,-2.461906,0.754578,67.5,-165.3,-22.5,,,,,,
1069384,1.3829066,9.155176,-1.9738718,-1.189032,-0.41158798,-0.541162,77.100006,-167.70001,-17.1,,,,,,
1069404,0.9618139,8.324954,-2.0169382,-1.455802,1.288118,-1.730194,72.3,-172.5,-18.900002,,,,,,
1069446,1.8614209,9.326843,-1.9834421,-0.518296,0.56402797,-1.272874,77.100006,-165.3,-23.1,,,,,,
1069562,3.117521,9.64685,-2.8519456,-1.1204339,1.806414,-1.44818,89.100006,-170.1,-24.900002,,,,,,
1069582,2.7753835,9.657019,-3.1683633,-1.036592,2.2865999,-1.6158639,79.5,-172.5,-16.5,,,,,,
1069623,0.9606176,6.7823434,-3.2431312,0.655492,0.396344,-1.661596,93.9,-174.90001,-23.7,,,,,,
1069643,1.4481041,7.497722,-2.8968065,0.81555396,-1.532022,0.60976,79.5,-184.5,-24.900002,,,,,,
1069663,1.3266811,7.493535,-2.1581,0.030488,-1.6539739,0.625004,91.5,-174.90001,-26.7,,,,,,
1069685,1.9702829,8.487649,-2.5008357,0.259148,-0.617382,1.211898,81.9,-162.90001,-16.5,,,,,,
1069705,2.5235653,10.527316,-2.2514102,-0.289636,-1.41007,1.044214,84.3,-174.90001,-16.5,,,,,,
1069745,1.8680005,8.659316,-2.0988836,-0.60976,0.80030996,-1.722572,89.100006,-165.3,-24.300001,,,,,,
1069765,1.5276572,9.107325,-1.8004104,-0.983238,1.074702,-0.853664,93.9,-177.3,-25.500002,,,,,,
1069785,1.0862277,9.503296,-2.4410214,-0.625004,2.500016,-0.55640596,72.3,-165.3,-22.5,,,,,,
1069805,1.6251545,10.651132,-2.8920212,0.47256398,2.2865999,-0.23628199,96.3,-174.90001,-20.7,,,,,,
1069825,1.4708335,10.282676,-2.7394948,0.213416,1.265252,-1.3872039,89.100006,-162.90001,-24.900002,,,,,,
1069848,1.0557224,8.455947,-2.774187,0.907018,1.707328,-1.692084,81.9,-162.90001,-23.1,,,,,,
1069868,1.0114597,8.817823,-2.8914232,1.3567159,0.663114,-0.068598,86.700005,-170.1,-17.7,,,,,,
1069892,1.2961758,9.694701,-2.8232348,0.785066,0.92988396,-0.099086,103.50001,-167.70001,-21.900002,,,,,,
1069912,1.0802462,9.026576,-2.8686936,0.137196,0.861286,-0.434454,89.100006,-172.5,-20.7,,,,,,
1069932,1.0551242,8.939247,-2.7305226,-0.26677,0.41921,0.007622,98.700005,-160.5,-23.7,,,,,,
1069956,1.0569186,9.072633,-2.615081,-0.594516,0.16768399,0.20579399,101.100006,-174.90001,-11.1,,,,,,
1069976,1.0652926,8.994874,-2.4619565,-0.907018,0.053354,0.213416,81.9,-160.5,-18.900002,,,,,,
1070039,1.3565882,9.033753,-1.9224315,-0.663114,0.106708,-0.30488,91.5,-170.1,-11.700001,,,,,,
1070059,1.3960657,8.953004,-2.1467352,-0.426832,0.198172,-0.274392,93.9,-167.70001,-26.7,,,,,,
1070080,1.3410366,8.865077,-2.2370548,0.015244,-0.022866,-0.19055,81.9,-177.3,-17.7,,,,,,
1070100,1.4068322,9.65941,-2.4284604,0.449698,-0.449698,0.007622,84.3,-174.90001,-21.300001,,,,,,
1070120,1.3344569,9.1946535,-2.3782165,0.23628199,-0.358234,-0.586894,91.5,-158.1,-27.900002,,,,,,
1070143,1.2429411,9.242505,-2.459564,-0.243904,-0.34298998,-0.518296,79.5,-167.70001,-12.3,,,,,,
1070163,1.2249968,9.172523,-2.8896286,-0.060976,-0.07622,-0.182928,103.50001,-177.3,-23.7,,,,,x,
1070184,1.0401707,9.732385,-2.9984908,-0.053354,-0.853664,-0.022866,84.3,-165.3,-23.1,,,,,x,
1070204,1.1992767,9.46322,-2.8501513,-0.33536798,-1.21952,-0.35061198,89.100006,-174.90001,-20.7,,,,,x,
1070226,1.0898165,9.018202,-2.6497734,-0.586894,-1.234764,-0.23628199,105.9,-165.3,-24.300001,,,,,x,
1070246,1.1986785,9.049305,-2.5289485,-0.617382,-0.64787,0.106708,96.3,-160.5,-18.300001,,,,,x,
1070268,1.150827,9.050501,-2.589361,-0.396344,-0.160062,0.099086,84.3,-167.70001,-24.900002,,,,,x,
1070308,0.81048375,8.890199,-2.292084,-0.198172,-0.49543,0.358234,81.9,-174.90001,-12.900001,,,,,x,
1070403,0.51021594,7.1860895,0.09809545,-0.55640596,-6.311016,2.141782,77.100006,-177.3,-26.7,,,,,x,
1070422,0.23746276,6.2284627,0.27095875,-1.166166,-7.286632,1.554888,89.100006,-174.90001,-17.7,,,,,x,
1070464,0.96121573,5.5160747,0.96241206,-1.4024479,-11.943674,1.303362,84.3,-182.1,-17.1,,,,,x,
1070504,1.0216281,2.6701102,1.0892184,-1.196654,-11.760746,0.137196,84.3,-165.3,-24.900002,,,,,x,
1070526,1.598238,2.5277522,1.1669769,-0.182928,-11.92843,1.554888,86.700005,-172.5,-32.7,,,,,x,
1070567,2.6850638,3.2395422,0.24404234,-0.67835796,-8.26987,1.463424,81.9,-177.3,-26.7,,,,,x,
1070607,2.2358584,4.207338,-2.4422178,0.243904,-1.3795819,-0.28201398,77.100006,-174.90001,-27.900002,,,,,x,
1070765,1.6460894,9.831078,-7.320672,0.525918,2.7362978,-6.760714,105.9,-167.70001,-24.300001,,,,,x,
1070805,2.0115547,11.430512,-7.665202,1.8673899,12.088491,-5.0381417,105.9,-150.90001,-12.900001,,,,,x,
1070886,1.1944915,11.515449,-6.6597238,0.95274997,12.149467,-4.413138,125.100006,-150.90001,-15.3,,,,,x,
1070906,-0.0059814295,13.869141,-8.058781,0.480186,14.070211,-3.2927039,125.100006,-150.90001,-18.900002,,,,,x,
1070926,-0.5221788,13.561696,-7.5994062,-1.288118,8.048832,-6.341504,146.70001,-153.3,-23.1,,,,,x,
1070991,-2.2735415,16.65888,-8.123978,1.8978779,16.699802,-2.903982,137.1,-158.1,-26.1,,,,,x,
1071015,-3.4201815,14.579137,-7.527031,0.67073596,7.881148,-6.471078,158.70001,-143.70001,-12.900001,,,,,x,
1071035,-3.7336085,14.984677,-6.069357,-0.41921,5.9985137,-3.7347798,146.70001,-141.3,-14.700001,,,,,x,
1071055,-3.6163723,16.347248,-6.24222,-0.53354,9.809514,-3.018312,158.70001,-134.1,-14.1,,,,,x,
1071078,-2.6964285,15.457211,-6.25837,0.739334,1.783548,-4.76375,153.90001,-138.90001,-9.900001,,,,,x,
1071099,-4.426856,13.048489,-3.8747702,-1.303362,0.67073596,-4.61131,153.90001,-148.5,-11.1,,,,,x,
1071119,-4.0201187,14.025854,-3.4823885,-0.95274997,3.7424018,-1.150922,153.90001,-146.1,-11.1,,,,,x,
1071183,-5.099169,12.576554,-3.882546,-4.275942,2.812518,1.211898,163.5,-138.90001,-13.500001,,,,,x,
1071203,-4.1977673,11.486139,-2.9847333,-4.657042,0.983238,3.605206,144.3,-148.5,-3.3000002,,,,,x,
1071223,-2.970378,11.938933,-2.552874,-3.407034,0.739334,4.5731997,137.1,-143.70001,-8.700001,,,,,x,
1071243,-2.5032284,11.524421,-2.254999,-3.2164838,-0.259148,3.2698379,144.3,-148.5,-14.1,,,,,x,
1071263,-2.7622242,10.219871,-1.8997021,-3.7576458,-0.060976,2.7515419,129.90001,-138.90001,-12.3,,,,,x,
1071283,-2.8387866,9.807152,-2.6408012,-3.92533,1.33385,3.62045,146.70001,-148.5,-12.3,,,,,x,
1071304,-2.2944765,9.034949,-2.423077,-4.245454,-2.05794,3.940574,127.50001,-158.1,-10.5,,,,,x,
1071324,-2.1491277,8.109622,-1.1651825,-5.5183277,-3.7500238,4.054904,139.5,-158.1,-15.900001,,,,,x,
1071384,-1.2806242,5.4951396,-1.0353855,-2.964958,-3.3003259,4.169234,115.50001,-165.3,-26.7,,,,,x,
1071422,0.18662061,5.899484,-0.072973445,-2.469528,-5.403998,5.79272,103.50001,-162.90001,-16.5,,,,,x,
1071444,0.28890306,4.9095573,-0.65317214,-0.960372,-3.612828,4.5579557,122.700005,-170.1,-20.7,,,,,x,
1071489,1.2243986,5.150011,-1.0126561,-0.716468,-5.731744,5.495462,101.100006,-162.90001,-27.900002,,,,,x,
1071509,1.6287433,5.364146,-1.3153164,-0.602138,-5.617414,5.975648,101.100006,-177.3,-18.900002,,,,,x,
1071531,1.9942087,5.744565,-1.2782315,-1.006104,-5.846074,5.86894,84.3,-174.90001,-23.1,,,,,x,
1071551,1.8004104,5.383287,-1.300961,-1.021348,-5.129606,4.626554,81.9,-179.70001,-24.900002,,,,,x,
1071572,1.8835522,4.8664913,-1.7627274,-0.068598,-4.489358,3.597584,69.9,-160.5,-20.7,,,,,x,
1071612,3.0032759,5.7924166,-1.033591,0.503052,-6.394858,2.51526,74.700005,-162.90001,-23.1,,,,,x,
1071632,3.1934853,5.8295016,-1.2076507,0.518296,-5.434486,2.042696,84.3,-167.70001,-28.500002,,,,,x,
1071654,3.9794452,6.04902,-1.6891557,0.967994,-4.275942,1.471046,67.5,-177.3,-27.900002,,,,,x,
1071674,4.757031,7.32127,-1.4582726,0.33536798,-3.971062,2.09605,50.7,-170.1,-23.7,,,,,x,
1071694,4.974157,7.693913,-1.4654503,-0.967994,-1.554888,1.737816,69.9,-172.5,-23.7,,,,,x,
1071714,4.306629,7.7495403,-1.8165601,-0.998482,1.1204339,1.006104,72.3,-179.70001,-19.5,,,,,x,
1071734,3.4793978,7.701091,-2.5175838,0.19055,2.7896519,-0.34298998,72.3,-167.70001,-24.900002,,,,,x,
1071758,3.2012613,8.228055,-3.2401404,1.25763,1.798792,-0.81555396,62.7,-174.90001,-23.7,,,,,,
1071778,3.2359536,9.116297,-3.0642865,1.18141,0.045732,-0.87653,72.3,-177.3,-20.1,,,,,,
1071798,3.383695,10.087083,-2.9189377,1.570132,0.396344,-1.318606,60.300003,-172.5,-17.7,,,,,,
1071881,2.1999698,9.397425,-3.0798383,0.67835796,-0.716468,0.15244,72.3,-165.3,-18.900002,,,,,,
1071902,2.338141,9.557727,-3.1785316,-0.03811,1.1432999,-0.213416,62.7,-172.5,-20.1,,,,,,
1071923,2.0420601,9.387854,-3.0660808,-0.739334,1.06708,-0.861286,69.9,-177.3,-20.1,,,,,,
1071964,1.6395099,8.614455,-2.68626,-1.5244,0.93750596,-1.25763,74.700005,-177.3,-21.900002,,,,,x,
1071987,1.527059,8.191568,-2.3686461,-1.661596,0.17530599,-0.640248,77.100006,-167.70001,-19.5,,,,,x,
1072008,1.6837724,9.00923,-2.1993718,-1.318606,0.35061198,0.72409,72.3,-167.70001,-17.7,,,,,x,
1072032,1.3858973,8.790309,-2.1275945,-0.87653,-0.015244,0.243904,72.3,-179.70001,-28.500002,,,,,x,
1072092,1.5880696,8.908143,-2.280719,-0.015244,-0.243904,-0.40396598,77.100006,-172.5,-18.900002,,,,,x,
1072112,1.5767049,9.828686,-2.271149,0.40396598,-0.94512796,0.41158798,67.5,-179.70001,-20.1,,,,,x,
1072132,1.4552819,10.508176,-1.8691968,-0.221038,-1.920744,0.442076,69.9,-165.3,-23.7,,,,,x,
1072154,1.2662686,9.661205,-1.4421227,-0.480186,-1.3719599,-0.541162,74.700005,-174.90001,-21.300001,,,,,x,
1072194,0.9390845,9.162354,-0.89542,-0.884152,-3.155508,0.41921,81.9,-167.70001,-17.7,,,,,x,
1072257,0.3295768,6.889411,0.98514146,-0.99086,-8.750056,0.3811,79.5,-174.90001,-24.900002,,,,,x,
1072323,1.074863,2.9673872,1.1496308,0.213416,-14.032102,-0.7622,81.9,-179.70001,-24.900002,,,,,x,
1072364,2.9769576,3.2826085,0.619078,0.49543,-13.368988,2.652456,72.3,-177.3,-20.1,,,,,x,
1072407,3.0977824,3.7533472,-1.5234702,0.312502,-4.817104,-1.6082419,79.5,-177.3,-26.7,,,,,x,
1072504,1.6550616,6.78653,-5.282799,1.074702,2.637212,-3.528986,81.9,-167.70001,-22.5,,,,,x,
1072524,2.2514102,8.863282,-6.175228,2.599102,5.8918056,-3.4299,98.700005,-162.90001,-20.7,,,,,x,
1072564,0.6208724,8.573183,-7.035956,2.599102,5.18296,-6.204308,91.5,-158.1,-12.900001,,,,,x,
1072584,1.4702355,10.810238,-7.187884,1.928366,4.207344,-4.984788,101.100006,-158.1,-19.5,,,,,x,
1072607,0.44442022,10.564402,-7.413982,3.8033779,10.312566,-5.746988,105.9,-162.90001,-25.500002,,,,,x,
1072647,0.3714468,11.557319,-7.489348,0.312502,5.0991178,-7.896392,125.100006,-148.5,-12.900001,,,,,x,
1072765,-0.7177716,10.359238,-8.584548,4.352162,11.997027,-4.9924097,120.3,-136.5,-9.900001,,,,,x,
1072802,-0.19439647,14.207092,-9.240711,2.7134318,12.698252,-2.2332458,113.100006,-143.70001,-8.700001,,,,,x,
1072845,-0.6573591,12.280474,-8.849525,-0.106708,8.795788,-3.7881339,122.700005,-138.90001,-1.5,,,,,x,
1072865,-1.0599093,13.690894,-7.9630775,-2.2256238,7.256144,-1.760682,122.700005,-143.70001,-2.7,,,,,x,
1072886,-0.95702875,15.059445,-7.297942,-2.7210538,6.36437,-3.422278,134.70001,-136.5,-6.9,,,,,x,
1072906,-1.8470654,12.776932,-6.614863,-3.041178,6.128088,-5.0686297,129.90001,-129.3,-1.5,,,,,x,
1072966,-1.6227618,13.003628,-6.3768024,-2.2103798,3.8262439,-1.79117,127.50001,-141.3,-6.3,,,,,x,
1073120,-0.91276616,9.5661,-3.9417622,-4.4360037,-3.971062,2.301844,120.3,-146.1,-12.900001,,,,,x,
1073166,-0.80749303,9.590625,-2.3626647,-5.114362,1.8369019,2.347576,120.3,-155.70001,-12.900001,,,,,x,
1073187,-1.1621917,8.845937,-2.9183395,-4.679908,-0.022866,2.7972739,105.9,-155.70001,-12.3,,,,,x,
1073207,-1.5025351,8.670082,-1.9762644,-5.5335717,-3.498498,3.6738038,105.9,-150.90001,-8.700001,,,,,x,
1073271,-0.8649147,6.831989,-0.8134744,-5.434486,-5.663146,3.2012398,113.100006,-160.5,-11.700001,,,,,x,
1073291,-0.84278345,6.5048046,-0.35469878,-5.10674,-5.731744,3.993928,93.9,-179.70001,-19.5,,,,,x,
1073311,-0.6196761,6.0514126,-0.49466425,-4.72564,-5.03052,4.214966,96.3,-170.1,-18.900002,,,,,x,
1073345,-0.18542433,5.099767,-0.90798104,-3.140264,-6.51681,4.565578,86.700005,-170.1,-18.900002,,,,,x,
1073365,0.3050529,4.831799,-0.6591536,-2.576236,-8.071698,4.489358,79.5,-172.5,-23.1,,,,,x,
1073405,2.234662,6.736884,-0.4635608,-2.6677,-8.064075,4.61131,72.3,-177.3,-26.7,,,,,x,
1073428,2.5211725,6.8206244,-0.5891708,-3.1859958,-7.01224,3.12502,72.3,-172.5,-19.5,,,,,,
1073448,2.5558648,6.1524987,-0.7309307,-3.109776,-6.410102,2.187514,67.5,-172.5,-27.300001,,,,,,
1073468,2.5935478,5.904269,-0.7339214,-2.7515419,-6.471078,2.065562,81.9,-165.3,-17.1,,,,,,
1073488,3.075053,6.6489573,-0.50363636,-2.179892,-6.8826656,2.301844,81.9,-174.90001,-27.300001,,,,,,
1073529,3.2712438,6.6160593,-0.08374002,-2.332332,-4.184478,-0.11432999,72.3,-174.90001,-29.1,,,,,,
1073549,3.2993567,6.0711513,-0.47133666,-1.539644,-2.888738,0.182928,69.9,-167.70001,-26.7,,,,,,
1073569,3.4321444,7.056891,-0.954038,-0.33536798,-1.8750119,1.1356779,72.3,-170.1,-32.7,,,,,,
1073590,3.2150185,7.6693892,-1.3685511,0.746956,-0.40396598,1.173788,65.100006,-177.3,-23.7,,,,,,
1073610,3.0983806,8.573781,-1.7453812,1.044214,-0.388722,0.81555396,72.3,-177.3,-31.500002,,,,,,
1073630,3.371732,9.408789,-2.0576117,1.204276,0.0,0.35061198,67.5,-162.90001,-26.1,,,,,,
1073652,2.9470503,8.77715,-2.14195,0.548784,0.007622,-1.303362,65.100006,-170.1,-28.500002,,,,,,
1073715,2.3160095,9.481762,-2.447003,1.3414719,-1.1280559,-1.8673899,67.5,-172.5,-27.300001,,,,,,
1073785,2.1096504,8.649147,-2.9434617,1.3414719,-1.29574,-0.91463995,69.9,-170.1,-25.500002,,,,,,
1074003,1.4947593,9.328638,-2.970378,0.34298998,0.64787,-0.41921,79.5,-179.70001,-20.1,,,,,,
1074023,1.5653402,8.9356575,-2.5947442,0.0,0.20579399,-0.53354,81.9,-174.90001,-29.7,,,,,,
1074063,1.8189528,9.565502,-2.272345,-0.487808,-0.22865999,-0.068598,81.9,-182.1,-18.900002,,,,,,
1074083,1.8715893,9.2054205,-2.1449406,-0.426832,-0.11432999,-0.106708,69.9,-174.90001,-23.7,,,,,,
1074107,1.6413043,8.5468645,-1.6706133,-0.92988396,-0.33536798,-0.198172,89.100006,-167.70001,-15.900001,,,,,,
1074127,1.9367869,9.335217,-1.7914382,-0.617382,0.20579399,0.327746,79.5,-172.5,-23.7,,,,,,
1074187,1.0730685,8.766383,-2.2579896,-0.16768399,-0.221038,-0.144818,86.700005,-174.90001,-20.7,,,,,,
1074207,1.4319543,8.907545,-2.0271065,-0.11432999,-0.655492,0.3811,74.700005,-189.3,-20.7,,,,,,
1074228,1.6646318,9.545764,-2.0145454,-0.365856,-0.312502,0.022866,81.9,-170.1,-27.900002,,,,,,
1074248,1.6365192,9.35376,-2.221503,-0.22865999,-0.007622,-0.23628199,65.100006,-170.1,-25.500002,,,,,,
1074268,1.4319543,9.031959,-2.3716369,0.16768399,-0.579272,-0.30488,69.9,-167.70001,-20.1,,,,,,
1074290,1.5378256,9.137232,-2.1724553,0.274392,-0.884152,-0.19055,74.700005,-162.90001,-26.7,,,,,,
1074330,1.4498986,9.115699,-2.2472231,0.251526,-0.083841994,-0.17530599,69.9,-167.70001,-22.5,,,,,,
1074418,1.0210301,9.3130865,-2.5373225,0.434454,0.160062,0.053354,81.9,-167.70001,-20.7,,,,,,
1074442,1.032993,9.770067,-2.4440122,0.7622,-0.56402797,0.358234,79.5,-167.70001,-19.5,,,,,x,
1074483,0.9893285,9.161756,-1.0120579,-0.846042,-3.2393498,-0.03811,86.700005,-165.3,-20.7,,,,,x,
1074507,0.24284604,6.866083,-0.35230622,-1.204276,-4.428382,0.259148,72.3,-172.5,-17.7,,,,,x,
1074527,-0.038879294,6.175228,0.026318291,-0.81555396,-6.150954,1.18141,77.100006,-170.1,-26.1,,,,,x,
1074547,0.2966789,6.23265,0.0849363,-0.442076,-7.743952,1.814036,77.100006,-170.1,-29.7,,,,,x,
1074567,0.8726906,6.1022544,0.36905423,-0.72409,-9.763782,1.509156,81.9,-158.1,-29.7,,,,,x,
1074587,0.55208594,4.523755,0.5126085,-1.6082419,-10.297321,0.56402797,77.100006,-186.90001,-26.1,,,,,x,
1074651,2.2693543,4.4543705,0.43544808,-2.2865999,-11.829344,2.484772,62.7,-172.5,-26.1,,,,,x,
1074673,2.2699525,4.4190803,-0.5999374,-2.141782,-9.786648,1.707328,57.9,-170.1,-33.9,,,,,x,
1074693,2.2538028,3.593643,-1.1849213,-1.996964,-8.437553,0.46494198,69.9,-174.90001,-29.1,,,,,x,
1074713,2.6192682,3.5972319,-2.4416196,-0.579272,-4.5427117,0.099086,69.9,-172.5,-27.900002,,,,,x,
1074733,4.087709,5.7972016,-4.155897,1.768304,-3.6661818,1.3719599,62.7,-165.3,-21.900002,,,,,x,
1074778,3.313114,5.82352,-4.430445,1.532022,0.442076,-2.576236,77.100006,-167.70001,-26.7,,,,,x,
1074800,2.8968065,8.014518,-5.1398425,1.570132,2.47715,-1.570132,69.9,-170.1,-21.300001,,,,,x,
1074820,2.6330254,9.575072,-5.944345,1.745438,4.634176,-3.498498,65.100006,-170.1,-30.300001,,,,,x,
1074840,2.284308,8.687428,-6.0430384,1.79117,1.3490939,-7.6524878,96.3,-177.3,-32.100002,,,,,x,
1074923,1.0084691,10.678048,-7.48875,2.8048959,10.129638,-7.179924,113.100006,-165.3,-21.900002,,,,,x,
1074963,0.6663313,12.630985,-7.3930473,0.891774,8.521396,-6.196686,113.100006,-174.90001,-16.5,,,,,x,
1074983,-0.5592637,11.864166,-7.4121876,1.760682,9.458901,-7.271388,125.100006,-160.5,-18.300001,,,,,x,
1075024,0.5329454,13.790784,-8.980518,1.059458,6.814068,-4.603688,120.3,-165.3,-13.500001,,,,,x,
1075044,-0.3911855,13.86974,-7.2399225,0.586894,4.9543,-4.9543,134.70001,-158.1,-17.7,,,,,x,
1075064,-1.5079185,14.970921,-7.601201,1.204276,10.625068,-4.702774,137.1,-167.70001,-18.900002,,,,,x,
1075085,-1.9314036,12.998843,-8.418264,0.80793196,10.000064,-6.257662,127.50001,-158.1,-21.300001,,,,,x,
1075105,-2.1575017,11.291145,-7.184295,-1.951232,5.5183277,-4.4360037,134.70001,-141.3,-14.1,,,,,x,
1075125,-1.3835047,14.071912,-5.7762666,-3.902464,3.498498,-0.663114,141.90001,-141.3,-11.1,,,,,x,
1075145,-1.3033535,14.543248,-4.2139173,-3.7805119,4.321674,-2.660078,153.90001,-155.70001,-17.7,,,,,x,
1075228,-2.2561953,14.070715,-2.9608078,-1.478668,7.911636,-2.2332458,151.5,-158.1,-18.300001,,,,,x,
1075322,-3.434537,13.577248,-3.8460593,-1.5244,4.199722,2.6829438,137.1,-155.70001,-14.700001,,,,,x,
1075382,-3.0277996,11.972429,-4.009352,-2.644834,3.323192,4.390272,129.90001,-153.3,-9.900001,,,,,x,
1075405,-2.5654352,11.809136,-3.1946816,-3.978684,-1.532022,5.121984,122.700005,-153.3,-15.900001,,,,,x,
1075425,-2.1634831,11.251667,-1.8757764,-4.862836,-3.62045,4.733262,117.9,-150.90001,-17.7,,,,,x,
1075445,-2.1933904,9.525427,-1.233969,-4.8857017,-3.147886,4.054904,122.700005,-150.90001,-20.7,,,,,x,
1075465,-2.1784368,8.696401,-1.2028655,-4.824726,-2.461906,6.257662,113.100006,-162.90001,-17.7,,,,,x,
1075485,-1.5545735,8.872254,-1.1286958,-5.7165,-2.644834,8.071698,117.9,-153.3,-21.900002,,,,,x,
1075505,-1.1992767,7.9116373,-1.0611056,-5.4421077,-3.4299,7.6372437,103.50001,-158.1,-20.1,,,,,x,
1075565,-0.16448931,5.4658303,-0.4163075,-3.2012398,-5.777476,3.650938,86.700005,-167.70001,-28.500002,,,,,x,
1075585,0.09809545,3.9854267,-0.70640683,-1.722572,-5.807964,3.018312,86.700005,-179.70001,-24.300001,,,,,x,
1075605,0.7901469,4.2276745,-0.7393047,-1.699706,-6.82169,5.3963757,81.9,-182.1,-26.7,,,,,x,
1075625,1.1580048,4.9562125,-0.7183697,-2.55337,-5.838452,6.143332,74.700005,-167.70001,-20.7,,,,,x,
1075645,1.1597992,3.953725,-1.276437,-2.141782,-4.199722,4.969544,60.300003,-184.5,-24.900002,,,,,x,
1075665,2.0025826,4.2934704,-1.7214555,-1.204276,-6.006136,6.181442,62.7,-172.5,-26.1,,,,,x,
1075685,2.874675,5.5639257,-0.677696,-1.730194,-7.134192,6.5701637,55.500004,-184.5,-30.900002,,,,,x,
1075709,3.3615634,6.0358605,-0.23447205,-2.164648,-5.076252,4.237832,57.9,-174.90001,-23.1,,,,,x,
1075730,3.5469878,4.4459968,-0.94327146,-0.327746,-3.3155699,2.2484899,48.300003,-167.70001,-28.500002,,,,,x,
1075750,3.9178364,5.1613755,-0.78895056,0.46494198,-4.23021,2.850628,33.9,-172.5,-18.900002,,,,,x,
1075812,4.247413,7.0724425,-1.4421227,1.8826339,-2.09605,-0.884152,33.9,-170.1,-25.500002,,,,,x,
1075832,4.259376,7.573088,-1.2925869,1.3490939,-2.36282,-1.227142,43.5,-186.90001,-28.500002,,,,,x,
1075852,3.777273,7.8500285,-2.065986,0.792688,0.198172,-2.378064,38.7,-182.1,-24.900002,,,,,,
1075872,3.2640662,7.6951094,-3.2736366,1.9131219,1.310984,-2.7667859,48.300003,-172.5,-26.7,,,,,,
1075935,3.0397625,8.48406,-3.9297993,0.632626,-1.074702,-1.9131219,50.7,-170.1,-22.5,,,,,,
1076164,1.9361888,8.883021,-2.4356382,0.487808,2.2103798,-1.036592,57.9,-172.5,-27.300001,,,,,,
1076206,1.953535,9.366919,-2.5654352,0.434454,1.8292799,-0.426832,77.100006,-182.1,-20.1,,,,,x,
1076305,0.96899164,9.657617,-2.5797906,-0.754578,0.34298998,-1.21952,65.100006,-177.3,-20.7,,,,,x,
1076340,1.0144504,8.977528,-1.6185749,-0.853664,-2.926848,0.289636,62.7,-177.3,-20.7,,,,,x,
1076401,-0.18482618,7.314092,-1.3446254,-3.16313,-3.2850819,-2.7591639,74.700005,-170.1,-24.300001,,,,,x,
1076441,0.30266035,6.98631,0.3744375,-2.6677,-11.387268,2.7058098,60.300003,-172.5,-24.300001,,,,,x,
1076467,1.1077608,4.640991,0.26497734,-2.827762,-12.309529,1.326228,67.5,-172.5,-26.7,,,,,x,
1076487,1.8195509,3.828115,0.9115699,-2.347576,-14.21503,2.355198,67.5,-170.1,-29.1,,,,,x,
1076527,3.1701577,3.915444,0.28172535,-2.141782,-12.431481,2.652456,60.300003,-174.90001,-30.900002,,,,,x,
1076547,3.8640037,4.8126583,-0.085534446,-1.6311079,-10.716532,1.737816,67.5,-182.1,-24.900002,,,,,x,
1076567,2.828618,3.3035436,-0.49107537,-1.3719599,-8.277492,-1.310984,60.300003,-179.70001,-29.1,,,,,x,
1076587,3.2957678,3.2969642,-1.5168905,0.274392,-6.4177237,-1.227142,57.9,-182.1,-27.300001,,,,,x,
1076610,3.2945714,5.6327124,-1.8680005,0.548784,-5.3354,-0.449698,62.7,-172.5,-27.900002,,,,,x,
1076672,2.4021423,6.333138,-4.3951545,2.073184,2.6677,-2.606724,72.3,-160.5,-28.500002,,,,,x,
1076702,3.2311683,9.176709,-4.4442024,1.768304,3.041178,-4.260698,81.9,-174.90001,-25.500002,,,,,x,
1076722,2.3883848,9.368115,-5.5053077,3.88722,7.9802337,-6.318638,72.3,-170.1,-23.1,,,,,x,
1076762,1.4702355,8.443386,-7.116705,3.16313,1.996964,-5.5488157,72.3,-170.1,-26.1,,,,,x,
1076802,2.2232974,12.504777,-6.3917556,2.164648,10.800374,-5.83083,103.50001,-170.1,-27.300001,,,,,x,
1076822,1.430758,9.217383,-8.004948,3.483254,10.70891,-9.093046,110.700005,-162.90001,-21.300001,,,,,x,
1076887,0.61429286,11.575861,-7.467217,3.528986,15.122047,-4.923812,108.3,-172.5,-22.5,,,,,x,
1076929,0.723753,11.718817,-6.4150834,-1.56251,4.0625257,-4.390272,125.100006,-158.1,-20.7,,,,,x,
1077079,-3.007463,15.277768,-4.4872684,-2.446662,2.484772,-3.064044,139.5,-138.90001,-14.1,,,,,x,
1077123,-3.6528592,13.476759,-4.527942,0.34298998,11.654037,-4.817104,137.1,-138.90001,-20.1,,,,,x,
1077143,-3.1785316,13.793177,-5.921017,0.19055,8.452798,-0.967994,146.70001,-148.5,-8.700001,,,,,x,
1077183,-2.526556,13.5569105,-3.4614534,-3.2088618,-0.30488,0.297258,137.1,-143.70001,-13.500001,,,,,x,
1077242,-2.5869684,13.007217,-2.8758714,-3.58234,-3.1859958,0.640248,139.5,-153.3,-16.5,,,,,x,
1077262,-3.1139324,11.255257,-2.0552192,-3.88722,-2.660078,-0.55640596,137.1,-148.5,-14.1,,,,,x,
1077302,-2.7574391,11.499897,-2.4039366,-5.114362,-2.408552,3.437522,137.1,-160.5,-9.3,,,,,x,
1077347,-2.1748478,9.1192875,0.30266035,-4.76375,-4.146368,2.469528,129.90001,-167.70001,-20.7,,,,,x,
1077367,-2.1347723,8.390151,-0.38520408,-3.140264,-0.327746,2.93447,122.700005,-162.90001,-16.5,,,,,x,
1077387,-2.0737617,7.861393,-0.67171454,-2.538126,-1.768304,3.338436,127.50001,-158.1,-21.900002,,,,,x,
1077427,-0.96899164,6.1596766,-0.117236026,-0.655492,-3.917708,4.176856,120.3,-165.3,-26.7,,,,,x,
1077469,0.50423455,6.932477,-0.18063918,-0.830798,-2.538126,6.806446,103.50001,-162.90001,-16.5,,,,,,
1077489,0.44442022,6.936664,-1.1292939,-0.480186,-1.1356779,6.0747337,103.50001,-179.70001,-28.500002,,,,,,
1077509,0.5885727,5.927597,-1.4469079,-0.007622,-2.05794,5.205826,86.700005,-165.3,-17.7,,,,,,
1077532,1.3559902,6.8086615,-1.0311985,-0.548784,-5.320156,5.343022,86.700005,-182.1,-21.300001,,,,,,
1077592,1.9654979,6.2637534,-1.1221162,-1.280496,-6.333882,1.280496,86.700005,-186.90001,-27.300001,,,,,,
1077612,1.6329303,4.7923217,-0.794932,-1.288118,-5.266802,-0.396344,84.3,-170.1,-26.7,,,,,,
1077634,2.0438545,4.8706784,-1.2806242,-0.46494198,-4.794238,1.158544,86.700005,-172.5,-24.900002,,,,,,
1077654,2.2645693,5.995187,-1.3673549,-0.83842,-4.30643,1.722572,72.3,-172.5,-22.5,,,,,,
1077716,3.5338287,7.0772276,-1.3763269,-0.625004,-4.504602,2.179892,79.5,-170.1,-18.300001,,,,,,
1077807,3.3190954,8.713747,-2.2532046,0.891774,2.355198,0.655492,67.5,-165.3,-32.100002,,,,,,
1077965,1.945759,9.100745,-2.7293265,0.160062,1.051836,-0.137196,84.3,-162.90001,-32.7,,,,,x,
1077985,1.8578321,8.621633,-2.8543382,0.106708,1.928366,-0.56402797,79.5,-177.3,-23.7,,,,,x,
1078027,1.9242259,8.57438,-2.7670095,0.22865999,1.013726,0.320124,74.700005,-160.5,-21.300001,,,,,x,
1078067,1.631136,9.268226,-2.4547787,-0.198172,0.297258,0.426832,72.3,-174.90001,-20.7,,,,,x,
1078087,1.3206997,9.317273,-2.0629952,-0.022866,-0.891774,0.80793196,72.3,-170.1,-20.7,,,,,x,
1078107,1.518685,10.371799,-1.9320018,0.030488,-1.478668,1.21952,74.700005,-162.90001,-18.300001,,,,,x,
1078150,0.04067372,9.209607,-1.4134119,-1.79117,-2.36282,-1.036592,79.5,-179.70001,-27.300001,,,,,x,
1078206,0.029907148,7.86558,-0.41212052,-1.775926,-7.4085836,1.935988,89.100006,-165.3,-22.5,,,,,x,
1078248,0.6794904,5.8336883,0.14594689,-1.41007,-11.821722,1.417692,74.700005,-172.5,-26.7,,,,,x,
1078268,1.0162449,4.061391,0.91994387,-1.935988,-14.2836275,1.21952,72.3,-160.5,-27.300001,,,,,x,
1078288,1.5749104,3.7001123,1.3535975,-2.301844,-13.582404,2.538126,72.3,-170.1,-18.900002,,,,,x,
1078329,1.7746902,2.8483567,0.7901469,-1.3872039,-12.340017,0.67073596,69.9,-160.5,-29.7,,,,,x,
1078505,1.4451134,9.104933,-8.673073,4.5884438,9.352194,-7.5915117,91.5,-162.90001,-24.300001,,,,,x,
1078525,1.7878493,7.8434486,-8.761599,3.414656,4.4664917,-8.757678,98.700005,-167.70001,-25.500002,,,,,x,
1078565,2.0151436,12.581938,-5.279808,1.6311079,7.8887696,-2.43904,98.700005,-170.1,-22.5,,,,,x,
1078605,1.2776334,8.906947,-9.525427,5.03052,10.144882,-10.7241535,115.50001,-165.3,-29.1,,,,,x,
1078628,1.3087368,11.209798,-8.302224,0.11432999,2.492394,-5.175338,113.100006,-155.70001,-17.1,,,,,x,
1078669,-0.11544159,11.385652,-8.064762,4.9924097,19.230305,-10.914703,125.100006,-153.3,-20.1,,,,,x,
1078689,0.53832865,10.723507,-11.486139,4.664664,17.675417,-8.368956,129.90001,-148.5,-22.5,,,,,x,
1078709,0.5431138,12.635172,-10.142112,-3.018312,3.003068,-6.242418,141.90001,-143.70001,-14.700001,,,,,x,
1078749,-3.0224164,11.852801,-8.6766615,2.073184,19.51232,-11.135742,151.5,-150.90001,-11.700001,,,,,x,
1078769,-3.5774932,10.495615,-9.795189,2.492394,17.393404,-10.586958,158.70001,-136.5,-21.300001,,,,,x,
1078789,-3.6588407,13.32842,-9.326245,-2.644834,4.30643,-3.986306,163.5,-138.90001,-13.500001,,,,,x,
1078811,-5.743967,14.718504,-5.3067245,-6.93602,2.97258,-5.236314,163.5,-134.1,-14.1,,,,,x,
1078831,-5.058495,12.47487,-6.7075753,0.541162,12.606788,-4.8857017,158.70001,-141.3,-11.1,,,,,x,
1078851,-4.0350723,12.32354,-6.866083,-2.545748,6.547298,-1.6234859,180.3,-146.1,-15.3,,,,,x,
1078871,-3.6408963,14.371581,-4.084718,-5.3658876,3.971062,0.083841994,161.1,-138.90001,-19.5,,,,,x,
1078891,-3.585269,15.241879,-4.572205,-0.746956,12.103736,-1.288118,180.3,-131.70001,-13.500001,,,,,x,
1078914,-5.0291862,13.291933,-5.5358133,-1.699706,9.352194,-3.079288,175.5,-146.1,-0.90000004,,,,,x,
1078998,-4.003371,13.273989,-3.610989,-3.0488,1.585376,2.85825,182.70001,-136.5,-17.1,,,,,x,
1079040,-4.18401,12.886991,-2.4757137,-1.8521459,4.969544,1.806414,163.5,-138.90001,-14.1,,,,,x,
1079061,-4.0111465,11.8079405,-3.1892984,-2.2561119,3.58234,2.080806,170.70001,-136.5,-21.900002,,,,,x,
1079081,-4.2904797,10.614645,-2.7179615,-2.469528,0.289636,3.414656,156.3,-148.5,-11.1,,,,,x,
1079101,-3.4949493,11.555524,-2.238251,-2.919226,-1.516778,5.625036,158.70001,-143.70001,-14.700001,,,,,x,
1079122,-3.3376377,9.780834,-1.7041093,-4.009172,-0.510674,4.207344,139.5,-141.3,-16.5,,,,,x,
1079142,-3.033781,8.845338,-1.8291212,-3.6814258,-1.211898,4.626554,149.1,-146.1,-20.7,,,,,x,
1079164,-2.7951221,8.491836,-1.6143879,-4.4969797,-3.635694,5.9527817,146.70001,-150.90001,-21.300001,,,,,x,
1079184,-2.4452085,7.5162644,-0.69564027,-4.5731997,-4.733262,6.0747337,149.1,-146.1,-13.500001,,,,,x,
1079204,-1.7382035,6.931879,-0.43185923,-4.199722,-4.9924097,5.9527817,129.90001,-167.70001,-17.1,,,,,x,
1079226,-1.0904146,6.3774004,-0.25839776,-3.589962,-4.80186,5.175338,122.700005,-160.5,-25.500002,,,,,x,
1079309,1.3027554,5.204442,-0.3618765,-2.012208,-9.054935,7.8430376,101.100006,-170.1,-27.300001,,,,,x,
1079348,1.2549039,4.4035287,-1.0317966,-1.730194,-3.84911,5.884184,98.700005,-160.5,-20.7,,,,,x,
1079368,1.4666466,4.610486,-1.2555021,-0.830798,-6.737848,6.181442,86.700005,-177.3,-26.1,,,,,x,
1079388,2.0863228,4.8760614,-0.27933276,-0.95274997,-7.8430376,5.762232,91.5,-174.90001,-30.300001,,,,,x,
1079408,2.6641288,5.434727,-0.5030382,-0.998482,-6.189064,5.0838737,77.100006,-179.70001,-21.900002,,,,,x,
1079431,3.1875038,5.3192854,-0.9444677,-0.91463995,-4.817104,3.041178,79.5,-172.5,-32.7,,,,,x,
1079451,3.3531895,5.0429435,-1.0611056,0.0,-5.015276,2.55337,79.5,-177.3,-28.500002,,,,,x,
1079471,4.0195208,5.718845,-1.1825286,0.579272,-4.9543,3.2088618,65.100006,-172.5,-24.900002,,,,,x,
1079491,4.9352775,7.3948417,-1.0981905,0.548784,-4.184478,3.35368,67.5,-177.3,-31.500002,,,,,x,
1079512,4.977746,7.8913,-1.4020472,0.198172,-2.59148,1.94361,69.9,-172.5,-22.5,,,,,x,
1079532,4.5829716,7.3607473,-1.7681106,0.274392,-1.3872039,0.35061198,67.5,-174.90001,-29.7,,,,,x,
1079552,4.2139173,7.677165,-2.1323798,0.586894,-1.02897,-0.19055,67.5,-179.70001,-34.5,,,,,x,
1079572,3.8974996,8.408694,-2.7119803,0.83842,0.060976,-0.40396598,55.500004,-167.70001,-26.7,,,,,x,
1079592,3.154008,9.835265,-3.1946816,1.097568,0.11432999,-0.442076,60.300003,-165.3,-28.500002,,,,,x,
1079613,2.5821831,9.561316,-3.6540554,1.1280559,-0.16768399,-1.56251,65.100006,-186.90001,-27.900002,,,,,,
1079633,2.6013238,9.12168,-2.9554243,1.189032,-1.3872039,-1.471046,65.100006,-170.1,-26.1,,,,,,
1079653,2.5510798,9.198841,-2.882451,0.99086,-0.35061198,-1.3719599,65.100006,-165.3,-26.7,,,,,,
1079697,1.987031,9.245496,-3.0511272,1.06708,0.708846,-0.49543,57.9,-165.3,-26.7,,,,,,
1079719,1.8709912,9.459631,-2.5803888,0.541162,0.830798,-0.655492,69.9,-182.1,-26.1,,,,,,
1079740,1.3858973,9.143213,-2.334552,-0.20579399,1.471046,-1.044214,77.100006,-167.70001,-28.500002,,,,,,
1079760,1.0012913,8.412881,-2.597735,-0.129574,1.9131219,-0.92226195,72.3,-167.70001,-23.1,,,,,,
1079780,1.196286,9.280189,-2.317206,0.47256398,1.06708,0.320124,72.3,-184.5,-20.1,,,,,x,
1079800,0.8571389,9.980614,-2.113239,0.16768399,0.518296,0.15244,79.5,-177.3,-23.7,,,,,x,
1079824,0.88226086,10.23303,-1.7364091,-0.144818,-0.548784,-0.099086,74.700005,-172.5,-26.1,,,,,x,
1079844,0.86132586,10.17501,-0.9462622,-0.93750596,-1.6158639,-0.53354,69.9,-167.70001,-32.7,,,,,x,
1079864,0.037084863,8.490042,-0.7733989,-1.5244,-1.775926,-1.211898,77.100006,-172.5,-17.1,,,,,x,
1079886,-0.14295617,8.095865,-0.77758586,-0.56402797,-3.452766,0.129574,67.5,-170.1,-18.900002,,,,,x,
1079906,0.29189378,8.499014,-0.0891233,-0.518296,-6.333882,0.853664,69.9,-167.70001,-23.1,,,,,x,
1079926,0.3588858,7.631706,0.38640037,-1.3643379,-7.5762677,0.480186,74.700005,-172.5,-29.1,,,,,x,
1079946,0.28232348,6.442598,0.33496007,-1.3414719,-8.864386,0.17530599,81.9,-174.90001,-26.1,,,,,x,
1080013,0.6932477,2.8046925,0.41989636,0.20579399,-13.384232,1.699706,60.300003,-177.3,-25.500002,,,,,x,
1080034,1.3063443,3.24672,0.15372275,-0.182928,-13.086974,2.393308,77.100006,-174.90001,-30.300001,,,,,x,
1080054,1.4451134,3.383695,-0.7973246,-0.198172,-11.913186,1.699706,65.100006,-177.3,-27.900002,,,,,x,
1080074,2.2813172,4.521363,-2.021125,0.708846,-10.968058,1.974098,72.3,-174.90001,-26.7,,,,,x,
1080136,3.154008,6.2529864,-3.221,-0.70122397,-10.419273,-1.94361,67.5,-174.90001,-28.500002,,,,,x,
1080182,3.2628698,7.220782,-4.652356,2.339954,0.81555396,-2.6677,72.3,-170.1,-30.300001,,,,,x,
1080203,2.7598317,9.754516,-5.501719,1.958854,3.6585598,-3.7881339,81.9,-167.70001,-29.7,,,,,x,
1080245,1.5713216,6.9193177,-6.2984457,2.317088,4.855214,-7.118948,108.3,-165.3,-19.5,,,,,x,
1080364,-0.5538804,11.637469,-6.4713087,2.042696,13.658624,-8.04121,115.50001,-167.70001,-19.5,,,,,x,
1080426,-0.47133666,13.609547,-6.7961006,0.144818,10.571713,-7.9802337,127.50001,-160.5,-21.900002,,,,,x,
1080447,-1.0904146,10.871248,-9.310096,6.17382,17.248585,-7.9345016,144.3,-153.3,-15.3,,,,,x,
1080467,0.535338,13.156155,-10.566793,3.064044,11.24245,-2.812518,129.90001,-158.1,-15.3,,,,,x,
1080487,0.19379832,16.04997,-8.343496,-2.6829438,5.75461,-3.46801,137.1,-153.3,-23.1,,,,,x,
1080507,-1.2124358,14.228026,-7.2321467,0.33536798,10.632689,-8.254626,146.70001,-158.1,-10.5,,,,,x,
1080527,-1.2913907,12.276286,-8.692214,1.310984,12.660142,-8.26987,144.3,-141.3,-13.500001,,,,,x,
1080547,-2.3608704,12.232622,-7.769279,-2.423796,8.178406,-5.807964,144.3,-141.3,-12.3,,,,,x,
1080567,-2.8280199,14.354235,-6.401326,-3.597584,7.58389,-3.8186219,156.3,-143.70001,-8.700001,,,,,x,
1080587,-2.8351977,13.744129,-5.584263,-3.993928,8.26987,-5.7165,158.70001,-141.3,-15.900001,,,,,x,
1080607,-3.5577543,11.104525,-4.87008,-3.376546,9.931466,-5.289668,168.3,-134.1,-18.300001,,,,,x,
1080627,-3.7419825,12.499393,-5.3617535,-3.2622159,11.387268,-1.3643379,153.90001,-134.1,-16.5,,,,,x,
1080647,-3.4243686,13.172903,-5.0058584,-3.528986,8.292736,-1.29574,161.1,-148.5,-8.700001,,,,,x,
1080667,-3.1408486,12.678837,-3.1605875,-4.9009457,5.0228977,-1.951232,151.5,-143.70001,-6.3,,,,,x,
1080731,-3.523062,14.477452,-5.0716543,-3.445144,5.5945477,1.501534,161.1,-146.1,-8.700001,,,,,x,
1080751,-4.2647595,11.769061,-2.690447,-4.817104,0.754578,-0.091464,146.70001,-136.5,-15.3,,,,,x,
1080771,-3.740188,11.771454,-2.2825136,-4.054904,3.7424018,2.7134318,151.5,-148.5,-17.1,,,,,x,
1080813,-2.5762017,11.529205,-1.866206,-6.0290017,-0.594516,3.7728899,144.3,-155.70001,-15.900001,,,,,x,
1080844,-3.217411,9.599597,-0.6681257,-6.5701637,0.33536798,3.864354,127.50001,-158.1,-13.500001,,,,,x,
1080865,-3.1564004,8.718532,-1.556368,-5.3811316,0.297258,4.443626,137.1,-162.90001,-15.900001,,,,,x,
1080906,-1.4995444,8.144913,0.13757288,-5.0076537,-6.692116,4.11588,120.3,-158.1,-13.500001,,,,,x,
1080926,-1.1155367,7.1029477,0.19559275,-4.123502,-5.419242,3.559474,120.3,-162.90001,-21.300001,,,,,x,
1080946,-0.91934574,6.2224813,-0.24942562,-3.2241058,-5.746988,3.109776,113.100006,-158.1,-25.500002,,,,,x,
1080970,-0.71358454,5.6177588,-0.026916433,-2.32471,-7.797306,3.605206,103.50001,-162.90001,-18.900002,,,,,x,
1080990,-0.009570288,5.8295016,0.061608724,-2.004586,-8.178406,4.786616,113.100006,-170.1,-17.7,,,,,x,
1081010,0.30923992,6.29366,-0.19798532,-1.928366,-8.018344,4.641798,108.3,-177.3,-27.900002,,,,,x,
1081032,0.7034161,4.916735,-0.3367545,-0.998482,-8.53664,3.3155699,98.700005,-167.70001,-24.300001,,,,,x,
1081052,1.5461996,5.563328,-0.1363766,-0.731712,-9.199754,4.53509,93.9,-167.70001,-31.500002,,,,,x,
1081113,1.7376053,5.071056,-0.35170805,0.525918,-8.399444,2.2789779,91.5,-162.90001,-26.7,,,,,x,
1081346,3.731216,8.503201,-3.2730384,1.288118,-0.80030996,0.998482,74.700005,-179.70001,-34.5,,,,,x,
1081442,2.9841354,8.606081,-3.2437294,0.640248,2.469528,-1.547266,74.700005,-182.1,-24.900002,,,,,,
1081464,2.4332457,8.665895,-3.0690715,0.640248,2.942092,-1.501534,74.700005,-177.3,-26.7,,,,,,
1081504,1.7280351,8.417666,-3.280216,0.19055,3.346058,-1.661596,72.3,-186.90001,-26.7,,,,,,
1081524,1.1484345,8.095267,-2.9476485,0.106708,2.40093,-1.585376,69.9,-179.70001,-23.7,,,,,,
1081544,0.9002052,8.291458,-2.9033859,0.137196,2.004586,-0.68597996,72.3,-162.90001,-20.7,,,,,,
1081564,1.2561003,8.8256,-2.6766899,-0.221038,1.4024479,-0.289636,84.3,-167.70001,-17.7,,,,,x,
1081627,1.0850314,9.165345,-2.142548,-0.47256398,0.312502,-0.640248,65.100006,-179.70001,-26.7,,,,,x,
1081687,0.5849838,9.800572,-1.757344,-1.173788,-1.1128119,-0.106708,67.5,-170.1,-28.500002,,,,,x,
1081707,0.26497734,8.814833,-1.4989463,-1.06708,-2.393308,0.053354,72.3,-179.70001,-23.7,,,,,x,
1081748,0.44621465,7.7842326,-0.8003153,-1.3643379,-5.693634,0.663114,84.3,-165.3,-25.500002,,,,,x,
1081788,0.4133168,5.9311857,-0.08134744,-1.3643379,-9.1768875,1.440558,84.3,-167.70001,-24.300001,,,,,x,
1081864,1.4564781,4.523755,0.3774282,-2.050318,-13.803442,2.964958,57.9,-177.3,-24.300001,,,,,x,
1081884,1.6999223,4.1774306,0.5790024,-2.644834,-14.786679,2.827762,57.9,-177.3,-27.900002,,,,,x,
1081924,1.9038891,3.393265,0.49466425,-3.910086,-13.666245,2.126538,65.100006,-186.90001,-35.7,,,,,x,
1081945,1.9738718,3.7228417,0.16807817,-3.521364,-12.926911,1.8673899,48.300003,-179.70001,-30.300001,,,,,x,
1081965,2.0899115,5.2863874,-1.0491427,-2.942092,-8.757678,0.068598,48.300003,-172.5,-36.300003,,,,,x,
1081985,2.0970893,5.6709933,-1.9762644,-2.2865999,-6.21193,-0.769822,48.300003,-177.3,-29.1,,,,,x,
1082048,3.5924468,8.333328,-4.325172,1.539644,-4.237832,-4.0472817,50.7,-172.5,-32.100002,,,,,x,
1082068,3.844265,9.341199,-4.434632,2.01983,1.189032,-5.137228,67.5,-170.1,-34.5,,,,,x,
1082089,2.6557548,9.582849,-5.5615335,4.093014,7.103704,-7.286632,60.300003,-167.70001,-30.900002,,,,,x,
1082109,2.0528266,10.060764,-6.8439517,5.14485,7.705842,-8.582372,81.9,-172.5,-31.500002,,,,,x,
1082129,0.56285256,9.409387,-6.236837,3.132642,7.195168,-10.182992,89.100006,-179.70001,-32.100002,,,,,x,
1082169,0.66992015,11.772052,-7.480376,3.7881339,12.7363615,-8.292736,108.3,-165.3,-27.300001,,,,,x,
1082189,-0.9073829,10.466904,-7.920609,3.414656,12.431481,-9.6418295,113.100006,-158.1,-27.300001,,,,,x,
1082209,-0.4509998,10.952596,-7.861393,2.576236,9.992442,-7.446694,113.100006,-162.90001,-24.300001,,,,,x,
1082229,-0.2075556,10.92867,-6.8553166,0.92988396,8.292736,-7.987856,127.50001,-162.90001,-19.5,,,,,x,
1082253,-0.77040815,10.955586,-6.718342,2.461906,10.579336,-7.3780956,132.3,-155.70001,-21.900002,,,,,x,
1082273,-0.30385664,10.75162,-6.998273,2.149404,10.411652,-7.248522,134.70001,-148.5,-24.300001,,,,,x,
1082293,-1.4104211,10.43281,-5.7672944,-0.480186,9.405548,-7.248522,139.5,-153.3,-27.900002,,,,,x,
1082315,-2.00019,12.944412,-6.81883,1.79117,19.001646,-4.794238,149.1,-155.70001,-20.1,,,,,x,
1082335,-1.4881797,12.9737215,-8.120389,1.935988,16.379677,-6.1204658,151.5,-150.90001,-12.900001,,,,,x,
1082355,-3.1898966,12.758389,-7.7202315,0.221038,13.605269,-4.756128,151.5,-138.90001,-17.1,,,,,x,
1082395,-2.2789247,13.688502,-7.2273617,-1.234764,10.625068,-4.26832,149.1,-136.5,-11.700001,,,,,x,
1082455,-2.0312936,14.000732,-7.6335006,-0.92988396,9.557988,-4.30643,144.3,-141.3,-12.3,,,,,x,
1082479,-2.7167654,12.947403,-5.55615,-3.071666,4.085392,-2.614346,156.3,-141.3,-9.900001,,,,,x,
1082499,-3.287992,14.311767,-4.4489875,-2.7972739,8.033587,-0.312502,161.1,-141.3,-9.900001,,,,,x,
1082519,-2.9434617,14.031238,-5.53043,-0.106708,11.524464,-1.6158639,153.90001,-138.90001,-3.3000002,,,,,x,
1082539,-3.0260053,12.527507,-5.527439,-0.861286,6.234796,-2.027452,149.1,-143.70001,-6.9,,,,,x,
1082562,-3.5589507,12.728482,-3.957912,-1.798792,2.332332,0.91463995,149.1,-141.3,-6.9,,,,,x,
1082582,-2.9643965,14.272289,-2.6336236,-3.6814258,0.81555396,1.928366,161.1,-134.1,-18.900002,,,,,x,
1082602,-3.9417622,11.610553,-3.590054,-0.82317597,6.9131536,0.83842,144.3,-153.3,-17.7,,,,,x,
1082622,-3.6432889,11.943719,-4.419678,-0.30488,5.350644,2.195136,149.1,-148.5,-5.1000004,,,,,x,
1082642,-2.0420601,14.02107,-4.2252817,-1.951232,-3.50612,5.137228,151.5,-148.5,-9.900001,,,,,x,
1082705,-2.9069748,11.490925,-2.8130665,-2.43904,-2.599102,3.025934,149.1,-153.3,-9.900001,,,,,x,
1082725,-2.4571714,10.712741,-0.9911229,-3.064044,-5.403998,3.0488,151.5,-155.70001,-16.5,,,,,x,
1082745,-2.3901794,10.407089,-1.3601772,-2.995446,-2.2789779,2.7286758,134.70001,-153.3,-9.900001,,,,,x,
1082766,-2.6725028,8.30701,-2.1634831,-2.6677,-2.560992,0.129574,132.3,-160.5,-15.900001,,,,,x,
1082787,-2.3106263,5.769687,-2.1054633,-1.6006199,-6.471078,0.068598,125.100006,-158.1,-12.3,,,,,x,
1082807,-1.6454914,6.4144855,-1.4080286,-2.7286758,-7.233278,5.03052,117.9,-160.5,-20.7,,,,,x,
1082831,-1.5414144,7.4821706,-1.9487498,-4.504602,-3.841488,4.9924097,125.100006,-150.90001,-13.500001,,,,,x,
1082851,-1.276437,5.9766445,-3.1360636,-2.93447,-2.179892,2.2484899,120.3,-160.5,-18.900002,,,,,x,
1082873,-0.8780739,3.8006005,-3.568521,-2.7591639,-7.179924,0.17530599,120.3,-165.3,-19.5,,,,,x,
1082893,0.04426258,3.0511272,-3.5027251,-1.783548,-7.9649897,1.3872039,129.90001,-158.1,-24.900002,,,,,x,
1082913,0.97377676,3.0295942,-3.3202915,-1.6539739,-8.559505,1.821658,125.100006,-160.5,-21.300001,,,,,x,
1082974,3.0481365,3.9979875,-3.4596589,0.07622,-8.361334,3.971062,110.700005,-160.5,-21.300001,,,,,x,
1083182,0.47791624,10.018296,-0.7034161,-2.492394,-0.81555396,-5.343022,108.3,-158.1,-28.500002,,,,,x,
1083203,-0.37683007,7.4642262,-1.150827,-1.8597679,-0.57164997,-5.5640597,110.700005,-182.1,-20.7,,,,,x,
1083244,0.3660635,10.028465,-2.4362364,-0.40396598,-0.708846,0.442076,113.100006,-165.3,-27.300001,,,,,x,
1083288,0.62027425,8.291458,-1.8297193,-0.47256398,0.03811,-1.150922,122.700005,-167.70001,-26.1,,,,,,
1083308,0.93848634,8.829188,-3.1815224,1.1128119,2.865872,0.251526,110.700005,-167.70001,-21.900002,,,,,,
1083328,0.4982531,8.441592,-3.944753,1.463424,2.36282,0.068598,113.100006,-165.3,-23.7,,,,,,
1083363,0.5275621,8.537892,-4.612879,1.4024479,0.899396,1.3643379,117.9,-158.1,-21.300001,,,,,,
1083384,0.9677953,8.932069,-4.463941,0.80793196,-0.26677,1.425314,120.3,-158.1,-18.900002,,,,,,
1083426,0.44501838,9.702477,-3.886733,0.297258,1.29574,0.23628199,101.100006,-167.70001,-20.1,,,,,,
1083446,0.31701577,9.014014,-3.8813498,0.099086,2.492394,-0.785066,125.100006,-179.70001,-27.300001,,,,,,
1083486,0.08792701,9.35376,-3.6528592,0.777444,1.9054999,-0.525918,115.50001,-155.70001,-20.7,,,,,,
1083506,0.40853164,10.030858,-3.3005528,0.960372,1.5244,-0.41921,115.50001,-174.90001,-18.300001,,,,,,
1083530,0.3074455,9.188074,-1.8141676,-0.94512796,2.888738,-2.538126,122.700005,-172.5,-20.1,,,,,,
1083550,-0.01016843,8.353066,-2.6838675,0.015244,6.082356,-1.989342,117.9,-162.90001,-20.7,,,,,x,
1083572,-0.62984455,9.0977545,-3.1982706,0.34298998,4.83997,-0.632626,122.700005,-184.5,-23.1,,,,,x,
1083592,-0.47791624,9.680944,-3.2186074,0.289636,3.551852,-0.297258,113.100006,-162.90001,-26.1,,,,,x,
1083612,-0.42946666,9.169532,-2.8770678,-0.243904,1.783548,-0.82317597,120.3,-162.90001,-22.5,,,,,x,
1083632,-0.24583676,8.887208,-2.4170957,-0.617382,0.7622,-0.182928,103.50001,-170.1,-19.5,,,,,x,
1083652,-0.19080761,9.16355,-2.3495057,-0.899396,1.303362,0.17530599,110.700005,-160.5,-27.300001,,,,,x,
1083672,-0.058618013,9.852611,-2.659942,-0.792688,0.967994,0.503052,122.700005,-170.1,-17.7,,,,,x,
1083696,-0.49167353,9.45664,-2.4499936,-1.463424,0.083841994,0.060976,96.3,-155.70001,-18.300001,,,,,x,
1083716,-0.7183697,8.966762,-1.9272166,-1.44818,-1.989342,0.68597996,108.3,-162.90001,-23.1,,,,,x,
1083736,-0.2865105,10.102036,-1.3900843,-1.692084,-3.8033779,2.2942219,113.100006,-172.5,-23.1,,,,,x,
1083799,-1.342831,6.727912,-0.36546534,-1.158544,-7.339986,2.873494,110.700005,-162.90001,-26.7,,,,,x,
1083842,0.5239732,6.8284,1.025217,-0.594516,-14.237896,5.045764,103.50001,-170.1,-23.1,,,,,x,
1083862,0.5640488,4.808471,1.4899741,-0.899396,-13.2317915,4.131124,98.700005,-165.3,-28.500002,,,,,x,
1083905,1.4678428,4.5243535,0.70939755,1.1204339,-11.951296,6.44059,91.5,-172.5,-29.7,,,,,x,
1083945,1.2955776,3.4620516,-0.6095077,0.617382,-8.521396,2.7820299,77.100006,-184.5,-27.900002,,,,,x,
1083985,2.301056,5.4281473,-1.3362514,-0.45731997,-8.109808,0.602138,69.9,-179.70001,-26.7,,,,,x,
1084082,1.9481517,5.8013887,-4.898193,3.2241058,-4.34454,-5.541194,77.100006,-165.3,-35.100002,,,,,x,
1084102,0.64838696,4.259376,-4.117616,4.237832,-4.5274677,-4.80186,79.5,-165.3,-27.900002,,,,,x,
1084144,0.05203844,7.527031,-5.3862777,4.260698,3.559474,-8.361334,98.700005,-170.1,-26.1,,,,,x,
1084164,0.5078234,6.083712,-6.5747876,7.01224,2.416174,-4.893324,98.700005,-167.70001,-21.900002,,,,,x,
1084184,0.37204492,7.6340985,-6.3139973,3.940574,1.425314,-2.149404,101.100006,-165.3,-17.7,,,,,x,
1084204,-0.32180092,10.600888,-5.343211,1.98172,8.833898,-1.554888,101.100006,-172.5,-21.900002,,,,,x,
1084225,1.313522,13.703456,-10.273106,10.228724,22.94984,-4.923812,98.700005,-155.70001,-20.1,,,,,x,
1084245,0.31701577,11.44726,-12.277483,7.972612,17.423891,-9.900978,108.3,-155.70001,-15.3,,,,,x,
1084265,0.5431138,10.715133,-11.831866,2.7972739,6.181442,-7.4238276,108.3,-155.70001,-18.300001,,,,,x,
1084285,1.0724703,12.29124,-9.35376,-1.684462,1.928366,-4.817104,105.9,-160.5,-11.700001,,,,,x,
1084305,0.782371,12.178789,-8.462526,1.227142,9.7028055,-6.966508,120.3,-153.3,-12.900001,,,,,x,
1084325,0.84278345,10.560812,-10.773751,5.274424,14.832412,-8.750056,129.90001,-150.90001,-14.1,,,,,x,
1084345,0.47552365,9.057679,-11.102132,2.042696,9.832379,-7.9497457,120.3,-150.90001,-4.5,,,,,x,
1084388,1.0066746,11.874932,-8.993678,-0.137196,11.402512,-4.5884438,129.90001,-138.90001,-15.900001,,,,,x,
1084408,0.61369467,10.89338,-9.9507065,1.417692,14.13881,-7.8887696,149.1,-153.3,-7.5000005,,,,,x,
1084472,-0.34871736,12.187761,-9.544567,-3.094532,9.161644,-4.443626,127.50001,-134.1,-7.5000005,,,,,x,
1084501,-3.3119175,13.27997,-7.9092445,-5.495462,10.586958,-6.9588857,141.90001,-134.1,-12.3,,,,,x,
1084561,-3.9812396,14.318945,-7.5671067,-5.4878397,11.69977,-3.064044,156.3,-141.3,-5.1000004,,,,,x,
1084619,-4.7181516,13.141799,-6.5628247,-3.147886,11.58544,-2.309466,146.70001,-134.1,-2.1000001,,,,,x,
1084639,-3.6995144,13.631081,-7.1567807,-4.169234,6.8521776,0.365856,156.3,-131.70001,-9.900001,,,,,x,
1084679,-4.3520885,12.487431,-3.0343792,-5.9222937,6.981752,-0.182928,161.1,-146.1,-8.1,,,,,x,
1084699,-4.128981,12.13333,-4.275526,-4.618932,8.902495,0.449698,137.1,-131.70001,-7.5000005,,,,,x,
1084719,-3.740786,11.575861,-3.6576443,-7.721086,-3.536608,2.035074,139.5,-143.70001,-10.5,,,,,x,
1084739,-3.6402981,11.466999,-2.0235176,-8.7653,-7.0960817,2.2561119,144.3,-148.5,-7.5000005,,,,,x,
1084759,-3.9501362,10.588326,0.7506694,-7.9954777,-5.190582,2.7439198,132.3,-148.5,-17.7,,,,,x,
1084779,-3.978847,10.093662,-0.8272317,-7.187546,2.7820299,3.605206,144.3,-162.90001,-17.7,,,,,x,
1084799,-3.6576443,8.357852,-2.4320493,-6.0290017,-4.214966,2.2561119,139.5,-158.1,-17.1,,,,,x,
1084820,-3.091801,7.714848,-1.8219435,-5.52595,-7.9497457,2.85825,120.3,-162.90001,-18.300001,,,,,x,
1084841,-2.7496634,7.4534597,0.0029907147,-6.25004,-10.602201,4.76375,125.100006,-158.1,-18.900002,,,,,x,
1084861,-2.375824,7.3248587,-0.5287584,-6.318638,-6.8979096,4.428382,132.3,-158.1,-26.1,,,,,x,
1084921,-0.2266962,4.903576,0.04187001,-4.733262,-9.054935,4.939056,110.700005,-155.70001,-25.500002,,,,,x,
1084941,0.08254373,3.6905422,-0.13458216,-2.865872,-9.382682,3.7805119,108.3,-170.1,-24.900002,,,,,x,
1085001,1.5701253,4.584766,-0.5658432,0.053354,-8.186028,1.189032,89.100006,-167.70001,-36.300003,,,,,x,
1085066,3.0260053,5.07943,-0.22849062,0.396344,-6.0899777,4.11588,91.5,-162.90001,-30.300001,,,,,x,
1085103,4.208534,7.0443296,-0.9869359,1.4024479,-3.6890478,1.722572,79.5,-172.5,-27.300001,,,,,x,
1085125,4.233058,7.300335,-0.995908,0.80793196,-2.560992,0.19055,91.5,-170.1,-25.500002,,,,,x,
1085165,3.8663962,6.6746774,-1.2883999,0.40396598,-0.053354,-0.70122397,84.3,-174.90001,-28.500002,,,,,,
1085281,2.2944765,9.667187,-2.8692918,2.05794,1.02897,-2.080806,89.100006,-167.70001,-23.1,,,,,,
1085341,0.60890955,9.467407,-3.0672772,0.967994,1.288118,-3.033556,98.700005,-172.5,-27.900002,,,,,x,
1085407,0.92891604,9.094764,-2.6671195,0.92226195,0.617382,-0.15244,103.50001,-179.70001,-24.300001,,,,,x,
1085427,1.1095552,9.439294,-2.6970267,0.35061198,1.547266,-0.243904,105.9,-165.3,-18.900002,,,,,x,
1085467,1.3559902,8.9464245,-2.7478688,0.510674,2.36282,-0.373478,84.3,-177.3,-27.900002,,,,,x,
1085510,0.8128763,9.298133,-2.6467826,0.213416,1.18141,0.20579399,86.700005,-165.3,-21.300001,,,,,x,
1085580,0.22250919,9.266431,-1.1490326,-0.80030996,-2.492394,-0.57164997,113.100006,-182.1,-26.7,,,,,x,
1085642,-0.57122654,7.509685,0.19200389,-0.7622,-5.0686297,1.501534,110.700005,-179.70001,-20.7,,,,,x,
1085663,-0.39896137,6.982123,0.29488447,-0.35061198,-7.3476076,1.6387299,103.50001,-174.90001,-17.7,,,,,x,
1085724,1.2644743,4.7378902,1.1376679,-0.40396598,-12.454348,2.47715,96.3,-170.1,-24.300001,,,,,x,
1085788,1.786055,4.957409,-0.3158195,0.56402797,-9.573232,1.051836,79.5,-165.3,-18.900002,,,,,x,
1086005,1.1621917,10.517746,-6.119601,2.309466,4.5122237,-4.9619217,122.700005,-172.5,-32.100002,,,,,x,
1086025,0.7787821,10.7061615,-6.462935,2.40093,5.914672,-6.227174,125.100006,-155.70001,-26.1,,,,,x,
1086065,0.3200065,8.919508,-7.262652,1.6387299,7.118948,-7.301876,141.90001,-148.5,-27.900002,,,,,x,
1086105,0.14056359,11.447858,-10.109215,4.5579557,19.74098,-6.5091877,149.1,-143.70001,-20.1,,,,,x,
1086125,0.18841504,13.094546,-12.215874,2.195136,17.56871,-5.0686297,156.3,-148.5,-18.300001,,,,,x,
1086145,0.035290435,11.279182,-11.165535,-0.030488,8.605238,-6.1052217,146.70001,-143.70001,-17.7,,,,,x,
1086185,-1.0467502,13.041311,-7.347588,-2.652456,3.574718,-3.6890478,173.1,-143.70001,-18.300001,,,,,x,
1086208,-1.2226043,11.984392,-5.662021,-4.138746,6.6006517,-7.0960817,165.90001,-134.1,-14.1,,,,,x,
1086228,-2.6455863,9.725206,-5.843259,-2.530504,13.422341,-6.9588857,168.3,-141.3,-14.700001,,,,,x,
1086248,-3.3789096,11.150581,-7.741166,-2.545748,16.669313,-3.910086,170.70001,-141.3,-15.900001,,,,,x,
1086288,-3.6684108,11.010017,-5.2576766,-3.879598,6.4939437,-4.72564,175.5,-138.90001,-20.1,,,,,x,
1086308,-4.434034,12.480253,-5.091991,-3.35368,11.1890955,-2.187514,173.1,-134.1,-12.3,,,,,x,
1086328,-3.732412,14.71013,-6.078927,-2.675322,11.66166,-1.471046,165.90001,-136.5,-12.900001,,,,,x,
1086348,-4.713965,14.604259,-4.7534423,-3.490876,7.20279,-3.605206,177.90001,-141.3,-11.700001,,,,,x,
1086371,-5.572898,14.640147,-4.9346795,-1.150922,12.23331,-2.01983,177.90001,-141.3,-11.700001,,,,,x,
1086391,-4.9346795,16.76176,-6.014926,-2.583858,10.068662,-0.594516,173.1,-136.5,-14.700001,,,,,x,
1086413,-5.2193956,14.918283,-5.510093,-2.347576,8.5899935,-1.318606,165.90001,-124.50001,-11.1,,,,,x,
1086433,-5.146422,14.238195,-6.329549,-2.027452,9.405548,0.121952,158.70001,-134.1,-8.1,,,,,x,
1086453,-4.6517577,13.934339,-5.9724574,-3.7195358,4.024416,2.141782,173.1,-141.3,-4.5,,,,,x,
1086473,-4.3479013,13.166323,-4.1852064,-5.190582,2.2180018,2.6905658,170.70001,-136.5,-8.1,,,,,x,
1086493,-3.9088643,13.229128,-3.9800434,-5.061008,4.8857017,3.894842,163.5,-146.1,-9.3,,,,,x,
1086557,-3.0367718,10.975924,-1.9619089,-5.541194,-0.26677,5.60217,151.5,-146.1,-15.900001,,,,,x,
1086597,-2.769402,9.174317,-1.7836623,-4.283564,0.861286,5.061008,137.1,-165.3,-16.5,,,,,x,
1086725,-1.0491427,5.0315785,-0.753062,-3.117398,-3.361302,6.295772,115.50001,-174.90001,-26.7,,,,,x,
1086746,-0.09211402,6.364241,-0.8547463,-3.8262439,-4.862836,9.397925,101.100006,-182.1,-16.5,,,,,x,
1086787,0.44621465,6.013131,-1.0317966,-3.612828,-5.251558,8.3842,81.9,-174.90001,-26.1,,,,,x,
1086807,0.81945586,5.7577243,-0.86371845,-3.483254,-6.920776,7.08846,77.100006,-179.70001,-27.900002,,,,,x,
1086827,0.86910176,5.023205,-0.7524639,-3.2164838,-7.896392,5.289668,69.9,-186.90001,-26.7,,,,,x,
1086849,1.3410366,4.0296893,-0.7387066,-2.7972739,-9.26073,4.260698,62.7,-189.3,-33.300003,,,,,x,
1086870,2.363861,4.590149,-0.31761393,-2.355198,-11.593061,4.519846,48.300003,-179.70001,-21.900002,,,,,x,
1086891,3.1282878,4.9298944,0.33735263,-2.644834,-9.458901,2.995446,60.300003,-186.90001,-27.300001,,,,,x,
1086911,3.321488,4.9418573,-0.20815375,-2.2256238,-8.61286,1.98172,50.7,-177.3,-22.5,,,,,x,
1086931,3.0882123,4.636804,0.093310304,-1.8597679,-8.742434,0.92226195,45.9,-172.5,-34.5,,,,,x,
1086951,4.3496957,5.37252,-0.037683006,-0.983238,-7.77444,0.57164997,43.5,-170.1,-28.500002,,,,,x,
1086971,5.496934,5.9628873,-0.1531246,-0.312502,-7.294254,0.967994,43.5,-177.3,-29.7,,,,,x,
1086991,4.434632,6.147115,-0.23327576,0.121952,-4.786616,-0.23628199,38.7,-172.5,-32.7,,,,,x,
1087011,4.7833495,6.833185,-1.192697,1.730194,-2.919226,0.060976,43.5,-174.90001,-29.7,,,,,x,
1087035,5.776865,8.705971,-1.5037315,2.347576,-2.301844,0.983238,36.300003,-174.90001,-29.7,,,,,x,
1087096,3.9333882,8.647951,-2.6910453,2.469528,-0.358234,-2.416174,41.100002,-184.5,-32.100002,,,,,,
1087145,3.071464,8.805263,-3.1097453,1.699706,-1.021348,-1.3643379,53.100002,-177.3,-27.900002,,,,,x,
1087165,3.1217082,8.296842,-2.5624444,0.70122397,-1.3872039,-1.33385,43.5,-184.5,-30.300001,,,,,x,
1087207,3.3077307,9.636682,-2.6754935,1.242386,0.259148,-1.3490939,72.3,-170.1,-26.7,,,,,x,
1087247,2.1915958,8.306412,-2.5415094,0.95274997,0.846042,-2.2713559,60.300003,-186.90001,-17.1,,,,,x,
1087582,0.9881322,4.3646493,0.44322395,-0.518296,-13.818686,2.614346,69.9,-186.90001,-22.5,,,,,x,
1087642,2.5738091,3.2030556,0.99172103,-1.3795819,-14.123566,0.640248,55.500004,-170.1,-29.1,,,,,x,
1087745,3.8831441,6.422261,-5.298949,1.935988,-0.068598,-4.397894,74.700005,-167.70001,-20.1,,,,,x,
1087765,3.8424704,7.1597714,-5.824716,3.2469718,2.454284,-6.28815,62.7,-167.70001,-27.900002,,,,,x,
1087805,2.5965385,7.7656903,-7.8996744,2.926848,4.15399,-8.330846,81.9,-170.1,-18.900002,,,,,x,
1087845,1.9248241,10.134336,-7.6263227,2.7134318,10.343054,-10.1677475,96.3,-162.90001,-28.500002,,,,,x,
1087865,2.8645067,11.770257,-11.962859,6.844556,18.772985,-10.045795,113.100006,-158.1,-21.300001,,,,,x,
1087885,3.0732586,12.430009,-12.506572,4.222588,13.178437,-10.525982,115.50001,-153.3,-17.7,,,,,x,
1087927,-2.5815852,9.140223,-8.8579,1.661596,16.448277,-12.88118,156.3,-150.90001,-14.1,,,,,x,
1087947,-1.7854568,10.027268,-10.907137,2.6981878,15.571746,-7.77444,134.70001,-146.1,-17.7,,,,,x,
1087987,-1.0993868,13.742933,-9.374695,-1.71495,11.433,-7.0808377,139.5,-138.90001,-15.900001,,,,,x,
1088007,-2.2388492,11.377875,-9.581054,0.320124,10.503116,-8.6204815,170.70001,-141.3,-10.5,,,,,x,
1088029,-2.7371023,11.608759,-8.208914,-3.513742,8.833898,-5.8918056,168.3,-134.1,-18.900002,,,,,x,
1088049,-3.7712915,13.123257,-7.9463296,-3.01069,14.634239,-4.702774,153.90001,-138.90001,-14.1,,,,,x,
1088069,-3.727627,12.105816,-9.483557,-0.091464,15.327842,-6.303394,168.3,-134.1,-15.3,,,,,x,
1088089,-3.598428,12.631583,-8.452358,-3.368924,6.0747337,-3.894842,175.5,-129.3,-6.3,,,,,x,
1088112,-5.493943,14.266906,-6.0352626,-5.37351,5.823208,-2.583858,175.5,-126.9,-3.9,,,,,x,
1088132,-4.270741,14.806431,-6.276912,-1.71495,10.419273,-3.041178,168.3,-131.70001,-14.1,,,,,x,
1088152,-5.333641,13.030544,-5.475999,-4.03966,6.5701637,-4.260698,161.1,-136.5,-6.9,,,,,x,
1088172,-5.541795,13.933741,-4.994494,-3.140264,10.632689,0.0,177.90001,-134.1,-6.9,,,,,x,
1088192,-5.4239607,15.942903,-6.6692944,-2.2103798,13.010754,0.93750596,153.90001,-126.9,-14.1,,,,,x,
1088212,-4.8006954,14.309374,-6.229659,-3.894842,3.2622159,-1.234764,151.5,-131.70001,-3.9,,,,,x,
1088276,-4.6421876,13.564088,-5.5447855,-2.865872,9.466524,1.18141,151.5,-143.70001,-12.3,,,,,x,
1088296,-4.640991,12.227837,-3.9902117,-5.44973,-0.960372,2.088428,149.1,-150.90001,-9.900001,,,,,x,
1088316,-4.084718,11.858783,-1.5796956,-6.051868,-2.2865999,3.96344,158.70001,-153.3,-12.3,,,,,x,
1088336,-3.430948,11.671564,-2.254999,-4.733262,2.599102,5.076252,141.90001,-146.1,-12.900001,,,,,x,
1088378,-2.7849536,9.303515,-2.1533146,-4.969544,-4.146368,5.724122,134.70001,-150.90001,-11.1,,,,,x,
1088407,-1.6586505,8.86089,-0.29189378,-5.274424,-3.323192,6.6158957,125.100006,-158.1,-18.300001,,,,,x,
1088428,-1.6771929,9.300525,-1.53962,-4.214966,-0.274392,6.143332,125.100006,-155.70001,-14.1,,,,,x,
1088448,-2.0354805,7.5629196,-1.9523387,-4.26832,-3.16313,4.237832,113.100006,-174.90001,-17.1,,,,,x,
1088510,-1.041965,5.5878515,-0.6591536,-5.25918,-6.547298,10.411652,103.50001,-182.1,-24.900002,,,,,x,
1088644,3.1115398,5.0967765,0.019140575,0.07622,-6.760714,7.4543157,50.7,-172.5,-27.900002,,,,,x,
1088664,4.405323,5.602207,-0.2129389,0.541162,-6.21193,5.358266,43.5,-182.1,-26.1,,,,,x,
1088704,4.4113045,5.5752907,-0.90379405,2.164648,-2.538126,1.463424,29.1,-167.70001,-26.7,,,,,x,
1088747,6.066964,6.78653,-1.2824185,1.669218,-4.45887,0.64787,38.7,-174.90001,-25.500002,,,,,,
1088767,5.8019867,7.8213177,-1.6239581,0.746956,-2.088428,0.3811,24.300001,-182.1,-32.100002,,,,,,
1088787,5.4395123,8.397927,-2.9063766,1.265252,0.22865999,-0.861286,36.300003,-170.1,-22.5,,,,,,
1088807,5.065673,8.10065,-2.9859297,0.884152,-1.280496,-2.088428,36.300003,-174.90001,-21.300001,,,,,,
1088871,4.4537725,7.585649,-3.1892984,1.211898,0.20579399,-1.280496,33.9,-177.3,-27.300001,,,,,,
1088891,4.343714,8.927284,-3.317301,0.830798,2.09605,-0.960372,43.5,-179.70001,-31.500002,,,,,,
1088911,3.9028828,8.551052,-3.7461693,1.501534,3.361302,-2.370442,24.300001,-177.3,-23.7,,,,,,
1088931,3.8101707,8.497219,-3.8370872,1.8369019,2.2103798,-2.187514,29.1,-182.1,-21.300001,,,,,,
1088992,1.869795,8.361441,-3.125297,-0.198172,2.51526,-2.964958,53.100002,-177.3,-23.7,,,,,x,
1089129,0.46954224,9.212598,-1.225595,-1.1051899,-2.027452,0.33536798,53.100002,-177.3,-24.900002,,,,,x,
1089149,0.4593738,9.50509,-0.6878644,-1.3872039,-5.25918,0.967994,50.7,-179.70001,-21.900002,,,,,x,
1089169,0.23985533,8.850721,0.011364716,-3.01069,-7.759196,0.33536798,55.500004,-174.90001,-23.1,,,,,x,
1089229,1.0605075,6.3271565,0.9845433,-2.850628,-14.154054,1.227142,48.300003,-174.90001,-23.1,,,,,x,
1089269,1.4313561,2.7209523,1.6299396,-3.3079479,-17.591576,0.34298998,55.500004,-174.90001,-24.300001,,,,,x,
1089307,1.6712115,1.426571,1.5695271,-1.692084,-15.937602,1.41007,55.500004,-174.90001,-32.100002,,,,,x,
1089327,3.0726604,3.5798857,0.97616935,-0.586894,-14.649484,1.577754,55.500004,-174.90001,-29.7,,,,,x,
1089367,2.7167654,4.1074476,-1.4630578,0.17530599,-6.379614,-3.902464,50.7,-174.90001,-28.500002,,,,,x,
1089389,2.8483567,3.8478537,-4.0105486,1.242386,-0.091464,-4.34454,57.9,-177.3,-35.7,,,,,x,
1089430,3.4357333,7.8859167,-6.2105184,1.532022,1.8292799,-2.93447,72.3,-172.5,-27.900002,,,,,x,
1089470,3.0756512,7.5748825,-6.7709785,2.47715,2.027452,-3.6966698,77.100006,-170.1,-28.500002,,,,,x,
1089490,4.1732435,11.57945,-6.9145327,0.82317597,5.198204,-1.3567159,77.100006,-162.90001,-27.900002,,,,,x,
1089513,3.2574866,11.391035,-7.4026175,1.75306,8.818654,-6.5701637,79.5,-165.3,-23.1,,,,,x,
1089533,3.1241007,10.160655,-8.543276,3.551852,8.894874,-7.9954777,79.5,-165.3,-24.900002,,,,,x,
1089593,3.3286657,12.063946,-7.9044595,1.75306,9.992442,-6.150954,98.700005,-160.5,-26.7,,,,,x,
1089613,2.4870784,10.407089,-7.753129,0.95274997,12.743983,-9.900978,101.100006,-160.5,-21.900002,,,,,x,
