time,sensor_accX[g],sensor_accY[g],sensor_accZ[g],sensor_gyroX[°/s],sensor_gyroY[°/s],sensor_gyroZ[°/s],sensor_magX[µT],sensor_magY[µT],sensor_magZ[µT]
1438298,-4.167262077331543,8.39852523803711,-3.3789095878601074,0.2591480016708374,0.510673999786377,0.2134159952402115,228.3000030517578,-129.3000030517578,-21.30000114440918
1438318,-4.172645568847656,8.24719524383545,-3.236551523208618,0.3125019967556,0.02286599949002266,0.6173819899559021,233.10000610351562,-129.3000030517578,-14.700000762939453
1438338,-4.20973014831543,8.27710247039795,-3.4028353691101074,0.5487840175628662,0.4420759975910187,0.7240899801254272,225.90000915527344,-131.70001220703125,-26.100000381469727
1438380,-3.988417387008667,8.090481758117676,-3.4536774158477783,0.030487999320030212,-0.48018598556518555,1.3186060190200806,225.90000915527344,-131.70001220703125,-18.30000114440918
1438400,-3.9872210025787354,7.956497669219971,-3.70788836479187,0.09146399796009064,0.114329993724823,1.7225719690322876,221.10000610351562,-126.9000015258789,-25.500001907348633
1438420,-3.7754783630371094,8.369216918945312,-3.9387714862823486,0.05335399881005287,-0.6631140112876892,2.0655620098114014,225.90000915527344,-134.10000610351562,-16.5
1438440,-3.8317039012908936,8.261550903320312,-3.687551498413086,-0.3125019967556,-1.013725996017456,1.8140360116958618,209.10000610351562,-138.90000915527344,-19.5
1438460,-3.835890769958496,8.132949829101562,-3.7784690856933594,-0.3582339882850647,-0.4344539940357208,1.7759259939193726,223.50001525878906,-131.70001220703125,-21.30000114440918
1438480,-3.9004902839660645,8.176614761352539,-3.8711812496185303,-0.39634400606155396,-0.33536797761917114,1.8673899173736572,218.70001220703125,-148.5,-23.700000762939453
1438500,-4.042848110198975,8.221475601196289,-3.805983781814575,-0.35061198472976685,-0.09146399796009064,1.6768399477005005,209.10000610351562,-134.10000610351562,-19.5
1438520,-4.199561595916748,8.267532348632812,-3.791628360748291,-0.3734779953956604,0.3201240003108978,1.3872039318084717,218.70001220703125,-136.5,-18.30000114440918
1438540,-4.146327018737793,8.550454139709473,-3.756337881088257,-0.5945159792900085,0.4878079891204834,1.3567159175872803,211.50001525878906,-138.90000915527344,-17.700000762939453
1438564,-4.4579596519470215,8.094070434570312,-3.5284454822540283,-1.3186060190200806,1.8216580152511597,1.1509219408035278,206.70001220703125,-146.10000610351562,-17.100000381469727
1438584,-4.6768798828125,8.033060073852539,-3.6528592109680176,-1.196653962135315,2.5152599811553955,1.5472660064697266,216.3000030517578,-129.3000030517578,-24.900001525878906
1438604,-4.355677127838135,8.71135425567627,-3.5966336727142334,-1.2881180047988892,1.6692179441452026,2.1036720275878906,216.3000030517578,-143.70001220703125,-25.500001907348633
1438665,-4.60211181640625,8.2741117477417,-3.681570053100586,-0.9375059604644775,4.977165699005127,2.385685920715332,216.3000030517578,-148.5,-26.700000762939453
1438747,-3.9393696784973145,8.372207641601562,-3.1785316467285156,-1.1814099550247192,6.364369869232178,3.2698378562927246,192.3000030517578,-150.90000915527344,-23.100000381469727
1438767,-3.756337881088257,8.409890174865723,-3.1366617679595947,-1.2271419763565063,5.03814172744751,3.620450019836426,192.3000030517578,-148.5,-15.90000057220459
1438807,-3.2150185108184814,8.38058090209961,-2.7382984161376953,-0.9222619533538818,4.710395812988281,4.123501777648926,170.70001220703125,-143.70001220703125,-11.700000762939453
1438827,-2.834001302719116,8.30880355834961,-2.6575491428375244,-0.8384199738502502,4.603687763214111,4.39027214050293,173.10000610351562,-141.3000030517578,-20.100000381469727
1438847,-2.634819746017456,8.116800308227539,-2.7101857662200928,-0.510673999786377,4.78661584854126,4.611310005187988,163.5,-141.3000030517578,-12.90000057220459
1438869,-2.2191104888916016,8.24719524383545,-3.028995990753174,-0.20579399168491364,4.67990779876709,5.0533857345581055,146.70001220703125,-158.10000610351562,-18.900001525878906
1438890,-1.6514726877212524,8.471498489379883,-3.1707558631896973,-0.1600620001554489,3.7195358276367188,4.557955741882324,161.10000610351562,-162.90000915527344,-12.300000190734863
1438910,-1.438533902168274,8.258560180664062,-3.033781051635742,-0.08384199440479279,2.5228819847106934,3.658559799194336,151.5,-153.3000030517578,-18.900001525878906
1438931,-0.9079810380935669,8.31897258758545,-2.972172498703003,-0.18292799592018127,2.39330792427063,3.4756319522857666,153.90000915527344,-160.5,-12.300000190734863
1438991,-0.4868883788585663,7.852420806884766,-3.0056684017181396,-0.6554920077323914,3.414655923843384,2.682943820953369,141.90000915527344,-158.10000610351562,-16.5
1439011,-0.3337637782096863,7.7782511711120605,-3.1079509258270264,-0.6936019659042358,3.0106899738311768,2.743919849395752,132.3000030517578,-167.70001220703125,-17.700000762939453
1439031,-0.08134744316339493,7.7250165939331055,-2.927311658859253,-0.5945159792900085,2.903981924057007,2.843005895614624,129.90000915527344,-155.70001220703125,-23.700000762939453
1439055,0.17465774714946747,8.042630195617676,-2.870488166809082,-0.5411620140075684,3.3384358882904053,2.995445966720581,127.50000762939453,-162.90000915527344,-14.700000762939453
1439075,0.5592637062072754,8.957789421081543,-3.1103434562683105,-0.5182960033416748,4.46649169921875,3.5366079807281494,134.70001220703125,-170.10000610351562,-12.300000190734863
1439097,1.0862276554107666,9.901061058044434,-3.2832067012786865,-0.5487840175628662,5.045763969421387,2.8734939098358154,125.10000610351562,-162.90000915527344,-21.900001525878906
1439117,1.419991374015808,9.88371467590332,-3.5451934337615967,-0.23628199100494385,5.1067399978637695,0.8079319596290588,125.10000610351562,-165.3000030517578,-14.100000381469727
1439141,1.2776334285736084,9.158764839172363,-3.812563180923462,0.4192099869251251,4.900945663452148,0.228659987449646,125.10000610351562,-165.3000030517578,-18.900001525878906
1439201,0.9869359135627747,8.920703887939453,-4.477100372314453,0.6173819899559021,5.381131649017334,-0.4725639820098877,117.9000015258789,-160.5,-11.700000762939453
1439226,0.9767674803733826,8.501405715942383,-4.539905071258545,0.3887220025062561,4.664663791656494,-0.6402480006217957,110.70000457763672,-160.5,-16.5
1439246,1.1759490966796875,8.637184143066406,-4.498034954071045,0.09908600151538849,4.260697841644287,0.02286599949002266,120.30000305175781,-165.3000030517578,-6.900000095367432
1439287,2.4224791526794434,10.37060260772705,-5.4060163497924805,-0.41158798336982727,6.158576011657715,-0.1448179930448532,105.9000015258789,-162.90000915527344,-14.700000762939453
1439307,1.309933066368103,8.203531265258789,-5.622543811798096,0.28201398253440857,4.504601955413818,-2.385685920715332,96.30000305175781,-160.5,-17.100000381469727
1439327,0.8230447173118591,7.294353485107422,-6.055001258850098,0.8765299916267395,3.292703866958618,-0.19817200303077698,117.9000015258789,-158.10000610351562,-16.5
1439347,1.2196135520935059,8.273513793945312,-5.9006805419921875,-0.16768398880958557,0.15243999660015106,2.431417942047119,108.30000305175781,-162.90000915527344,-13.500000953674316
1439367,1.5970417261123657,9.08997917175293,-4.911352157592773,-1.2195199728012085,-1.8978779315948486,2.339953899383545,105.9000015258789,-165.3000030517578,-17.100000381469727
1439387,1.442720890045166,8.487051010131836,-4.277320384979248,-1.0747020244598389,-0.19817200303077698,0.7774440050125122,113.10000610351562,-160.5,-14.100000381469727
1439407,1.6891556978225708,8.271718978881836,-4.773778915405273,-1.3186060190200806,1.6387299299240112,1.021347999572754,101.10000610351562,-162.90000915527344,-6.900000095367432
1439427,1.8291212320327759,8.2202787399292,-4.518970012664795,-2.652456045150757,0.5487840175628662,1.2728739976882935,105.9000015258789,-167.70001220703125,-12.300000190734863
1439470,1.9074779748916626,7.58206033706665,-3.6522610187530518,-3.2622158527374268,0.8384199738502502,1.425313949584961,108.30000305175781,-165.3000030517578,-5.700000286102295
1439493,1.9792550802230835,7.500712871551514,-3.6014187335968018,-3.3155698776245117,1.2347639799118042,1.8140360116958618,93.9000015258789,-167.70001220703125,-16.5
1439513,2.131781578063965,7.7668867111206055,-3.3765170574188232,-3.3155698776245117,1.021347999572754,2.1112940311431885,96.30000305175781,-165.3000030517578,-11.700000762939453
1439533,2.346514940261841,8.252578735351562,-3.5039215087890625,-2.8811159133911133,1.5091559886932373,2.195136070251465,105.9000015258789,-167.70001220703125,-10.5
1439553,2.4194884300231934,8.271718978881836,-3.564333915710449,-2.8048958778381348,1.2195199728012085,2.0045859813690186,96.30000305175781,-167.70001220703125,-15.300000190734863
1439573,2.381207227706909,8.30581283569336,-3.552371025085449,-2.5533699989318848,0.8917739987373352,2.1189160346984863,93.9000015258789,-174.90000915527344,-14.700000762939453
1439637,2.0815374851226807,8.76698112487793,-3.2861974239349365,-2.6067240238189697,-0.3201240003108978,2.3018438816070557,79.5,-179.70001220703125,-21.900001525878906
1439657,1.8398877382278442,8.702980041503906,-3.257486581802368,-2.5762360095977783,0.20579399168491364,1.4405579566955566,77.10000610351562,-179.70001220703125,-20.700000762939453
1439697,1.758540391921997,8.451162338256836,-3.189298391342163,-2.7134318351745605,-0.07621999830007553,0.8689079880714417,77.10000610351562,-177.3000030517578,-18.30000114440918
1439718,1.8697949647903442,8.61266040802002,-3.1552040576934814,-2.736297845840454,-0.060975998640060425,1.1128119230270386,74.70000457763672,-177.3000030517578,-23.700000762939453
1439738,1.8973095417022705,8.713747024536133,-2.974565029144287,-3.109776020050049,0.1295740008354187,1.189031958580017,81.9000015258789,-170.10000610351562,-20.700000762939453
1439758,1.9732736349105835,8.534303665161133,-2.9518356323242188,-3.0259339809417725,0.5335400104522705,1.1585439443588257,77.10000610351562,-167.70001220703125,-29.100000381469727
1439779,1.9828439950942993,8.323159217834473,-2.905778646469116,-3.147886037826538,0.35061198472976685,1.2347639799118042,79.5,-170.10000610351562,-21.30000114440918
1439819,2.2968690395355225,8.667091369628906,-2.8208422660827637,-2.682943820953369,-0.10670799762010574,1.7225719690322876,67.5,-177.3000030517578,-22.5
1439843,2.256195306777954,8.000162124633789,-2.429656744003296,-2.903981924057007,-0.7164679765701294,1.2728739976882935,74.70000457763672,-177.3000030517578,-20.700000762939453
1439863,2.5092098712921143,8.215494155883789,-2.4703304767608643,-2.0579400062561035,-1.2347639799118042,1.829279899597168,72.30000305175781,-172.5,-24.900001525878906
1439883,2.599529266357422,8.303421020507812,-2.343524217605591,-2.195136070251465,-1.7149499654769897,1.806414008140564,79.5,-189.3000030517578,-19.5
1439943,2.5762016773223877,9.701878547668457,-1.431954264640808,-2.942091941833496,-2.9802019596099854,0.9527499675750732,62.70000076293945,-182.10000610351562,-23.100000381469727
1439963,1.499544382095337,8.840553283691406,-1.2746427059173584,-2.5762360095977783,-2.5228819847106934,-0.2743920087814331,60.30000305175781,-177.3000030517578,-29.100000381469727
1439986,1.514497995376587,10.206711769104004,-1.2082488536834717,-1.9969639778137207,-4.032037734985352,0.8460419774055481,57.900001525878906,-165.3000030517578,-27.900001525878906
1440006,1.8985058069229126,11.084187507629395,-0.32598790526390076,-2.6143460273742676,-5.03814172744751,1.2195199728012085,60.30000305175781,-172.5,-31.500001907348633
1440026,1.9320018291473389,11.358735084533691,0.06639386713504791,-2.9116039276123047,-3.5213639736175537,0.342989981174469,55.500003814697266,-182.10000610351562,-26.700000762939453
1440046,1.5162924528121948,10.233030319213867,-0.3971669375896454,-2.6295900344848633,-2.0198299884796143,-0.6250039935112,67.5,-182.10000610351562,-28.500001907348633
1440066,1.4911704063415527,10.381369590759277,-0.28292161226272583,-2.294221878051758,-2.690565824508667,0.04573199898004532,65.10000610351562,-186.90000915527344,-30.30000114440918
1440086,1.2949795722961426,10.352060317993164,-0.10228244960308075,-2.278977870941162,-2.1570260524749756,-0.07621999830007553,67.5,-174.90000915527344,-25.500001907348633
1440126,1.549788475036621,11.154767990112305,-0.23028504848480225,-1.7683039903640747,-1.3872039318084717,-0.5030519962310791,53.10000228881836,-184.5,-35.10000228881836
1440146,1.3595789670944214,10.479464530944824,-0.28591233491897583,-1.4329359531402588,-0.5487840175628662,-1.2576299905776978,74.70000457763672,-174.90000915527344,-25.500001907348633
1440168,0.8972144722938538,9.568492889404297,-0.30385664105415344,-1.021347999572754,-0.426831990480423,-1.2500079870224,65.10000610351562,-172.5,-27.900001525878906
1440188,0.5293565392494202,9.089380264282227,-0.14235801994800568,-0.49542999267578125,-0.6936019659042358,-0.6097599864006042,57.900001525878906,-182.10000610351562,-27.900001525878906
1440209,0.4504016637802124,8.623427391052246,-0.051440294831991196,-0.18292799592018127,-0.3201240003108978,0.3201240003108978,55.500003814697266,-167.70001220703125,-30.900001525878906
1440229,0.707004964351654,8.55284595489502,-0.1955927461385727,0.17530599236488342,0.1448179930448532,1.6768399477005005,74.70000457763672,-182.10000610351562,-30.30000114440918
1440250,1.23396897315979,9.107324600219727,-0.2649773359298706,0.49542999267578125,0.114329993724823,2.698187828063965,57.900001525878906,-177.3000030517578,-28.500001907348633
1440311,2.1359684467315674,8.98410701751709,-0.4049427807331085,0.48018598556518555,0.6326259970664978,2.530503988265991,55.500003814697266,-186.90000915527344,-27.30000114440918
1440428,2.5379207134246826,9.040332794189453,-0.4181019365787506,0.739333987236023,1.9664759635925293,0.7088459730148315,41.10000228881836,-186.90000915527344,-25.500001907348633
1440449,2.6545584201812744,9.049304962158203,-0.4743273854255676,0.9298839569091797,1.9588539600372314,0.685979962348938,31.500001907348633,-182.10000610351562,-22.5
1440491,2.5624444484710693,8.132949829101562,-0.2135370373725891,0.35061198472976685,2.6677000522613525,0.17530599236488342,29.100000381469727,-174.90000915527344,-31.500001907348633
1440512,3.0445477962493896,9.46022891998291,-0.3618764877319336,0.914639949798584,2.5762360095977783,0.426831990480423,43.5,-177.3000030517578,-28.500001907348633
1440532,3.45188307762146,9.523632049560547,-0.3858022093772888,-0.015243999660015106,3.254593849182129,-0.5335400104522705,41.10000228881836,-179.70001220703125,-23.100000381469727
1440552,3.24971079826355,8.829188346862793,-0.5251695513725281,0.007621999830007553,3.6738038063049316,-1.0899460315704346,41.10000228881836,-177.3000030517578,-29.700000762939453
1440592,3.493155002593994,8.698195457458496,-0.8415871858596802,0.3201240003108978,4.10825777053833,-0.41158798336982727,33.900001525878906,-189.3000030517578,-27.30000114440918
1440615,3.1336710453033447,8.326149940490723,-1.23396897315979,0.7621999979019165,4.603687763214111,0.007621999830007553,41.10000228881836,-170.10000610351562,-22.5
1440635,3.24372935295105,8.612062454223633,-1.6658282279968262,1.3033620119094849,3.8872199058532715,0.5487840175628662,41.10000228881836,-177.3000030517578,-27.30000114440918
1440655,3.177335500717163,8.58095932006836,-1.7561477422714233,1.4100699424743652,3.4680099487304688,0.4878079891204834,45.900001525878906,-170.10000610351562,-23.100000381469727
1440675,3.234158992767334,8.667091369628906,-2.3560850620269775,2.2561118602752686,4.093013763427734,0.5487840175628662,33.900001525878906,-182.10000610351562,-21.900001525878906
1440739,5.14402961730957,10.953193664550781,-3.964491605758667,1.5015339851379395,3.414655923843384,1.935987949371338,26.700000762939453,-179.70001220703125,-26.700000762939453
1440759,4.779760360717773,9.895079612731934,-4.17683219909668,0.8612859845161438,1.9893419742584229,-0.35061198472976685,31.500001907348633,-179.70001220703125,-24.900001525878906
1440779,3.922621488571167,8.263344764709473,-4.093690395355225,1.417691946029663,0.5564059615135193,-0.7774440050125122,33.900001525878906,-182.10000610351562,-18.900001525878906
1440799,3.5212676525115967,8.053397178649902,-4.020717144012451,1.2195199728012085,-0.46494197845458984,0.9603719711303711,43.5,-172.5,-23.100000381469727
1440819,3.8795552253723145,9.159961700439453,-3.645681381225586,0.9070180058479309,-1.3109840154647827,1.6844619512557983,33.900001525878906,-179.70001220703125,-25.500001907348633
1440859,3.5188751220703125,8.048013687133789,-2.8100757598876953,0.4039659798145294,-0.4344539940357208,-1.2347639799118042,26.700000762939453,-172.5,-23.700000762939453
1440919,3.2688512802124023,7.7662882804870605,-2.720952272415161,-0.33536797761917114,0.7088459730148315,-0.13719600439071655,43.5,-170.10000610351562,-24.900001525878906
1441051,3.7395899295806885,8.4176664352417,-2.7430837154388428,-1.1128119230270386,-0.6631140112876892,0.007621999830007553,21.900001525878906,-165.3000030517578,-15.90000057220459
1441150,3.454275608062744,7.658024311065674,-2.137763023376465,-1.4329359531402588,-1.4558019638061523,-0.49542999267578125,26.700000762939453,-177.3000030517578,-29.100000381469727
1441170,3.535623073577881,7.773466110229492,-2.1066596508026123,-1.3948259353637695,-1.242385983467102,-0.015243999660015106,33.900001525878906,-177.3000030517578,-26.700000762939453
1441212,3.9064717292785645,8.628211975097656,-2.134174108505249,-1.4100699424743652,-1.2195199728012085,0.4344539940357208,33.900001525878906,-184.5,-29.700000762939453
1441232,4.130775451660156,8.536696434020996,-2.0133492946624756,-1.5701320171356201,-1.3490939140319824,0.5945159792900085,33.900001525878906,-172.5,-24.900001525878906
1441252,4.074550151824951,8.196950912475586,-1.815363883972168,-1.6234859228134155,-1.3109840154647827,0.8612859845161438,31.500001907348633,-182.10000610351562,-23.100000381469727
1441272,4.0255022048950195,8.147305488586426,-1.743586778640747,-1.5929979085922241,-1.371959924697876,1.14329993724823,17.100000381469727,-170.10000610351562,-23.100000381469727
1441315,4.29945182800293,8.728102684020996,-1.8368970155715942,-1.2347639799118042,-1.2728739976882935,1.4100699424743652,17.100000381469727,-172.5,-34.5
1441335,4.593738079071045,9.11270809173584,-1.9044872522354126,-1.478667974472046,-1.4329359531402588,1.3186060190200806,24.30000114440918,-189.3000030517578,-30.30000114440918
1441356,4.426258087158203,8.752626419067383,-1.7716994285583496,-1.699705958366394,-1.6311079263687134,0.7164679765701294,19.5,-189.3000030517578,-28.500001907348633
1441376,4.28449821472168,8.44039535522461,-1.5820881128311157,-2.1722700595855713,-1.7911700010299683,0.426831990480423,31.500001907348633,-179.70001220703125,-32.10000228881836
1441396,4.164271354675293,8.302224159240723,-1.552779197692871,-2.332331895828247,-1.6082419157028198,0.10670799762010574,29.100000381469727,-189.3000030517578,-24.30000114440918
1441416,4.070960998535156,8.688624382019043,-1.5210776329040527,-2.2180018424987793,-1.8597679138183594,-0.1448179930448532,17.100000381469727,-177.3000030517578,-30.30000114440918
1441438,3.872377634048462,8.699989318847656,-1.3093349933624268,-2.339953899383545,-1.8902559280395508,-0.6021379828453064,14.700000762939453,-184.5,-34.5
1441458,3.717458486557007,9.17252254486084,-1.137069821357727,-2.2637338638305664,-1.981719970703125,-0.6402480006217957,24.30000114440918,-179.70001220703125,-34.5
1441482,3.4213778972625732,8.798683166503906,-0.6244612336158752,-2.698187828063965,-1.9969639778137207,-1.0747020244598389,21.900001525878906,-191.70001220703125,-27.900001525878906
1441502,3.079838275909424,8.921900749206543,-0.09151587635278702,-2.6143460273742676,-1.8369019031524658,-0.5487840175628662,26.700000762939453,-179.70001220703125,-35.70000076293945
1441522,2.774785280227661,10.066147804260254,0.09390844404697418,-2.6677000522613525,-1.1814099550247192,-0.1448179930448532,19.5,-186.90000915527344,-29.700000762939453
1441542,2.4990413188934326,10.226449966430664,0.26138848066329956,-3.1326420307159424,-0.3887220025062561,-0.9298839569091797,14.700000762939453,-174.90000915527344,-34.5
1441563,2.4105162620544434,9.484752655029297,0.34094148874282837,-3.2622158527374268,-0.02286599949002266,-1.2118979692459106,17.100000381469727,-189.3000030517578,-31.500001907348633
1441583,2.4481992721557617,9.63668155670166,0.40255022048950195,-2.8658719062805176,0.09908600151538849,-0.6326259970664978,33.900001525878906,-182.10000610351562,-28.500001907348633
1441626,2.21193265914917,9.671972274780273,0.515599250793457,-1.829279899597168,-0.36585599184036255,-0.6554920077323914,38.70000076293945,-179.70001220703125,-29.700000762939453
1441647,2.24782133102417,9.378283500671387,0.6238631010055542,-1.5167779922485352,-0.20579399168491364,-0.7545779943466187,33.900001525878906,-182.10000610351562,-32.10000228881836
1441667,2.328570604324341,9.250879287719727,0.46236452460289,-1.0442140102386475,-0.09146399796009064,-0.4039659798145294,21.900001525878906,-191.70001220703125,-33.30000305175781
1441687,2.271148920059204,9.249683380126953,0.4456165134906769,-0.7088459730148315,-0.22103799879550934,-0.17530599236488342,21.900001525878906,-191.70001220703125,-39.30000305175781
1441707,2.366253614425659,9.491930961608887,0.41750380396842957,-0.44969800114631653,-0.23628199100494385,-0.007621999830007553,24.30000114440918,-186.90000915527344,-35.70000076293945
1441727,2.333953857421875,9.311291694641113,0.20875190198421478,-0.2591480016708374,-0.13719600439071655,-0.17530599236488342,21.900001525878906,-179.70001220703125,-30.30000114440918
1441747,2.4583675861358643,9.359143257141113,0.15850788354873657,0.05335399881005287,-0.4192099869251251,-0.015243999660015106,36.30000305175781,-182.10000610351562,-33.900001525878906
1441807,2.839982748031616,9.429723739624023,0.15671345591545105,0.15243999660015106,-0.8079319596290588,-0.2896359860897064,21.900001525878906,-184.5,-32.70000076293945
1441870,2.831608772277832,9.376489639282227,-0.08194559067487717,0.41158798336982727,-0.6936019659042358,-0.49542999267578125,19.5,-186.90000915527344,-30.900001525878906
1441990,4.273133277893066,10.29882526397705,-0.9977024793624878,0.35061198472976685,0.20579399168491364,-1.524399995803833,26.700000762939453,-196.50001525878906,-32.10000228881836
1442010,3.3992464542388916,8.284878730773926,-0.3373526334762573,0.04573199898004532,-0.36585599184036255,-2.0045859813690186,31.500001907348633,-182.10000610351562,-29.700000762939453
1442052,3.3944613933563232,8.91950798034668,-1.3739343881607056,1.4405579566955566,0.4344539940357208,-0.23628199100494385,38.70000076293945,-186.90000915527344,-31.500001907348633
1442072,3.5996243953704834,9.28916072845459,-1.3242884874343872,1.5167779922485352,-0.2134159952402115,-0.46494197845458984,31.500001907348633,-194.10000610351562,-24.900001525878906
1442112,3.3220860958099365,8.771766662597656,-1.3320643901824951,1.9664759635925293,-0.22103799879550934,-1.371959924697876,36.30000305175781,-179.70001220703125,-32.70000076293945
1442152,3.269449472427368,8.63658618927002,-1.3434290885925293,2.278977870941162,0.2591480016708374,-2.0655620098114014,38.70000076293945,-179.70001220703125,-28.500001907348633
1442305,2.778374195098877,8.926685333251953,-2.509807825088501,2.7058098316192627,-0.1295740008354187,-1.935987949371338,57.900001525878906,-172.5,-27.30000114440918
1442587,1.706501841545105,8.647353172302246,-2.5863702297210693,-0.4039659798145294,0.19054999947547913,-3.3155698776245117,91.5,-172.5,-17.100000381469727
1442607,1.612593412399292,9.040332794189453,-2.575603723526001,0.12195199728012085,0.12195199728012085,-2.5076379776000977,91.5,-174.90000915527344,-21.30000114440918
1442647,1.2746427059173584,9.043323516845703,-2.751457691192627,-0.10670799762010574,0.13719600439071655,-1.4558019638061523,93.9000015258789,-167.70001220703125,-18.900001525878906
1442690,1.2124358415603638,9.00504207611084,-2.561248302459717,-0.3582339882850647,0.18292799592018127,-1.7606819868087769,93.9000015258789,-179.70001220703125,-16.5
1442710,1.4678428173065186,9.24729061126709,-2.6479790210723877,-0.015243999660015106,-0.015243999660015106,-1.9740979671478271,93.9000015258789,-158.10000610351562,-20.100000381469727
1442730,1.2764370441436768,9.331029891967773,-2.4966487884521484,-0.07621999830007553,-0.22103799879550934,-2.5686140060424805,98.70000457763672,-170.10000610351562,-19.5
1442770,0.9265234470367432,9.076221466064453,-2.24483060836792,0.33536797761917114,-0.41158798336982727,-3.4298999309539795,101.10000610351562,-158.10000610351562,-18.900001525878906
1442790,0.8565407395362854,8.920703887939453,-2.175446033477783,0.17530599236488342,0.6936019659042358,-2.6219680309295654,101.10000610351562,-162.90000915527344,-20.100000381469727
1442832,0.5084215402603149,9.203625679016113,-2.509807825088501,-0.3048799932003021,0.8993960022926331,-1.7987920045852661,110.70000457763672,-172.5,-15.300000190734863
1442852,0.3343619108200073,8.85371208190918,-2.546294689178467,0.030487999320030212,0.5792719721794128,-1.2347639799118042,115.50000762939453,-174.90000915527344,-18.900001525878906
1442872,0.4043446481227875,9.00205135345459,-2.763420581817627,0.114329993724823,0.09146399796009064,-0.15243999660015106,117.9000015258789,-172.5,-24.900001525878906
1442895,0.47014036774635315,9.04990291595459,-2.777776002883911,0.18292799592018127,-0.35061198472976685,0.16768398880958557,98.70000457763672,-184.5,-20.100000381469727
1442915,0.7446879744529724,8.893787384033203,-2.965592861175537,0.46494197845458984,-0.2591480016708374,-0.09146399796009064,122.70000457763672,-160.5,-18.30000114440918
1442935,0.7405009865760803,8.845337867736816,-3.1851112842559814,0.9070180058479309,-0.3201240003108978,-0.5564059615135193,129.90000915527344,-170.10000610351562,-10.5
1442977,1.1077607870101929,9.026576042175293,-3.3310582637786865,1.6615959405899048,-0.1448179930448532,-3.5975840091705322,125.10000610351562,-162.90000915527344,-21.900001525878906
1443067,0.5431138277053833,8.1724271774292,-3.4112093448638916,-0.6097599864006042,2.2103798389434814,-0.8155539631843567,105.9000015258789,-170.10000610351562,-18.900001525878906
1443088,1.0317965745925903,9.049304962158203,-3.71985125541687,-0.5335400104522705,0.114329993724823,0.7317119836807251,110.70000457763672,-158.10000610351562,-14.700000762939453
1443128,1.0036839246749878,9.01700496673584,-3.2030556201934814,-0.9984819889068604,1.0365920066833496,0.3048799932003021,113.10000610351562,-153.3000030517578,-18.30000114440918
1443148,1.0449557304382324,9.26702880859375,-3.165372610092163,-1.4024479389190674,0.5411620140075684,0.46494197845458984,122.70000457763672,-170.10000610351562,-17.700000762939453
1443172,0.9677953124046326,9.294543266296387,-2.884843587875366,-1.9207439422607422,0.6021379828453064,0.2591480016708374,115.50000762939453,-174.90000915527344,-18.900001525878906
1443192,0.6794903874397278,8.816627502441406,-3.186905860900879,-2.14178204536438,0.8612859845161438,-0.3125019967556,117.9000015258789,-170.10000610351562,-17.100000381469727
1443255,1.0856294631958008,9.042725563049316,-2.674297332763672,-1.295740008354187,-1.92836594581604,-0.19054999947547913,103.50000762939453,-165.3000030517578,-20.700000762939453
1443275,1.1861175298690796,9.07203483581543,-2.420684576034546,-1.478667974472046,-2.14178204536438,-0.06859800219535828,122.70000457763672,-158.10000610351562,-21.900001525878906
1443335,1.5958454608917236,9.375292778015137,-0.9169531464576721,-3.102154016494751,-0.3125019967556,0.8384199738502502,105.9000015258789,-162.90000915527344,-21.30000114440918
1443367,0.9295141696929932,9.08698844909668,-1.23396897315979,-2.5152599811553955,2.294221878051758,0.39634400606155396,91.5,-167.70001220703125,-29.100000381469727
1443387,0.49645867943763733,9.053491592407227,-1.505525827407837,-1.5929979085922241,2.530503988265991,0.08384199440479279,105.9000015258789,-162.90000915527344,-22.5
1443427,-0.32897862792015076,9.27001953125,-2.4063291549682617,0.2743920087814331,1.753059983253479,-0.426831990480423,105.9000015258789,-174.90000915527344,-25.500001907348633
1443467,-0.18063917756080627,9.511669158935547,-2.558257579803467,1.2500079870224,0.36585599184036255,-0.6478700041770935,117.9000015258789,-170.10000610351562,-18.30000114440918
1443749,0.4868883788585663,9.32205867767334,-2.7909350395202637,-0.457319974899292,-0.4039659798145294,0.06859800219535828,108.30000305175781,-174.90000915527344,-20.100000381469727
1444029,0.5329453945159912,8.80885124206543,-2.6904470920562744,-1.3643379211425781,1.1585439443588257,0.6783579587936401,105.9000015258789,-167.70001220703125,-26.100000381469727
1444050,0.4252796471118927,9.043323516845703,-3.162381887435913,-0.685979962348938,0.9908599853515625,0.5640279650688171,101.10000610351562,-170.10000610351562,-18.900001525878906
1444090,0.18004103004932404,9.26224422454834,-2.8842453956604004,-0.2896359860897064,0.9298839569091797,0.5182960033416748,103.50000762939453,-170.10000610351562,-20.100000381469727
1444130,0.6382185220718384,10.10383129119873,-2.5385186672210693,-1.2576299905776978,1.3186060190200806,0.13719600439071655,98.70000457763672,-165.3000030517578,-19.5
1444207,0.7052105665206909,9.055286407470703,-2.364459276199341,-0.685979962348938,0.8231759667396545,1.8140360116958618,91.5,-165.3000030517578,-22.5
1444227,0.92472904920578,9.020594596862793,-2.116827964782715,-0.7774440050125122,0.5030519962310791,1.8445239067077637,86.70000457763672,-160.5,-27.30000114440918
1444268,1.3500087261199951,9.14261531829834,-1.918244481086731,-0.7240899801254272,1.2652519941329956,1.5320219993591309,91.5,-179.70001220703125,-23.100000381469727
1444288,0.918149471282959,8.792701721191406,-2.4972469806671143,-0.3201240003108978,1.9054999351501465,0.9756159782409668,84.30000305175781,-160.5,-22.5
1444308,0.9163550138473511,9.393835067749023,-2.6892507076263428,0.6554920077323914,0.9298839569091797,1.2042759656906128,89.10000610351562,-182.10000610351562,-23.100000381469727
1444328,1.333858847618103,9.89567756652832,-2.1862125396728516,-0.16768398880958557,-0.1295740008354187,0.7164679765701294,79.5,-174.90000915527344,-15.90000057220459
1444368,1.2746427059173584,8.58993148803711,-2.542705774307251,-0.6402480006217957,2.6677000522613525,0.5335400104522705,77.10000610351562,-162.90000915527344,-18.30000114440918
1444388,1.4798057079315186,8.385366439819336,-3.1426432132720947,0.3277460038661957,2.0045859813690186,1.8673899173736572,89.10000610351562,-174.90000915527344,-24.900001525878906
1444455,2.0851263999938965,9.3238525390625,-2.2932801246643066,-1.1585439443588257,0.8993960022926331,2.339953899383545,74.70000457763672,-179.70001220703125,-24.30000114440918
1444475,2.1150336265563965,9.249683380126953,-2.1359684467315674,-1.425313949584961,0.7164679765701294,1.9893419742584229,72.30000305175781,-186.90000915527344,-26.700000762939453
1444497,2.0097603797912598,9.01222038269043,-2.119220495223999,-1.5548880100250244,0.6326259970664978,1.5701320171356201,72.30000305175781,-174.90000915527344,-17.100000381469727
1444517,2.029499053955078,8.848328590393066,-2.122211217880249,-1.417691946029663,0.4039659798145294,1.3643379211425781,79.5,-172.5,-24.30000114440918
1444537,2.164679527282715,8.868067741394043,-2.0552191734313965,-1.067080020904541,0.12195199728012085,1.2881180047988892,79.5,-179.70001220703125,-18.900001525878906
1444577,2.2872986793518066,8.981715202331543,-1.8931225538253784,-1.0442140102386475,0.015243999660015106,1.3186060190200806,55.500003814697266,-179.70001220703125,-24.30000114440918
1444617,2.3566832542419434,9.03195858001709,-2.146136999130249,-0.4344539940357208,0.4039659798145294,1.6311079263687134,69.9000015258789,-172.5,-24.30000114440918
1444641,2.5468928813934326,9.224560737609863,-1.9816476106643677,-0.36585599184036255,0.36585599184036255,1.699705958366394,62.70000076293945,-177.3000030517578,-17.700000762939453
1444662,2.5110042095184326,9.063660621643066,-2.068976640701294,-0.5564059615135193,0.7012239694595337,1.295740008354187,48.30000305175781,-184.5,-24.30000114440918
1444682,2.6240532398223877,9.09177303314209,-2.280121088027954,-0.3201240003108978,0.6936019659042358,1.2271419763565063,55.500003814697266,-174.90000915527344,-26.100000381469727
1444702,2.7406911849975586,9.05409049987793,-2.0576117038726807,-0.28201398253440857,0.342989981174469,1.196653962135315,55.500003814697266,-179.70001220703125,-24.30000114440918
1444722,2.950639247894287,9.03913688659668,-1.9732736349105835,-0.5182960033416748,0.4192099869251251,1.3033620119094849,48.30000305175781,-179.70001220703125,-23.100000381469727
1444742,3.1007730960845947,8.89558219909668,-1.8985058069229126,-0.7698220014572144,0.49542999267578125,1.4558019638061523,48.30000305175781,-182.10000610351562,-23.700000762939453
1444762,3.398050308227539,9.137231826782227,-1.8578320741653442,-0.8155539631843567,0.39634400606155396,1.806414008140564,36.30000305175781,-186.90000915527344,-26.100000381469727
1444785,3.4297518730163574,8.927882194519043,-1.658650517463684,-1.2271419763565063,0.457319974899292,1.7454379796981812,48.30000305175781,-170.10000610351562,-16.5
1444806,3.526650905609131,8.653932571411133,-1.5509847402572632,-1.242385983467102,0.5030519962310791,1.9131219387054443,41.10000228881836,-179.70001220703125,-22.5
1444826,3.6612331867218018,8.748438835144043,-1.4774131774902344,-1.2347639799118042,0.426831990480423,2.0960500240325928,43.5,-189.3000030517578,-24.900001525878906
1444848,3.597231864929199,8.517556190490723,-1.624556303024292,-1.3338500261306763,0.6402480006217957,1.935987949371338,45.900001525878906,-182.10000610351562,-24.30000114440918
1444868,3.4973418712615967,8.4356107711792,-1.728633165359497,-1.067080020904541,0.3887220025062561,1.8673899173736572,53.10000228881836,-174.90000915527344,-21.30000114440918
1444888,3.4985382556915283,8.698793411254883,-1.7238479852676392,-0.9603719711303711,-0.05335399881005287,2.0045859813690186,45.900001525878906,-186.90000915527344,-23.100000381469727
1444910,3.4626495838165283,8.713149070739746,-1.612593412399292,-1.2500079870224,-0.08384199440479279,1.8673899173736572,31.500001907348633,-186.90000915527344,-30.30000114440918
1444931,3.3484044075012207,8.359047889709473,-1.303951621055603,-1.5853760242462158,0.030487999320030212,1.653973937034607,33.900001525878906,-186.90000915527344,-20.100000381469727
1444951,3.347806215286255,8.249588012695312,-1.232772707939148,-1.707327961921692,0.36585599184036255,1.5320219993591309,33.900001525878906,-170.10000610351562,-17.700000762939453
1444971,3.051725387573242,7.457646369934082,-1.1077607870101929,-1.9512319564819336,0.6326259970664978,1.0061039924621582,29.100000381469727,-177.3000030517578,-18.900001525878906
1444991,2.4787044525146484,6.130367279052734,-1.030002236366272,-1.4862899780273438,0.3125019967556,0.41158798336982727,36.30000305175781,-186.90000915527344,-26.100000381469727
1445011,1.430757999420166,4.151710510253906,-0.5078234076499939,-1.3414719104766846,-0.6554920077323914,-0.6936019659042358,38.70000076293945,-194.10000610351562,-25.500001907348633
1445031,0.27873462438583374,2.536126136779785,-0.14355431497097015,-0.914639949798584,-0.49542999267578125,-0.28201398253440857,41.10000228881836,-184.5,-26.700000762939453
1445054,-0.31581950187683105,2.6754934787750244,-0.724949300289154,-0.04573199898004532,1.524399995803833,2.583858013153076,36.30000305175781,-182.10000610351562,-31.500001907348633
1445074,0.47791624069213867,5.792416572570801,-1.6658282279968262,0.7698220014572144,1.806414008140564,5.320156097412109,29.100000381469727,-186.90000915527344,-24.30000114440918
1445094,1.425972819328308,8.554640769958496,-2.363262891769409,0.7469559907913208,3.2698378562927246,6.737847805023193,19.5,-177.3000030517578,-27.900001525878906
1445117,4.651757717132568,16.307172775268555,-4.300049781799316,0.6936019659042358,6.067111968994141,11.89031982421875,26.700000762939453,-167.70001220703125,-26.700000762939453
1445159,10.416061401367188,19.589181900024414,-5.112328052520752,0.5182960033416748,0.4039659798145294,-0.2591480016708374,-9.300000190734863,-170.10000610351562,-25.500001907348633
1445242,6.108235836029053,12.893569946289062,-2.814262628555298,-3.4222779273986816,-5.6097917556762695,-3.4832539558410645,-4.5,-170.10000610351562,-21.900001525878906
1445288,0.9396826028823853,2.3447203636169434,-1.0587130784988403,2.5533699989318848,-0.2591480016708374,-11.654037475585938,24.30000114440918,-189.3000030517578,-32.10000228881836
1445308,-1.094003438949585,-0.9827489256858826,-0.715378999710083,0.48018598556518555,-2.0960500240325928,-8.772921562194824,21.900001525878906,-170.10000610351562,-29.100000381469727
1445348,0.3696523606777191,0.4838976562023163,-0.0927121639251709,0.8155539631843567,-1.9740979671478271,1.4024479389190674,26.700000762939453,-182.10000610351562,-31.500001907348633
1445392,0.8954200148582458,1.921235203742981,0.602928102016449,-1.1585439443588257,0.20579399168491364,0.09146399796009064,26.700000762939453,-194.10000610351562,-25.500001907348633
1445412,-0.16987259685993195,-0.1471431702375412,0.12620817124843597,-1.829279899597168,2.225623846054077,-1.6920839548110962,19.5,-184.5,-35.10000228881836
1445452,-1.0910128355026245,-1.5007407665252686,-0.07177715748548508,-0.3048799932003021,0.15243999660015106,-0.9527499675750732,24.30000114440918,-182.10000610351562,-21.30000114440918
1445472,-1.0144504308700562,-1.7615309953689575,0.05502915382385254,-0.12195199728012085,-0.2972579896450043,-0.48018598556518555,17.100000381469727,-182.10000610351562,-26.100000381469727
1445492,-0.21533146500587463,-0.9229345917701721,0.2721550464630127,0.5487840175628662,-0.685979962348938,2.0198299884796143,26.700000762939453,-174.90000915527344,-27.30000114440918
1445532,1.9702829122543335,4.892211437225342,-0.5335435271263123,2.278977870941162,1.0975680351257324,8.826275825500488,9.90000057220459,-179.70001220703125,-24.30000114440918
1445552,4.021315097808838,9.667186737060547,-1.0377780199050903,1.882633924484253,4.085391998291016,13.673867225646973,17.100000381469727,-189.3000030517578,-24.30000114440918
1445573,9.300524711608887,19.059226989746094,-2.44401216506958,2.03507399559021,12.187578201293945,21.044342041015625,-14.100000381469727,-165.3000030517578,-27.900001525878906
1445593,14.43498420715332,19.543724060058594,-6.510188102722168,3.254593849182129,16.20437240600586,10.876593589782715,-38.10000228881836,-170.10000610351562,-18.30000114440918
1445613,14.878806114196777,19.598752975463867,-7.545573711395264,0.3734779953956604,-3.6433160305023193,3.7195358276367188,-30.900001525878906,-170.10000610351562,-27.30000114440918
1445633,19.599349975585938,19.599349975585938,-4.291077613830566,-6.760714054107666,-1.6615959405899048,8.85676383972168,-35.70000076293945,-165.3000030517578,-27.900001525878906
1445653,15.825666427612305,19.599349975585938,-5.377305507659912,-0.17530599236488342,-0.4725639820098877,-2.294221878051758,-42.900001525878906,-170.10000610351562,-24.30000114440918
1445673,12.165630340576172,19.41751480102539,-6.513178825378418,-1.524399995803833,-2.949713945388794,-3.193617820739746,-35.70000076293945,-162.90000915527344,-29.700000762939453
1445693,7.28418493270874,13.102919578552246,-4.160682678222656,-5.426863670349121,-14.832411766052246,-9.047313690185547,-28.500001907348633,-165.3000030517578,-23.100000381469727
1445713,2.750859498977661,5.732004165649414,1.3535975217819214,-7.118947982788086,-16.135772705078125,-13.178437232971191,-23.700000762939453,-174.90000915527344,-23.700000762939453
1445733,0.8822608590126038,2.468536138534546,2.2286806106567383,-0.5182960033416748,-2.736297845840454,-12.721117973327637,-6.900000095367432,-172.5,-29.700000762939453
1445754,-0.1309933066368103,-0.8224465847015381,-0.48090696334838867,-0.3125019967556,2.28659987449646,-10.0686616897583,5.100000381469727,-182.10000610351562,-27.30000114440918
1445774,-0.8110818862915039,-1.8039991855621338,0.47791624069213867,-2.6677000522613525,-1.5015339851379395,-2.4542839527130127,9.90000057220459,-189.3000030517578,-21.900001525878906
1445834,0.8254373073577881,0.8379983305931091,0.7596415877342224,-1.707327961921692,0.8307979702949524,1.3795819282531738,19.5,-179.70001220703125,-21.900001525878906
1445878,-0.010168430395424366,-0.503636360168457,0.8601295948028564,-1.2652519941329956,1.0594580173492432,0.3582339882850647,7.500000476837158,-177.3000030517578,-35.70000076293945
1445898,-0.1603023111820221,-0.7835673093795776,0.6651349663734436,-0.342989981174469,0.7926880121231079,-0.17530599236488342,-2.1000001430511475,-196.50001525878906,-25.500001907348633
1445961,0.5939559936523438,0.7733988761901855,0.3780263662338257,1.0823240280151367,1.2500079870224,-0.20579399168491364,9.90000057220459,-170.10000610351562,-29.700000762939453
1446211,-0.08493629842996597,0.5736191272735596,0.7016217112541199,0.8765299916267395,-6.303393840789795,-19.57329559326172,19.5,-172.5,-26.100000381469727
1446246,-1.6652300357818604,-2.057013750076294,0.5467026829719543,-0.7545779943466187,1.6844619512557983,-3.60520601272583,38.70000076293945,-184.5,-27.30000114440918
1446266,0.0957028716802597,1.727436900138855,0.26976248621940613,-0.6783579587936401,1.0594580173492432,1.2652519941329956,31.500001907348633,-177.3000030517578,-19.5
1446346,0.2649773359298706,-1.525862693786621,0.8254373073577881,-1.2195199728012085,0.510673999786377,1.753059983253479,33.900001525878906,-170.10000610351562,-32.70000076293945
1446367,0.3822133541107178,-1.0862276554107666,0.3989613652229309,-0.8155539631843567,1.0899460315704346,3.6738038063049316,24.30000114440918,-184.5,-27.900001525878906
1446387,-0.10826388001441956,-1.0419650077819824,-0.0047851437702775,0.114329993724823,0.7317119836807251,2.7744078636169434,26.700000762939453,-189.3000030517578,-21.900001525878906
1446427,0.714780867099762,1.120919942855835,-0.25122004747390747,1.3490939140319824,-0.510673999786377,2.903981924057007,26.700000762939453,-182.10000610351562,-30.30000114440918
1446468,2.7089896202087402,5.443699359893799,-1.5013388395309448,0.9527499675750732,1.4100699424743652,5.304912090301514,19.5,-177.3000030517578,-32.10000228881836
1446564,13.608948707580566,19.599349975585938,-4.9855217933654785,0.23628199100494385,10.373541831970215,12.56867790222168,-33.30000305175781,-165.3000030517578,-26.700000762939453
1446624,14.128735542297363,19.599349975585938,-3.7868430614471436,-6.394857883453369,-13.300389289855957,-0.800309956073761,-35.70000076293945,-172.5,-30.900001525878906
1446732,-1.7017167806625366,-3.273038387298584,0.12680630385875702,0.2439039945602417,-0.3125019967556,-8.231760025024414,12.300000190734863,-186.90000915527344,-21.900001525878906
1446753,-0.23746275901794434,-0.7446879744529724,-0.3959706425666809,-0.02286599949002266,-0.800309956073761,0.10670799762010574,31.500001907348633,-174.90000915527344,-26.700000762939453
1446793,0.7829691767692566,1.2680630683898926,0.040673721581697464,0.12195199728012085,-1.013725996017456,-1.753059983253479,21.900001525878906,-194.10000610351562,-22.5
1446833,-0.07895487546920776,-0.5903671383857727,-0.04844957962632179,0.457319974899292,-1.753059983253479,-1.4634239673614502,17.100000381469727,-182.10000610351562,-24.30000114440918
1446875,-0.3678579330444336,-0.8732887506484985,0.3337637782096863,-0.2896359860897064,-1.471045970916748,-1.4558019638061523,26.700000762939453,-172.5,-17.700000762939453
1447029,14.810019493103027,19.599349975585938,-6.736286163330078,4.359784126281738,6.318637847900391,5.304912090301514,-21.30000114440918,-167.70001220703125,-26.700000762939453
1447049,18.333681106567383,19.598752975463867,-6.209920406341553,-0.2972579896450043,4.5503339767456055,4.809482097625732,-30.900001525878906,-165.3000030517578,-21.900001525878906
1447091,11.350958824157715,19.599349975585938,-7.212408065795898,1.600619912147522,-3.0335559844970703,-5.945159912109375,-21.30000114440918,-174.90000915527344,-23.700000762939453
1447145,-0.3666616380214691,3.1916909217834473,1.5623494386672974,-0.19054999947547913,-8.826275825500488,-21.77605438232422,26.700000762939453,-191.70001220703125,-27.900001525878906
1447169,-2.45298433303833,-1.8769726753234863,0.7644267082214355,-0.457319974899292,-0.39634400606155396,-14.7180814743042,36.30000305175781,-167.70001220703125,-33.30000305175781
1447211,1.0479464530944824,0.5359361171722412,1.642500638961792,-2.538125991821289,-1.1814099550247192,3.765267848968506,50.70000076293945,-172.5,-27.900001525878906
1447231,1.5767048597335815,1.116134762763977,1.0934053659439087,-1.875011920928955,1.6920839548110962,3.2164838314056396,45.900001525878906,-165.3000030517578,-28.500001907348633
1447251,1.4744224548339844,0.3989613652229309,0.5514878034591675,-1.6920839548110962,1.707327961921692,3.399411916732788,31.500001907348633,-184.5,-30.900001525878906
1447271,1.0808444023132324,-0.10646945238113403,0.702817976474762,-1.1661659479141235,1.3186060190200806,3.346057891845703,9.90000057220459,-182.10000610351562,-24.30000114440918
1447291,0.5939559936523438,-0.4797106683254242,0.43066293001174927,-0.6783579587936401,1.6234859228134155,2.7134318351745605,24.30000114440918,-191.70001220703125,-20.700000762939453
1447314,0.16448931396007538,-0.5790023803710938,0.18721875548362732,-0.35061198472976685,0.9832379817962646,1.3186060190200806,26.700000762939453,-186.90000915527344,-31.500001907348633
1447334,0.06639386713504791,-0.7614359855651855,0.0544310100376606,0.030487999320030212,0.7698220014572144,0.3201240003108978,21.900001525878906,-179.70001220703125,-25.500001907348633
1447356,0.2942863404750824,-1.0234225988388062,0.05861801281571388,0.19054999947547913,0.2896359860897064,0.16768398880958557,31.500001907348633,-170.10000610351562,-18.30000114440918
1447376,1.2555021047592163,0.8302224278450012,-0.19918161630630493,0.9603719711303711,0.4344539940357208,2.4237959384918213,29.100000381469727,-191.70001220703125,-23.700000762939453
1447398,2.1915957927703857,3.3549840450286865,-0.43484994769096375,0.8765299916267395,1.7149499654769897,5.350644111633301,29.100000381469727,-184.5,-24.30000114440918
1447418,2.688652753829956,5.769687175750732,-1.0796480178833008,1.1280559301376343,5.411619663238525,8.940606117248535,14.700000762939453,-179.70001220703125,-20.100000381469727
1447480,15.446444511413574,19.568246841430664,-8.119193077087402,-2.0579400062561035,8.071698188781738,4.718018054962158,-35.70000076293945,-165.3000030517578,-29.100000381469727
1447510,19.599349975585938,19.598752975463867,-6.209920406341553,-4.0396599769592285,-2.073184013366699,8.971094131469727,-52.500003814697266,-165.3000030517578,-33.30000305175781
1447550,13.150771141052246,19.599349975585938,-6.227266311645508,0.510673999786377,1.295740008354187,-5.1067399978637695,-54.900001525878906,-162.90000915527344,-23.100000381469727
1447627,-2.0378730297088623,-4.1032609939575195,0.818259596824646,-0.800309956073761,1.92836594581604,-11.768367767333984,14.700000762939453,-174.90000915527344,-26.100000381469727
1447651,0.6047225594520569,-1.4008508920669556,-0.1782466024160385,-3.0869100093841553,-0.38109999895095825,2.4009299278259277,5.100000381469727,-186.90000915527344,-26.100000381469727
1447691,1.8578320741653442,0.8756812810897827,0.5837875604629517,-1.0823240280151367,0,0.20579399168491364,-9.300000190734863,-184.5,-24.900001525878906
1447711,1.4839926958084106,0.41451308131217957,0.8762794733047485,-0.3048799932003021,-1.417691946029663,0.05335399881005287,2.700000047683716,-182.10000610351562,-24.30000114440918
1447771,0.4103260636329651,-1.3559901714324951,0.39058735966682434,1.2804960012435913,-1.3414719104766846,-1.600619912147522,9.90000057220459,-177.3000030517578,-29.700000762939453
1447807,0.37144678831100464,-0.9683934450149536,0.06878644227981567,1.4558019638061523,-0.39634400606155396,-0.7850660085678101,7.500000476837158,-177.3000030517578,-18.30000114440918
1447827,0.33615633845329285,-0.7315288782119751,0.1692744642496109,1.0747020244598389,-0.49542999267578125,0.22103799879550934,12.300000190734863,-182.10000610351562,-23.100000381469727
1447867,2.9015915393829346,6.375007629394531,-1.0575168132781982,0.6478700041770935,3.0640439987182617,10.228723526000977,5.100000381469727,-165.3000030517578,-28.500001907348633
1447888,2.5684258937835693,10.090073585510254,-0.91276615858078,0.38109999895095825,7.408583641052246,11.17385196685791,-6.900000095367432,-177.3000030517578,-16.5
1447930,12.232024192810059,19.599349975585938,-7.315288543701172,3.6280720233917236,14.626617431640625,9.984819412231445,-42.900001525878906,-182.10000610351562,-28.500001907348633
1447988,16.606842041015625,19.599349975585938,-4.9286980628967285,-2.1570260524749756,-2.4695279598236084,-3.871975898742676,-47.70000076293945,-174.90000915527344,-23.100000381469727
1448029,7.387663841247559,15.121054649353027,-4.72772216796875,-4.626554012298584,-14.260761260986328,-11.082387924194336,-23.700000762939453,-165.3000030517578,-29.100000381469727
1448105,-1.1257051229476929,-2.721550464630127,0.41989636421203613,-1.8216580152511597,0.04573199898004532,-4.489357948303223,26.700000762939453,-189.3000030517578,-27.30000114440918
1448129,1.3661586046218872,1.126901388168335,1.4552818536758423,-2.3551979064941406,-0.6554920077323914,2.6295900344848633,21.900001525878906,-174.90000915527344,-23.100000381469727
1448169,1.1855193376541138,0.10048802196979523,1.007272720336914,-0.7621999979019165,1.9893419742584229,1.3033620119094849,21.900001525878906,-191.70001220703125,-29.100000381469727
1448189,0.6172835230827332,-0.7632304430007935,0.7650248408317566,-0.007621999830007553,2.6677000522613525,0.6631140112876892,5.100000381469727,-191.70001220703125,-29.100000381469727
1448209,0.36546534299850464,-1.012057900428772,0.44800907373428345,0.685979962348938,1.92836594581604,0.7317119836807251,21.900001525878906,-179.70001220703125,-18.900001525878906
1448229,0.3403433561325073,-0.9414770603179932,0.4210926592350006,0.914639949798584,1.4634239673614502,0.6936019659042358,12.300000190734863,-174.90000915527344,-31.500001907348633
1448251,0.48030880093574524,-0.92173832654953,0.7303325533866882,0.8231759667396545,0.457319974899292,0.3201240003108978,17.100000381469727,-182.10000610351562,-25.500001907348633
1448271,0.7410991191864014,-0.9354956150054932,0.8732887506484985,0.5564059615135193,0.8155539631843567,0.7621999979019165,14.700000762939453,-184.5,-29.100000381469727
1448291,2.065985918045044,2.8633103370666504,0.16389118134975433,2.484771966934204,2.987823963165283,4.89332389831543,17.100000381469727,-179.70001220703125,-33.30000305175781
1448311,4.774975299835205,10.068540573120117,-1.2555021047592163,2.324709892272949,9.268351554870605,14.276005744934082,12.300000190734863,-179.70001220703125,-24.900001525878906
1448334,7.465422630310059,14.73285961151123,-2.629436492919922,1.4329359531402588,12.561056137084961,9.702805519104004,-14.100000381469727,-172.5,-32.70000076293945
1448354,9.580455780029297,19.041282653808594,-5.874361991882324,4.93143367767334,14.306493759155273,8.955849647521973,-28.500001907348633,-174.90000915527344,-26.100000381469727
1448416,12.704556465148926,19.599349975585938,0.3810170590877533,-4.100636005401611,-1.6158639192581177,8.879630088806152,-23.700000762939453,-177.3000030517578,-27.30000114440918
1448436,9.997960090637207,18.986852645874023,-5.458652973175049,0.9527499675750732,7.561023712158203,-3.0640439987182617,-16.5,-177.3000030517578,-20.700000762939453
1448456,9.619933128356934,16.774320602416992,-6.2816972732543945,-1.3414719104766846,4.161612033843994,-3.5899620056152344,-18.900001525878906,-177.3000030517578,-33.30000305175781
1448476,6.461738586425781,11.281574249267578,-2.9877240657806396,-5.8689398765563965,-11.341535568237305,-7.96498966217041,-11.700000762939453,-179.70001220703125,-26.700000762939453
1448517,2.646782636642456,6.199153900146484,-0.4755236506462097,-0.38109999895095825,1.5701320171356201,-5.007653713226318,-6.900000095367432,-189.3000030517578,-32.10000228881836
1448538,1.8620190620422363,5.224180698394775,-0.30684733390808105,-1.5701320171356201,-1.6234859228134155,-6.029001712799072,17.100000381469727,-184.5,-29.700000762939453
1448580,0.9642064571380615,3.4064242839813232,-0.2763420641422272,0.5640279650688171,0.5945159792900085,-4.306429862976074,12.300000190734863,-177.3000030517578,-28.500001907348633
1448642,2.0558173656463623,6.178218841552734,-0.7829691767692566,0.20579399168491364,1.3186060190200806,0.030487999320030212,17.100000381469727,-182.10000610351562,-29.700000762939453
1448662,2.2334659099578857,7.230950355529785,-1.24294114112854,1.1509219408035278,1.2118979692459106,1.0518360137939453,12.300000190734863,-194.10000610351562,-29.700000762939453
1448685,2.7699999809265137,8.979920387268066,-1.5719196796417236,1.8978779315948486,1.1051899194717407,2.4619059562683105,7.500000476837158,-179.70001220703125,-29.100000381469727
1448705,5.062084197998047,13.187856674194336,-2.7801685333251953,2.126538038253784,3.513741970062256,7.690598011016846,2.700000047683716,-184.5,-27.900001525878906
1448765,2.47092866897583,7.5904340744018555,-1.119125485420227,0.8079319596290588,-4.413137912750244,-8.186027526855469,26.700000762939453,-186.90000915527344,-21.900001525878906
1448807,2.229278802871704,9.263440132141113,-1.916450023651123,-0.8384199738502502,-2.7058098316192627,-1.7987920045852661,17.100000381469727,-174.90000915527344,-24.30000114440918
1448850,2.604912757873535,7.998965740203857,-1.2519131898880005,-0.46494197845458984,-2.2103798389434814,-1.3567159175872803,17.100000381469727,-179.70001220703125,-26.700000762939453
1448890,3.1970741748809814,8.128763198852539,-1.0856294631958008,0.35061198472976685,-1.6920839548110962,0.3048799932003021,24.30000114440918,-172.5,-29.700000762939453
1448910,3.5152862071990967,8.682642936706543,-1.1663787364959717,0.35061198472976685,-1.0899460315704346,0.571649968624115,26.700000762939453,-184.5,-30.30000114440918
1448952,3.881349802017212,9.540380477905273,-1.4283654689788818,-0.35061198472976685,0.16768398880958557,0.2591480016708374,19.5,-172.5,-36.30000305175781
1449031,3.2568883895874023,9.377087593078613,-1.6018269062042236,-0.2743920087814331,-0.5182960033416748,-0.39634400606155396,26.700000762939453,-177.3000030517578,-26.700000762939453
1449130,3.329263687133789,8.59890365600586,-1.0533298254013062,-2.5762360095977783,0.9832379817962646,3.361301898956299,26.700000762939453,-177.3000030517578,-26.700000762939453
1449150,3.779067277908325,9.02896785736084,-0.8170632719993591,-2.1494040489196777,2.0655620098114014,3.49849796295166,14.700000762939453,-191.70001220703125,-31.500001907348633
1449190,3.8053855895996094,9.136035919189453,-1.2746427059173584,0.33536797761917114,2.28659987449646,0.5335400104522705,17.100000381469727,-174.90000915527344,-24.30000114440918
1449230,3.1875038146972656,9.067249298095703,-1.1962859630584717,0.426831990480423,0.9984819889068604,-0.3277460038661957,21.900001525878906,-179.70001220703125,-27.30000114440918
1449451,3.6109890937805176,8.80885124206543,-0.8547462821006775,1.1128119230270386,-1.6311079263687134,-3.1326420307159424,2.700000047683716,-177.3000030517578,-29.700000762939453
1449485,3.186307668685913,8.56480884552002,-1.0449557304382324,1.6920839548110962,1.1128119230270386,-2.4771499633789062,5.100000381469727,-182.10000610351562,-30.900001525878906
1449505,3.267056941986084,8.664100646972656,-1.61737859249115,1.2881180047988892,1.7454379796981812,-1.4100699424743652,7.500000476837158,-186.90000915527344,-31.500001907348633
1449546,3.532034158706665,8.718531608581543,-1.1777435541152954,-0.7545779943466187,-0.6402480006217957,-0.6097599864006042,9.90000057220459,-196.50001525878906,-29.100000381469727
1449566,3.6259427070617676,8.797487258911133,-0.92173832654953,-0.7240899801254272,0.8765299916267395,-0.2439039945602417,14.700000762939453,-182.10000610351562,-24.30000114440918
1449606,3.8203392028808594,8.92548942565918,-1.539620041847229,-0.46494197845458984,0.853663980960846,-1.2652519941329956,17.100000381469727,-179.70001220703125,-28.500001907348633
1449626,3.422574043273926,8.296242713928223,-1.1795378923416138,0.28201398253440857,-0.2896359860897064,-1.2881180047988892,14.700000762939453,-186.90000915527344,-31.500001907348633
1449646,3.732412099838257,8.935657501220703,-1.0724703073501587,0.26677000522613525,0.8155539631843567,-0.6707359552383423,14.700000762939453,-184.5,-27.30000114440918
1449666,3.514688014984131,8.76518726348877,-1.2483243942260742,0.7926880121231079,1.8140360116958618,-0.7164679765701294,-2.1000001430511475,-172.5,-25.500001907348633
1449726,3.299954891204834,8.61684799194336,-1.9218333959579468,1.6082419157028198,6.3719916343688965,-1.196653962135315,12.300000190734863,-184.5,-20.700000762939453
1449747,3.579885721206665,8.64675521850586,-2.124603748321533,0.5259180068969727,4.329296112060547,-0.571649968624115,17.100000381469727,-174.90000915527344,-27.900001525878906
1449768,3.6133816242218018,8.843544006347656,-1.7340164184570312,-0.17530599236488342,1.6082419157028198,-0.6250039935112,19.5,-186.90000915527344,-25.500001907348633
1449789,3.586465358734131,8.707167625427246,-1.4929648637771606,0.28201398253440857,1.0747020244598389,-1.0823240280151367,17.100000381469727,-179.70001220703125,-28.500001907348633
1449809,3.4381258487701416,8.936256408691406,-1.422982096672058,-0.04573199898004532,1.4862899780273438,-1.0823240280151367,26.700000762939453,-189.3000030517578,-26.700000762939453
1449831,3.66302752494812,8.81004810333252,-1.4570763111114502,0.228659987449646,2.1036720275878906,-0.7621999979019165,29.100000381469727,-186.90000915527344,-25.500001907348633
1449851,3.45786452293396,8.82201099395752,-1.3751306533813477,0.7088459730148315,2.583858013153076,-1.2881180047988892,21.900001525878906,-186.90000915527344,-29.700000762939453
1449874,3.648672103881836,8.80885124206543,-1.6801836490631104,0.8384199738502502,2.9268479347229004,-1.3948259353637695,33.900001525878906,-174.90000915527344,-24.30000114440918
1449915,3.4213778972625732,8.856104850769043,-1.7130814790725708,0.5335400104522705,1.8673899173736572,-2.2180018424987793,21.900001525878906,-179.70001220703125,-25.500001907348633
1449937,3.3071324825286865,8.96137809753418,-1.9828439950942993,0.33536797761917114,1.0289700031280518,-2.484771966934204,31.500001907348633,-182.10000610351562,-14.100000381469727
1449977,3.2802159786224365,9.032556533813477,-2.0408637523651123,-4.28356409072876,-6.775958061218262,-2.6600780487060547,31.500001907348633,-182.10000610351562,-28.500001907348633
1450017,2.042060136795044,9.06485652923584,-0.7309306859970093,-2.789651870727539,-4.1387457847595215,-1.8369019031524658,41.10000228881836,-177.3000030517578,-24.900001525878906
1450037,3.323880434036255,9.25925350189209,-1.1621917486190796,-4.519845962524414,1.5167779922485352,-1.4481799602508545,29.100000381469727,-177.3000030517578,-31.500001907348633
1450101,2.7382984161376953,9.16654109954834,-0.827829897403717,-2.126538038253784,1.2576299905776978,-1.2118979692459106,45.900001525878906,-196.50001525878906,-23.700000762939453
1450148,2.4248716831207275,8.91053581237793,-0.9175513386726379,-1.2652519941329956,0.7774440050125122,-0.685979962348938,48.30000305175781,-194.10000610351562,-30.30000114440918
1450168,2.575005531311035,9.114502906799316,-0.7369121313095093,-0.6783579587936401,0.4725639820098877,-0.28201398253440857,50.70000076293945,-174.90000915527344,-27.30000114440918
1450212,2.5265560150146484,9.15756893157959,-0.8589333295822144,-0.1600620001554489,0.44969800114631653,0.28201398253440857,29.100000381469727,-174.90000915527344,-28.500001907348633
1450232,2.5791923999786377,9.15756893157959,-0.9109717607498169,-0.25152599811553955,0.2972579896450043,0.3277460038661957,55.500003814697266,-177.3000030517578,-33.30000305175781
1450252,2.6449882984161377,9.20721435546875,-0.9827489256858826,-0.25152599811553955,0.12195199728012085,0.342989981174469,41.10000228881836,-172.5,-36.30000305175781
1450272,2.6808767318725586,9.170727729797363,-0.9899266362190247,-0.2439039945602417,0.038109999150037766,0.2134159952402115,36.30000305175781,-184.5,-35.70000076293945
1450292,2.750859498977661,9.1802978515625,-0.9935154914855957,-0.19817200303077698,-0.07621999830007553,0.060975998640060425,41.10000228881836,-184.5,-27.900001525878906
1450315,2.753850221633911,9.056482315063477,-0.8679054379463196,-0.2972579896450043,-0.12195199728012085,0.007621999830007553,33.900001525878906,-177.3000030517578,-33.900001525878906
1450335,2.7257375717163086,9.09177303314209,-0.8756812810897827,-0.17530599236488342,-0.038109999150037766,0.038109999150037766,41.10000228881836,-177.3000030517578,-24.900001525878906
1450357,2.9697799682617188,6.376802444458008,-8.79808521270752,9.603719711303711,-9.390303611755371,4.4436259269714355,45.900001525878906,-170.10000610351562,-28.500001907348633
1450400,1.738203525543213,9.364526748657227,-2.4105162620544434,-0.2972579896450043,1.1051899194717407,0.19817200303077698,45.900001525878906,-191.70001220703125,-35.10000228881836
1450440,2.8830490112304688,9.185681343078613,-1.0006932020187378,0.02286599949002266,0.9375059604644775,0.3734779953956604,29.100000381469727,-165.3000030517578,-26.700000762939453
1450460,2.906376600265503,9.213794708251953,-0.9839451909065247,-0.2743920087814331,0.342989981174469,1.2728739976882935,26.700000762939453,-172.5,-32.70000076293945
1450480,3.1402506828308105,9.254467964172363,-0.9713841676712036,-0.342989981174469,-1.4939119815826416,1.5625100135803223,29.100000381469727,-184.5,-26.700000762939453
1450500,3.0900065898895264,9.155774116516113,-0.8726906180381775,-0.3887220025062561,-3.3155698776245117,1.600619912147522,36.30000305175781,-177.3000030517578,-35.70000076293945
1450520,3.017033100128174,9.019397735595703,-0.9085791707038879,-0.228659987449646,-4.8552141189575195,1.600619912147522,41.10000228881836,-182.10000610351562,-30.900001525878906
1450540,3.1252970695495605,9.479968070983887,-0.08134744316339493,-0.5335400104522705,-4.397893905639648,1.4634239673614502,31.500001907348633,-196.50001525878906,-26.700000762939453
1450560,3.031388521194458,9.115100860595703,-0.2811271846294403,-0.510673999786377,0.13719600439071655,0.228659987449646,33.900001525878906,-189.3000030517578,-32.10000228881836
1450581,3.597231864929199,10.416061401367188,0.6142928600311279,-0.4420759975910187,8.064075469970703,-0.5487840175628662,33.900001525878906,-189.3000030517578,-33.30000305175781
1450601,3.959108352661133,7.8350749015808105,-1.7561477422714233,0.6783579587936401,7.096081733703613,-6.265284061431885,29.100000381469727,-177.3000030517578,-28.500001907348633
1450621,1.0790499448776245,7.882328033447266,-0.9444677233695984,-0.1448179930448532,0.1448179930448532,-1.600619912147522,36.30000305175781,-179.70001220703125,-27.30000114440918
1450641,3.6474759578704834,9.456042289733887,-1.3224941492080688,-0.4725639820098877,-1.6387299299240112,0.6936019659042358,38.70000076293945,-198.90000915527344,-30.30000114440918
1450661,2.7400929927825928,8.2980375289917,-0.003588857827708125,-0.3582339882850647,-2.225623846054077,-0.5259180068969727,38.70000076293945,-186.90000915527344,-30.30000114440918
1450681,2.8537402153015137,8.193960189819336,-0.6238631010055542,0.342989981174469,-0.8689079880714417,-0.1295740008354187,21.900001525878906,-177.3000030517578,-30.900001525878906
1450701,2.5827813148498535,7.587443828582764,-0.355895072221756,0.114329993724823,-1.067080020904541,-0.41158798336982727,38.70000076293945,-189.3000030517578,-32.70000076293945
1450721,2.668315887451172,7.823709964752197,-0.5221788287162781,0.7164679765701294,-0.44969800114631653,0.060975998640060425,24.30000114440918,-189.3000030517578,-23.100000381469727
1450741,3.2503089904785156,9.4375,-0.90977543592453,1.6082419157028198,0.20579399168491364,0.342989981174469,29.100000381469727,-177.3000030517578,-23.100000381469727
1450764,3.7240381240844727,9.845433235168457,-1.6102008819580078,1.806414008140564,1.0823240280151367,-0.2134159952402115,31.500001907348633,-174.90000915527344,-27.30000114440918
1450784,3.2407386302948,8.604286193847656,-1.9983956813812256,2.1570260524749756,0.19817200303077698,-1.1280559301376343,21.900001525878906,-191.70001220703125,-30.900001525878906
1450804,3.46683669090271,9.12168025970459,-2.1389591693878174,3.208861827850342,-0.571649968624115,-0.510673999786377,26.700000762939453,-179.70001220703125,-35.70000076293945
1450827,3.874770164489746,9.953099250793457,-2.4691340923309326,2.7210538387298584,-0.17530599236488342,-1.2576299905776978,26.700000762939453,-189.3000030517578,-27.30000114440918
1450847,4.112831115722656,9.598400115966797,-2.7705981731414795,2.8658719062805176,-0.10670799762010574,-1.8597679138183594,31.500001907348633,-172.5,-34.5
1450867,3.902284860610962,8.62282943725586,-2.6270439624786377,2.3704419136047363,-1.3795819282531738,-1.935987949371338,33.900001525878906,-186.90000915527344,-29.100000381469727
1450929,3.9543232917785645,8.134744644165039,-2.175446033477783,0.26677000522613525,-1.067080020904541,-0.571649968624115,33.900001525878906,-182.10000610351562,-30.900001525878906
1450949,4.0165300369262695,7.993582725524902,-2.1114447116851807,-0.05335399881005287,-0.9070180058479309,-0.41158798336982727,41.10000228881836,-184.5,-24.900001525878906
1450972,4.047633647918701,7.905655860900879,-2.1389591693878174,-0.23628199100494385,-0.9451279640197754,-0.20579399168491364,29.100000381469727,-189.3000030517578,-23.700000762939453
1450992,4.050624370574951,7.860196590423584,-2.131781578063965,-0.38109999895095825,-1.0594580173492432,-0.09146399796009064,36.30000305175781,-184.5,-19.5
1451013,4.201954364776611,8.117398262023926,-2.2125308513641357,-0.2134159952402115,-1.2042759656906128,0.015243999660015106,36.30000305175781,-172.5,-23.100000381469727
1451034,4.108644008636475,8.019901275634766,-2.1802310943603516,-0.12195199728012085,-1.1509219408035278,-0.13719600439071655,50.70000076293945,-177.3000030517578,-20.100000381469727
1451054,4.045838832855225,8.069546699523926,-2.268158197402954,0.10670799762010574,-1.0594580173492432,-0.10670799762010574,41.10000228881836,-186.90000915527344,-32.70000076293945
1451094,3.7994041442871094,8.192764282226562,-2.2615785598754883,0.3277460038661957,-1.3567159175872803,-0.7850660085678101,38.70000076293945,-189.3000030517578,-25.500001907348633
1451160,3.7222437858581543,8.76698112487793,-1.9547312259674072,0.12195199728012085,-1.3567159175872803,-1.5929979085922241,48.30000305175781,-177.3000030517578,-25.500001907348633
1451202,3.3645541667938232,8.451162338256836,-1.7591384649276733,-0.46494197845458984,-2.2180018424987793,-4.634175777435303,48.30000305175781,-186.90000915527344,-27.900001525878906
1451291,0.5245713591575623,8.176614761352539,-1.4923666715621948,-0.8231759667396545,-1.295740008354187,-1.7225719690322876,50.70000076293945,-179.70001220703125,-23.700000762939453
1451311,-0.7345195412635803,8.994874000549316,-2.357281446456909,0.9451279640197754,0.7545779943466187,0.7926880121231079,43.5,-167.70001220703125,-27.30000114440918
1451331,-0.28770676255226135,11.052485466003418,-3.2688512802124023,0.4039659798145294,0.9908599853515625,2.126538038253784,45.900001525878906,-184.5,-23.100000381469727
1451351,0.46714967489242554,12.053178787231445,-3.41001296043396,-0.7774440050125122,-1.2500079870224,0.7698220014572144,43.5,-170.10000610351562,-27.30000114440918
1451374,0.02691643312573433,10.090073585510254,-2.530742883682251,-0.4192099869251251,-3.1173980236053467,-2.591480016708374,43.5,-184.5,-27.30000114440918
1451395,-0.3020622134208679,9.383069038391113,-2.2825136184692383,-0.2591480016708374,-2.1036720275878906,-1.8445239067077637,53.10000228881836,-177.3000030517578,-23.700000762939453
1451415,-0.032897863537073135,9.85679817199707,-2.3387389183044434,-0.2972579896450043,-1.5015339851379395,-0.6250039935112,55.500003814697266,-191.70001220703125,-24.900001525878906
1451435,0.1782466024160385,10.254563331604004,-2.2244937419891357,0.09908600151538849,-1.2576299905776978,-0.7088459730148315,41.10000228881836,-184.5,-23.700000762939453
1451455,0.3989613652229309,10.337106704711914,-2.167072057723999,-0.09908600151538849,-1.2347639799118042,-1.5396440029144287,65.10000610351562,-174.90000915527344,-27.900001525878906
1451475,0.4133167862892151,9.161755561828613,-1.921235203742981,0.19817200303077698,-0.9222619533538818,-2.332331895828247,65.10000610351562,-186.90000915527344,-23.700000762939453
1451495,0.45817750692367554,8.896180152893066,-1.6789872646331787,0.15243999660015106,-1.0747020244598389,-1.6387299299240112,62.70000076293945,-184.5,-29.100000381469727
1451515,0.5831893682479858,8.614455223083496,-1.426571011543274,0.16768398880958557,-0.3125019967556,-1.3338500261306763,60.30000305175781,-194.10000610351562,-15.90000057220459
1451539,0.6083114147186279,8.623427391052246,-1.521675705909729,0.5640279650688171,0.4192099869251251,-1.3795819282531738,65.10000610351562,-194.10000610351562,-26.700000762939453
1451560,0.6794903874397278,8.510976791381836,-1.5749104022979736,0.8765299916267395,0.4725639820098877,-1.7149499654769897,60.30000305175781,-177.3000030517578,-24.30000114440918
1451580,0.7309306859970093,8.635988235473633,-1.4917685985565186,1.0747020244598389,0.3201240003108978,-1.6234859228134155,62.70000076293945,-177.3000030517578,-16.5
1451600,0.9402807354927063,8.464919090270996,-1.4684410095214844,0.6554920077323914,0.800309956073761,-1.7911700010299683,60.30000305175781,-179.70001220703125,-17.100000381469727
1451620,1.306942343711853,9.24609375,-1.5796955823898315,0.9298839569091797,1.0289700031280518,-0.9070180058479309,62.70000076293945,-170.10000610351562,-21.900001525878906
1451640,0.6711164116859436,8.948817253112793,-1.634724736213684,-0.1600620001554489,1.3414719104766846,-1.6082419157028198,65.10000610351562,-186.90000915527344,-19.5
1451660,0.6549665331840515,8.303421020507812,-1.652669072151184,0.426831990480423,1.0518360137939453,-2.14178204536438,81.9000015258789,-182.10000610351562,-23.700000762939453
1451683,1.0796480178833008,9.42733097076416,-1.718464732170105,0.2134159952402115,0.7317119836807251,-1.6311079263687134,67.5,-182.10000610351562,-20.100000381469727
1451703,0.9660009145736694,8.79987907409668,-1.8177565336227417,0.1295740008354187,1.7454379796981812,-2.4542839527130127,72.30000305175781,-167.70001220703125,-28.500001907348633
1451723,1.040170669555664,8.620436668395996,-2.2017643451690674,0.800309956073761,2.1646480560302734,-2.324709892272949,62.70000076293945,-172.5,-18.900001525878906
1451743,1.0425631999969482,8.390151023864746,-2.408721685409546,0.8079319596290588,1.882633924484253,-2.0655620098114014,79.5,-170.10000610351562,-18.900001525878906
1451763,1.2537076473236084,8.387160301208496,-2.387786626815796,0.7621999979019165,1.4481799602508545,-1.5701320171356201,69.9000015258789,-174.90000915527344,-21.900001525878906
1451783,1.3882898092269897,8.784327507019043,-2.647380828857422,0.9070180058479309,2.126538038253784,-1.4939119815826416,86.70000457763672,-177.3000030517578,-23.700000762939453
1451824,1.927216649055481,9.28317928314209,-3.705495595932007,1.5015339851379395,2.599102020263672,-1.6387299299240112,91.5,-174.90000915527344,-15.300000190734863
1451844,2.5050227642059326,10.20132827758789,-3.963893413543701,0.8460419774055481,2.0198299884796143,-0.9984819889068604,89.10000610351562,-177.3000030517578,-21.900001525878906
1451864,2.7071950435638428,10.3735933303833,-4.29945182800293,0.5182960033416748,1.6615959405899048,-1.92836594581604,84.30000305175781,-158.10000610351562,-15.90000057220459
1451884,2.2370548248291016,9.556529998779297,-4.60211181640625,0.9298839569091797,0.9832379817962646,-2.736297845840454,98.70000457763672,-170.10000610351562,-18.30000114440918
1451904,2.226288080215454,9.386059761047363,-4.88802433013916,1.3414719104766846,-0.2743920087814331,-2.0122079849243164,91.5,-177.3000030517578,-20.700000762939453
1451924,2.4912655353546143,9.788609504699707,-4.882640838623047,1.067080020904541,-2.0579400062561035,-1.1204339265823364,84.30000305175781,-160.5,-20.100000381469727
1451944,2.7203543186187744,9.55593204498291,-4.3383307456970215,0.28201398253440857,-3.361301898956299,-1.1585439443588257,84.30000305175781,-174.90000915527344,-20.100000381469727
1452009,2.012152910232544,7.360149383544922,-3.1276895999908447,-1.425313949584961,-1.5320219993591309,-0.6707359552383423,89.10000610351562,-170.10000610351562,-20.700000762939453
1452029,2.163483142852783,7.420561790466309,-2.555266857147217,-1.7606819868087769,-1.295740008354187,0.6478700041770935,74.70000457763672,-177.3000030517578,-24.30000114440918
1452049,2.342327833175659,7.813541412353516,-2.1838200092315674,-1.8978779315948486,-0.13719600439071655,0.6783579587936401,84.30000305175781,-174.90000915527344,-31.500001907348633
1452071,2.313616991043091,7.61196756362915,-2.2280826568603516,-1.4405579566955566,0.8231759667396545,-0.05335399881005287,105.9000015258789,-155.70001220703125,-24.30000114440918
1452091,3.0840251445770264,8.994874000549316,-2.7137746810913086,-0.007621999830007553,0.6021379828453064,1.2042759656906128,81.9000015258789,-158.10000610351562,-22.5
1452133,3.419583320617676,8.53310775756836,-1.4546836614608765,-0.4192099869251251,-1.242385983467102,-0.342989981174469,86.70000457763672,-179.70001220703125,-19.5
1452153,2.9458541870117188,8.498414993286133,-1.6634355783462524,-0.4192099869251251,0.22103799879550934,-0.07621999830007553,86.70000457763672,-170.10000610351562,-25.500001907348633
1452173,2.635417938232422,9.005640983581543,-2.0940985679626465,0.07621999830007553,0.9756159782409668,0.22103799879550934,89.10000610351562,-172.5,-25.500001907348633
1452197,2.1778385639190674,9.420153617858887,-2.522368907928467,0.114329993724823,0.8765299916267395,-0.25152599811553955,93.9000015258789,-167.70001220703125,-20.100000381469727
1452217,1.4666465520858765,9.10194206237793,-2.44401216506958,0.3582339882850647,0.28201398253440857,-0.6478700041770935,91.5,-162.90000915527344,-21.900001525878906
1452239,0.6011337041854858,11.656012535095215,-3.0146405696868896,0.19817200303077698,1.5320219993591309,0.5487840175628662,86.70000457763672,-177.3000030517578,-20.700000762939453
1452259,0.0795530155301094,11.021382331848145,-3.2090370655059814,-0.2591480016708374,1.7835479974746704,-2.4542839527130127,86.70000457763672,-174.90000915527344,-23.700000762939453
1452279,-0.7333232760429382,8.977527618408203,-3.124100685119629,0.571649968624115,-0.6707359552383423,-4.07014799118042,103.50000762939453,-172.5,-25.500001907348633
1452299,-1.1245087385177612,8.417067527770996,-2.4254696369171143,-0.571649968624115,-1.5548880100250244,-1.478667974472046,89.10000610351562,-172.5,-18.30000114440918
1452319,-1.2596890926361084,8.483461380004883,-2.0306954383850098,-1.0365920066833496,0.7240899801254272,-0.4420759975910187,101.10000610351562,-165.3000030517578,-16.5
1452339,-1.6299395561218262,8.161661148071289,-2.998490810394287,0.8079319596290588,3.0792880058288574,-0.9298839569091797,101.10000610351562,-170.10000610351562,-21.30000114440918
1452362,-1.4164025783538818,7.782438278198242,-3.8651998043060303,1.577754020690918,1.653973937034607,-0.7545779943466187,96.30000305175781,-177.3000030517578,-15.90000057220459
1452382,-1.1825286149978638,8.064762115478516,-3.5152862071990967,0.7240899801254272,-1.8902559280395508,0.1600620001554489,93.9000015258789,-162.90000915527344,-18.900001525878906
1452405,-0.715977132320404,8.794496536254883,-2.7969164848327637,0.2439039945602417,-2.179892063140869,0,93.9000015258789,-167.70001220703125,-11.700000762939453
1452425,0.9630101919174194,10.797079086303711,-3.055314302444458,-1.0594580173492432,0.7621999979019165,1.189031958580017,103.50000762939453,-170.10000610351562,-18.900001525878906
1452445,1.2010711431503296,11.101533889770508,-3.0032758712768555,-1.7759259939193726,1.0061039924621582,0.1600620001554489,96.30000305175781,-189.3000030517578,-20.100000381469727
1452465,0.03588857874274254,8.51217269897461,-2.917741298675537,-0.4344539940357208,1.6768399477005005,-3.407033920288086,103.50000762939453,-172.5,-20.100000381469727
1452485,-0.8074930310249329,7.8350749015808105,-2.9769575595855713,-0.3201240003108978,0.967993974685669,-1.5091559886932373,101.10000610351562,-162.90000915527344,-25.500001907348633
1452505,-0.708799421787262,8.47030258178711,-2.872880697250366,-0.7088459730148315,1.1585439443588257,0.2134159952402115,101.10000610351562,-160.5,-21.900001525878906
1452525,-0.6406111121177673,9.93455696105957,-3.042753219604492,-0.38109999895095825,2.126538038253784,1.2500079870224,103.50000762939453,-172.5,-18.30000114440918
1452547,-2.155109167098999,9.167139053344727,-3.9333882331848145,0.9832379817962646,2.4085519313812256,-0.46494197845458984,105.9000015258789,-172.5,-23.700000762939453
1452568,-3.627139091491699,9.639074325561523,-4.329957008361816,1.2728739976882935,0.5564059615135193,-0.2591480016708374,108.30000305175781,-174.90000915527344,-22.5
1452588,-4.201356410980225,10.715731620788574,-4.624841690063477,0.8231759667396545,-0.7850660085678101,-0.5792719721794128,122.70000457763672,-177.3000030517578,-15.90000057220459
1452608,-4.971166133880615,10.913118362426758,-4.969371795654297,0.2591480016708374,-2.0198299884796143,-2.6067240238189697,103.50000762939453,-172.5,-15.300000190734863
1452628,-5.759518623352051,10.586532592773438,-5.5340189933776855,1.0594580173492432,-2.7286758422851562,-3.1326420307159424,93.9000015258789,-170.10000610351562,-18.30000114440918
1452648,-5.346799850463867,10.654122352600098,-5.905465602874756,1.0823240280151367,-5.754610061645508,-3.1173980236053467,113.10000610351562,-162.90000915527344,-19.5
1452669,-3.8317039012908936,10.084092140197754,-5.034569263458252,-0.2972579896450043,-12.019893646240234,-4.336917877197266,110.70000457763672,-170.10000610351562,-15.90000057220459
1452690,-3.570315361022949,8.56002426147461,-2.733513355255127,-1.707327961921692,-14.992473602294922,-6.234796047210693,125.10000610351562,-165.3000030517578,-17.100000381469727
1452710,-2.8573288917541504,6.526936054229736,-1.6191730499267578,-0.23628199100494385,-9.618964195251465,-6.844555854797363,127.50000762939453,-165.3000030517578,-18.900001525878906
1452730,-2.840580940246582,5.358762741088867,-2.2406435012817383,1.2347639799118042,-4.672286033630371,-4.862835884094238,132.3000030517578,-158.10000610351562,-16.5
1452750,-1.8327100276947021,6.265547752380371,-2.623455047607422,0.8841519951820374,-4.169233798980713,-0.41158798336982727,129.90000915527344,-162.90000915527344,-20.100000381469727
1452770,-1.5844807624816895,6.2787065505981445,-1.84646737575531,-0.571649968624115,-3.3308138847351074,0.05335399881005287,132.3000030517578,-162.90000915527344,-17.100000381469727
1452790,-1.9577219486236572,4.791723251342773,-2.2962708473205566,1.4481799602508545,1.0899460315704346,0.22103799879550934,151.5,-165.3000030517578,-24.900001525878906
1452810,-0.7961282730102539,6.059786319732666,-3.4799957275390625,1.7225719690322876,1.3948259353637695,4.2149658203125,129.90000915527344,-165.3000030517578,-20.100000381469727
1452830,1.0975923538208008,7.422954082489014,-3.2568883895874023,-0.6936019659042358,0.19817200303077698,6.326260089874268,120.30000305175781,-170.10000610351562,-20.700000762939453
1452850,2.2520081996917725,8.265737533569336,-2.6814749240875244,-0.6936019659042358,-0.8155539631843567,6.654006004333496,132.3000030517578,-165.3000030517578,-23.100000381469727
1452870,3.2766273021698,8.954200744628906,-2.190399646759033,-2.134160041809082,0.5411620140075684,6.257661819458008,120.30000305175781,-162.90000915527344,-21.30000114440918
1452891,3.2688512802124023,8.572585105895996,-2.384796142578125,-1.9664759635925293,3.4756319522857666,4.64179801940918,108.30000305175781,-172.5,-24.30000114440918
1452911,4.855724811553955,9.388452529907227,-2.947648525238037,-2.3704419136047363,1.8902559280395508,6.5244317054748535,93.9000015258789,-162.90000915527344,-21.30000114440918
1452931,5.4771952629089355,9.825695037841797,-2.6449882984161377,-2.835383892059326,0.49542999267578125,7.10370397567749,96.30000305175781,-167.70001220703125,-15.300000190734863
1452952,6.377998352050781,10.12775707244873,-1.8668042421340942,-3.1250200271606445,0.3048799932003021,6.6387619972229,91.5,-174.90000915527344,-18.900001525878906
1452972,6.355268955230713,9.796385765075684,-2.0588080883026123,-1.196653962135315,2.0045859813690186,5.4649739265441895,74.70000457763672,-172.5,-27.30000114440918
1452992,8.030069351196289,11.185273170471191,-2.527153968811035,-0.1448179930448532,3.246971845626831,5.975647926330566,72.30000305175781,-172.5,-25.500001907348633
1453032,7.233343124389648,10.703768730163574,-3.5392119884490967,2.1646480560302734,2.9268479347229004,2.14178204536438,72.30000305175781,-160.5,-26.100000381469727
1453052,7.788419723510742,11.215180397033691,-3.8759665489196777,1.9207439422607422,1.8902559280395508,1.8369019031524658,57.900001525878906,-179.70001220703125,-21.30000114440918
1453075,7.318279266357422,10.645748138427734,-3.774282217025757,1.6234859228134155,0.5030519962310791,-0.8765299916267395,60.30000305175781,-196.50001525878906,-21.30000114440918
1453095,6.757221221923828,10.658907890319824,-4.1062517166137695,1.8140360116958618,0.7545779943466187,-1.699705958366394,69.9000015258789,-174.90000915527344,-21.30000114440918
1453116,6.7500433921813965,10.816219329833984,-4.25160026550293,0.9375059604644775,0.09146399796009064,-2.987823963165283,86.70000457763672,-172.5,-23.100000381469727
1453137,6.543684005737305,9.984800338745117,-3.8980977535247803,-0.510673999786377,-0.8917739987373352,-3.7347798347473145,77.10000610351562,-172.5,-24.900001525878906
1453157,5.892904758453369,9.718626976013184,-3.4447054862976074,-0.4344539940357208,-0.6707359552383423,-2.6295900344848633,67.5,-167.70001220703125,-18.900001525878906
1453221,4.655346870422363,8.430825233459473,-2.6868581771850586,-2.073184013366699,-2.027451992034912,-4.725639820098877,84.30000305175781,-186.90000915527344,-20.700000762939453
1453267,3.2144203186035156,7.726212978363037,-2.089911460876465,-1.8902559280395508,-0.6554920077323914,-2.942091941833496,79.5,-186.90000915527344,-21.900001525878906
1453287,2.724541187286377,7.741764545440674,-1.8039991855621338,-2.1112940311431885,0.02286599949002266,-3.1326420307159424,86.70000457763672,-170.10000610351562,-16.5
1453328,1.1837249994277954,7.001263618469238,-1.83151376247406,-1.196653962135315,1.14329993724823,-4.329296112060547,103.50000762939453,-182.10000610351562,-23.700000762939453
1453349,0.12919887900352478,6.644172191619873,-1.824336051940918,-0.48018598556518555,1.3795819282531738,-4.131124019622803,113.10000610351562,-172.5,-22.5
1453390,-0.7728007435798645,7.00246000289917,-1.7118852138519287,-0.5564059615135193,0.967993974685669,-2.5686140060424805,129.90000915527344,-165.3000030517578,-22.5
1453450,-1.8105788230895996,8.490639686584473,-1.8656079769134521,-0.49542999267578125,2.5228819847106934,-1.646351933479309,115.50000762939453,-172.5,-19.5
1453470,-1.9565256834030151,8.013320922851562,-2.0109567642211914,-0.25152599811553955,2.850627899169922,-2.2484898567199707,117.9000015258789,-165.3000030517578,-17.700000762939453
1453512,-3.1342692375183105,9.40639591217041,-3.0236127376556396,0.4192099869251251,4.474113941192627,-0.49542999267578125,122.70000457763672,-172.5,-19.5
1453532,-2.7795703411102295,10.122373580932617,-3.273038387298584,0.4878079891204834,2.995445966720581,-0.9298839569091797,122.70000457763672,-155.70001220703125,-18.900001525878906
1453572,-3.20784068107605,10.01410961151123,-3.216214656829834,0.9298839569091797,2.690565824508667,-3.292703866958618,137.10000610351562,-162.90000915527344,-18.900001525878906
1453594,-3.3167028427124023,10.16962718963623,-3.684560775756836,1.882633924484253,2.545747995376587,-2.484771966934204,125.10000610351562,-158.10000610351562,-23.100000381469727
1453614,-3.1079509258270264,10.511764526367188,-3.7330102920532227,0.4039659798145294,1.6082419157028198,-1.8369019031524658,132.3000030517578,-165.3000030517578,-17.700000762939453
1453634,-3.353787660598755,9.866966247558594,-3.6175687313079834,0.4420759975910187,1.2804960012435913,-2.5228819847106934,129.90000915527344,-155.70001220703125,-14.700000762939453
1453658,-2.999088764190674,9.583446502685547,-3.847853660583496,0.7164679765701294,1.0442140102386475,-1.8902559280395508,134.70001220703125,-158.10000610351562,-21.30000114440918
1453678,-2.530742883682251,9.803563117980957,-3.9309957027435303,0.3125019967556,0.16768398880958557,-0.8307979702949524,122.70000457763672,-170.10000610351562,-21.900001525878906
1453698,-1.84945809841156,9.896873474121094,-3.8233299255371094,0.05335399881005287,-1.1661659479141235,-0.571649968624115,127.50000762939453,-165.3000030517578,-17.100000381469727
1453718,-1.6807817220687866,9.161755561828613,-3.479397773742676,0.35061198472976685,-1.6387299299240112,-1.0823240280151367,132.3000030517578,-158.10000610351562,-23.700000762939453
1453738,-1.2854092121124268,8.900965690612793,-3.484182834625244,0.1448179930448532,-1.5167779922485352,-0.5640279650688171,127.50000762939453,-160.5,-10.5
1453758,-0.9552343487739563,8.751429557800293,-3.3095250129699707,-0.2743920087814331,-1.600619912147522,-0.6631140112876892,117.9000015258789,-158.10000610351562,-21.900001525878906
1453778,-0.3911854922771454,8.744850158691406,-3.1133341789245605,-0.3582339882850647,-1.417691946029663,-0.41158798336982727,127.50000762939453,-153.3000030517578,-14.100000381469727
1453798,-0.08792701363563538,8.626418113708496,-2.6611380577087402,-0.739333987236023,-0.23628199100494385,-0.510673999786377,129.90000915527344,-158.10000610351562,-23.100000381469727
1453818,-0.041870009154081345,8.596510887145996,-2.7460744380950928,-0.5335400104522705,0.6783579587936401,-0.5411620140075684,129.90000915527344,-155.70001220703125,-20.100000381469727
1453858,0.45279422402381897,8.930274963378906,-2.9309005737304688,-0.04573199898004532,0.038109999150037766,-0.36585599184036255,144.3000030517578,-155.70001220703125,-15.90000057220459
1453881,0.412120521068573,8.893189430236816,-2.6330254077911377,0.3201240003108978,0.48018598556518555,-0.7240899801254272,129.90000915527344,-158.10000610351562,-17.700000762939453
1453901,0.4049427807331085,9.377685546875,-3.109147071838379,0.2743920087814331,1.3338500261306763,-1.021347999572754,139.5,-155.70001220703125,-20.700000762939453
1453962,-0.9552343487739563,8.86687183380127,-3.0600993633270264,-0.19054999947547913,0,0.6554920077323914,139.5,-158.10000610351562,-26.100000381469727
1453987,-1.6777909994125366,9.036744117736816,-3.1785316467285156,0,-0.038109999150037766,0.9070180058479309,149.10000610351562,-160.5,-17.100000381469727
1454007,-2.4673397541046143,9.1982421875,-2.878862142562866,-1.0365920066833496,-0.5564059615135193,1.4405579566955566,122.70000457763672,-165.3000030517578,-16.5
1454050,-5.437119483947754,10.194748878479004,-3.850844383239746,0.3048799932003021,3.0183119773864746,1.5015339851379395,127.50000762939453,-158.10000610351562,-15.90000057220459
1454070,-6.3032307624816895,10.971138000488281,-4.910155773162842,1.3795819282531738,1.9740979671478271,0.9832379817962646,132.3000030517578,-155.70001220703125,-23.100000381469727
1454090,-6.584357738494873,10.096055030822754,-5.600412845611572,1.875011920928955,-0.6631140112876892,0.35061198472976685,137.10000610351562,-165.3000030517578,-21.900001525878906
1454112,-6.316987991333008,9.810741424560547,-5.291770935058594,1.1585439443588257,-5.282045841217041,2.698187828063965,129.90000915527344,-160.5,-20.100000381469727
1454174,-2.850151300430298,8.360244750976562,-3.8077781200408936,0.35061198472976685,-4.024415969848633,0.09146399796009064,127.50000762939453,-165.3000030517578,-21.30000114440918
1454194,-1.9648996591567993,7.2327446937561035,-3.1976723670959473,0.7088459730148315,-4.588443756103516,-1.6311079263687134,129.90000915527344,-150.90000915527344,-16.5
1454216,-1.0024876594543457,6.672883033752441,-2.610893964767456,1.425313949584961,-4.169233798980713,-1.9893419742584229,122.70000457763672,-160.5,-14.100000381469727
1454236,0.2691643238067627,6.775165557861328,-2.3536925315856934,1.753059983253479,-2.888737916946411,-1.1051899194717407,122.70000457763672,-167.70001220703125,-23.700000762939453
1454258,0.6430037021636963,6.2852864265441895,-2.313616991043091,0.8841519951820374,-1.646351933479309,0.33536797761917114,141.90000915527344,-162.90000915527344,-18.30000114440918
1454278,1.60541570186615,7.541984558105469,-2.7012135982513428,0.4344539940357208,-1.7225719690322876,2.5609920024871826,132.3000030517578,-155.70001220703125,-25.500001907348633
1454298,2.3471131324768066,7.842252731323242,-2.6850638389587402,-0.26677000522613525,-1.5320219993591309,1.9664759635925293,125.10000610351562,-167.70001220703125,-21.30000114440918
1454318,2.8800582885742188,7.580265998840332,-2.9649946689605713,-0.23628199100494385,-1.0289700031280518,1.425313949584961,110.70000457763672,-165.3000030517578,-23.100000381469727
1454338,3.741384267807007,8.039041519165039,-3.20185923576355,-0.33536797761917114,-1.600619912147522,2.027451992034912,120.30000305175781,-160.5,-18.900001525878906
1454358,4.593738079071045,8.761598587036133,-2.822636604309082,-0.5411620140075684,-2.736297845840454,2.6295900344848633,132.3000030517578,-160.5,-22.5
1454398,4.867687702178955,10.256956100463867,-2.8812546730041504,-0.8917739987373352,0.28201398253440857,1.3872039318084717,113.10000610351562,-165.3000030517578,-20.700000762939453
1454418,4.812060356140137,9.786216735839844,-2.944657802581787,-0.7164679765701294,0.4725639820098877,0.6097599864006042,117.9000015258789,-172.5,-19.5
1454439,4.581177234649658,9.780834197998047,-3.064884662628174,-0.967993974685669,1.3795819282531738,1.14329993724823,108.30000305175781,-165.3000030517578,-17.100000381469727
1454459,4.33234977722168,10.00513744354248,-3.3902742862701416,-1.0442140102386475,2.545747995376587,1.4024479389190674,115.50000762939453,-165.3000030517578,-18.900001525878906
1454479,3.9417622089385986,10.16663646697998,-3.5691192150115967,-0.8765299916267395,1.9740979671478271,0.8079319596290588,122.70000457763672,-165.3000030517578,-15.90000057220459
1454499,3.6983180046081543,9.84483528137207,-3.642690658569336,-0.6250039935112,3.353679895401001,-0.510673999786377,110.70000457763672,-160.5,-17.100000381469727
1454519,4.375415802001953,10.652328491210938,-4.672094821929932,0.8689079880714417,4.519845962524414,0.13719600439071655,101.10000610351562,-160.5,-19.5
1454562,4.854528427124023,11.495111465454102,-3.9842302799224854,-1.1737879514694214,0.8307979702949524,-0.8460419774055481,122.70000457763672,-165.3000030517578,-23.100000381469727
1454588,4.151710510253906,10.649935722351074,-3.9656879901885986,-1.6387299299240112,3.7957558631896973,-1.8673899173736572,122.70000457763672,-170.10000610351562,-11.700000762939453
1454609,4.221095085144043,10.558420181274414,-4.310218334197998,-1.8369019031524658,4.047281742095947,-1.0442140102386475,108.30000305175781,-174.90000915527344,-20.700000762939453
1454649,3.580483913421631,10.068540573120117,-3.2144203186035156,-2.080806016921997,2.195136070251465,-0.7164679765701294,113.10000610351562,-167.70001220703125,-24.900001525878906
1454669,3.2126259803771973,9.11569881439209,-3.023014545440674,-1.3490939140319824,2.3704419136047363,-1.524399995803833,113.10000610351562,-162.90000915527344,-15.90000057220459
1454689,2.8070850372314453,8.058181762695312,-2.540313243865967,-1.2500079870224,1.1051899194717407,-1.600619912147522,117.9000015258789,-165.3000030517578,-22.5
1454713,2.6390068531036377,7.485759258270264,-2.080939292907715,-1.2195199728012085,0.6783579587936401,-1.2118979692459106,110.70000457763672,-174.90000915527344,-25.500001907348633
1454733,1.9816476106643677,6.7769598960876465,-1.727436900138855,-1.2271419763565063,1.6768399477005005,-1.2042759656906128,122.70000457763672,-160.5,-19.5
1454753,1.6078083515167236,6.8128485679626465,-1.9200389385223389,-1.0899460315704346,2.339953899383545,-0.8155539631843567,120.30000305175781,-162.90000915527344,-14.100000381469727
1454773,0.8792701959609985,6.954010009765625,-2.366851806640625,-1.0747020244598389,2.4771499633789062,-0.16768398880958557,110.70000457763672,-162.90000915527344,-19.5
1454836,-1.408626675605774,9.125866889953613,-2.792729616165161,-1.1737879514694214,1.4634239673614502,1.5320219993591309,117.9000015258789,-165.3000030517578,-15.90000057220459
1454856,-1.5743123292922974,8.96436882019043,-1.7860549688339233,-1.829279899597168,-1.4634239673614502,-0.4878079891204834,115.50000762939453,-167.70001220703125,-20.700000762939453
1454876,-2.6431937217712402,8.734084129333496,-1.3482142686843872,-1.806414008140564,1.707327961921692,-1.2576299905776978,122.70000457763672,-162.90000915527344,-28.500001907348633
1454900,-3.1617836952209473,10.420248985290527,-2.9039840698242188,-1.0823240280151367,5.39637565612793,-1.0975680351257324,115.50000762939453,-177.3000030517578,-17.700000762939453
1454920,-3.368143081665039,10.527316093444824,-3.952528715133667,-0.28201398253440857,4.1921000480651855,-2.446661949157715,117.9000015258789,-165.3000030517578,-22.5
1454940,-3.3842928409576416,9.91960334777832,-3.714467763900757,-0.26677000522613525,-0.5792719721794128,-2.8048958778381348,122.70000457763672,-162.90000915527344,-21.900001525878906
1454960,-3.1785316467285156,9.989585876464844,-2.884843587875366,-0.23628199100494385,-1.6920839548110962,-2.3018438816070557,115.50000762939453,-172.5,-17.700000762939453
1454980,-2.9578170776367188,10.280282974243164,-2.998490810394287,-0.16768398880958557,0.20579399168491364,-2.0122079849243164,129.90000915527344,-167.70001220703125,-20.100000381469727
1455000,-2.515191078186035,10.00214672088623,-3.439321994781494,0.13719600439071655,0.9375059604644775,-2.080806016921997,134.70001220703125,-155.70001220703125,-16.5
1455060,-1.646687626838684,8.649147033691406,-3.6020169258117676,0.8384199738502502,0.2896359860897064,0.114329993724823,129.90000915527344,-158.10000610351562,-20.100000381469727
1455121,-0.7793802618980408,9.165345191955566,-2.634819746017456,-0.25152599811553955,0.015243999660015106,0.1448179930448532,125.10000610351562,-165.3000030517578,-23.100000381469727
1455144,-0.3899892270565033,9.065454483032227,-3.517678737640381,0.23628199100494385,1.0289700031280518,0.060975998640060425,132.3000030517578,-150.90000915527344,-23.700000762939453
1455164,-0.2075556069612503,9.107324600219727,-3.26167368888855,-0.06859800219535828,-1.1585439443588257,0.4420759975910187,129.90000915527344,-158.10000610351562,-17.700000762939453
1455184,0.14594689011573792,9.426135063171387,-2.881852865219116,-0.2439039945602417,-1.707327961921692,0.7621999979019165,132.3000030517578,-162.90000915527344,-18.30000114440918
1455245,0.806894838809967,8.453554153442383,-2.861515998840332,-0.6707359552383423,-0.7469559907913208,-0.5030519962310791,127.50000762939453,-170.10000610351562,-25.500001907348633
1455310,0.5634506940841675,8.622230529785156,-2.703606128692627,-0.16768398880958557,0.5259180068969727,-0.4725639820098877,120.30000305175781,-165.3000030517578,-23.700000762939453
1455331,0.11364716291427612,8.415273666381836,-2.670708417892456,-0.10670799762010574,0.04573199898004532,-0.510673999786377,127.50000762939453,-160.5,-18.30000114440918
1455372,-2.721550464630127,9.317273139953613,-3.2066445350646973,-0.6173819899559021,0.739333987236023,1.9207439422607422,134.70001220703125,-158.10000610351562,-21.900001525878906
1455413,-5.3013410568237305,11.251069068908691,-4.0793352127075195,0.457319974899292,4.39027214050293,2.6600780487060547,110.70000457763672,-158.10000610351562,-24.30000114440918
1455550,-2.7430837154388428,4.95382022857666,-1.84646737575531,-2.0579400062561035,-10.022930145263672,-1.577754020690918,110.70000457763672,-165.3000030517578,-24.900001525878906
1455570,-2.2454288005828857,4.810863971710205,-0.8900367617607117,-1.9436099529266357,-9.298839569091797,-0.10670799762010574,110.70000457763672,-177.3000030517578,-22.5
1455612,1.5862751007080078,5.801388740539551,-1.0521334409713745,-1.5625100135803223,-1.2347639799118042,4.1387457847595215,115.50000762939453,-170.10000610351562,-21.30000114440918
1455633,3.046342134475708,5.3814921379089355,-0.5837875604629517,-2.278977870941162,-1.5091559886932373,6.547297954559326,113.10000610351562,-172.5,-28.500001907348633
1455653,4.483081340789795,6.40072774887085,-0.5867782831192017,-1.6692179441452026,1.021347999572754,10.853727340698242,98.70000457763672,-165.3000030517578,-24.30000114440918
1455673,6.104049205780029,8.85191822052002,-0.918149471282959,-2.278977870941162,2.3475759029388428,13.330877304077148,96.30000305175781,-186.90000915527344,-31.500001907348633
1455737,7.61196756362915,9.628307342529297,-0.8571388721466064,-1.3643379211425781,0.23628199100494385,6.913153648376465,55.500003814697266,-189.3000030517578,-23.100000381469727
1455757,7.353569507598877,10.206113815307617,-1.433748722076416,-0.48018598556518555,1.5396440029144287,5.556437969207764,53.10000228881836,-189.3000030517578,-29.100000381469727
1455777,7.3314385414123535,9.570287704467773,-1.9798532724380493,-0.08384199440479279,1.1204339265823364,3.8338658809661865,55.500003814697266,-194.10000610351562,-26.700000762939453
1455799,7.885916709899902,10.684627532958984,-1.618574857711792,0.2972579896450043,0.15243999660015106,3.2317278385162354,48.30000305175781,-184.5,-27.30000114440918
1455819,7.454057693481445,10.247983932495117,-2.363262891769409,1.1814099550247192,1.021347999572754,1.6082419157028198,48.30000305175781,-186.90000915527344,-20.700000762939453
1455839,7.577275276184082,9.604381561279297,-2.729924440383911,1.7911700010299683,0.10670799762010574,0.3277460038661957,43.5,-182.10000610351562,-27.900001525878906
1455862,8.494826316833496,10.561410903930664,-2.074359893798828,0.38109999895095825,-1.7225719690322876,1.2118979692459106,31.500001907348633,-182.10000610351562,-20.100000381469727
1455882,8.698793411254883,10.4334077835083,-2.112640857696533,-0.25152599811553955,0.39634400606155396,0.8460419774055481,36.30000305175781,-170.10000610351562,-24.30000114440918
1455902,8.641371726989746,10.519540786743164,-2.7855517864227295,0.1448179930448532,1.1128119230270386,-0.007621999830007553,33.900001525878906,-179.70001220703125,-21.900001525878906
1455922,8.254372596740723,9.311291694641113,-2.393170118331909,-0.13719600439071655,-0.228659987449646,-1.242385983467102,41.10000228881836,-186.90000915527344,-22.5
1455942,8.728102684020996,9.88072395324707,-1.8715893030166626,-0.49542999267578125,0.06859800219535828,-1.4862899780273438,29.100000381469727,-182.10000610351562,-30.30000114440918
1455962,8.108426094055176,9.242505073547363,-1.8028029203414917,-0.9451279640197754,1.1356779336929321,-3.399411916732788,53.10000228881836,-177.3000030517578,-32.10000228881836
1455986,7.287774085998535,8.159866333007812,-1.3589807748794556,-0.6402480006217957,0.7317119836807251,-4.794238090515137,48.30000305175781,-182.10000610351562,-27.30000114440918
1456006,5.355772018432617,7.06406831741333,-0.8696998953819275,0.5335400104522705,0.8384199738502502,-4.710395812988281,57.900001525878906,-174.90000915527344,-24.900001525878906
1456026,4.91195011138916,7.059283256530762,-0.9965062141418457,0.6097599864006042,1.0365920066833496,-4.329296112060547,57.900001525878906,-184.5,-27.30000114440918
1456046,4.16786003112793,6.62981653213501,-0.8816627264022827,0.5487840175628662,0.457319974899292,-4.359784126281738,67.5,-179.70001220703125,-33.30000305175781
1456066,3.186905860900879,5.844454765319824,-0.6866681575775146,0.914639949798584,0.25152599811553955,-4.588443756103516,72.30000305175781,-177.3000030517578,-24.900001525878906
1456086,1.4989463090896606,5.339024066925049,-1.0539278984069824,1.875011920928955,1.600619912147522,-4.253076076507568,67.5,-170.10000610351562,-23.100000381469727
1456110,-1.0533298254013062,5.885128498077393,-2.4194884300231934,3.407033920288086,2.843005895614624,-3.445143938064575,81.9000015258789,-174.90000915527344,-25.500001907348633
1456130,-1.5360311269760132,7.8081583976745605,-3.183316946029663,2.987823963165283,1.6768399477005005,-2.0960500240325928,74.70000457763672,-167.70001220703125,-26.100000381469727
1456151,-2.110248327255249,9.174317359924316,-3.332254409790039,2.1036720275878906,0.8841519951820374,-3.0183119773864746,79.5,-170.10000610351562,-19.5
1456171,-2.868095636367798,9.91063117980957,-3.546389579772949,1.3872039318084717,1.067080020904541,-4.032037734985352,79.5,-167.70001220703125,-24.30000114440918
1456191,-3.2748327255249023,10.31796646118164,-3.7958152294158936,0.5259180068969727,1.8369019031524658,-5.114361763000488,86.70000457763672,-170.10000610351562,-24.900001525878906
1456211,-3.109147071838379,9.996763229370117,-4.029689311981201,0.4420759975910187,1.0823240280151367,-5.884183883666992,81.9000015258789,-177.3000030517578,-25.500001907348633
1456233,-3.487173557281494,9.923789978027344,-3.5697171688079834,-0.19817200303077698,-0.510673999786377,-5.746987819671631,105.9000015258789,-167.70001220703125,-25.500001907348633
1456253,-3.8077781200408936,9.393835067749023,-3.940565824508667,0.6707359552383423,2.3628199100494385,-4.8552141189575195,110.70000457763672,-174.90000915527344,-21.30000114440918
1456273,-3.4417147636413574,9.27899169921875,-4.154102802276611,0.060975998640060425,-0.038109999150037766,-2.987823963165283,108.30000305175781,-172.5,-24.30000114440918
1456334,-2.065387725830078,9.671972274780273,-2.9548263549804688,-0.2743920087814331,0.5868939757347107,-1.189031958580017,108.30000305175781,-170.10000610351562,-18.30000114440918
1456409,-0.1543208807706833,9.305310249328613,-2.6575491428375244,0.5945159792900085,-0.6402480006217957,-0.8384199738502502,117.9000015258789,-165.3000030517578,-21.30000114440918
1456473,0.5796005129814148,9.267626762390137,-2.8190479278564453,0.15243999660015106,-0.8155539631843567,0.38109999895095825,105.9000015258789,-172.5,-16.5
1456507,0.8433815836906433,9.55892276763916,-2.5319392681121826,-0.48018598556518555,-0.44969800114631653,-0.9908599853515625,129.90000915527344,-165.3000030517578,-19.5
1456527,0.8200539946556091,8.936854362487793,-2.393768072128296,-0.6707359552383423,-0.46494197845458984,-1.14329993724823,113.10000610351562,-174.90000915527344,-22.5
1456567,0.61249840259552,8.758607864379883,-2.3411316871643066,-0.18292799592018127,0.05335399881005287,-0.23628199100494385,117.9000015258789,-167.70001220703125,-23.700000762939453
1456587,0.362474650144577,9.100147247314453,-2.5678277015686035,-0.17530599236488342,0.4192099869251251,-0.2896359860897064,132.3000030517578,-167.70001220703125,-21.30000114440918
1456608,0.3475210666656494,8.918910026550293,-2.7945239543914795,0.05335399881005287,-0.342989981174469,-0.426831990480423,120.30000305175781,-158.10000610351562,-17.100000381469727
1456628,-0.10168430209159851,8.787318229675293,-2.5498836040496826,-0.13719600439071655,-1.3033620119094849,0.030487999320030212,115.50000762939453,-172.5,-23.100000381469727
1456648,-1.5103110074996948,9.08280086517334,-2.5803887844085693,-0.2591480016708374,0.8765299916267395,0.6326259970664978,125.10000610351562,-160.5,-20.100000381469727
1456668,-2.6461844444274902,9.890294075012207,-3.603213310241699,0.3887220025062561,3.3308138847351074,0.8079319596290588,108.30000305175781,-160.5,-31.500001907348633
1456691,-4.565027236938477,10.543466567993164,-4.648766994476318,0.23628199100494385,3.9253299236297607,0.6936019659042358,110.70000457763672,-165.3000030517578,-28.500001907348633
1456711,-6.631611347198486,9.71444034576416,-4.876659870147705,0.342989981174469,5.114361763000488,-0.4039659798145294,125.10000610351562,-167.70001220703125,-25.500001907348633
1456733,-6.692023754119873,11.050093650817871,-6.7021918296813965,0.8155539631843567,4.8018598556518555,2.4619059562683105,110.70000457763672,-165.3000030517578,-12.300000190734863
1456753,-7.140032768249512,10.776144027709961,-6.74346399307251,-2.339953899383545,0.7469559907913208,2.6067240238189697,120.30000305175781,-165.3000030517578,-20.100000381469727
1456775,-5.636899471282959,9.447668075561523,-5.175731182098389,-3.551851987838745,-6.760714054107666,3.445143938064575,105.9000015258789,-165.3000030517578,-12.300000190734863
1456795,-3.9567158222198486,8.557631492614746,-3.2144203186035156,-3.8491098880767822,-10.32780933380127,2.6219680309295654,108.30000305175781,-165.3000030517578,-20.100000381469727
1456815,-2.546294689178467,7.160967826843262,-1.3954675197601318,-2.2561118602752686,-9.489389419555664,1.478667974472046,108.30000305175781,-167.70001220703125,-24.900001525878906
1456835,-0.9797582030296326,6.497028827667236,-0.7076031565666199,-0.5259180068969727,-6.402479648590088,2.1494040489196777,98.70000457763672,-170.10000610351562,-24.30000114440918
1456855,0.5514878034591675,6.607087135314941,-0.32299721240997314,-0.5259180068969727,-4.131124019622803,3.246971845626831,91.5,-172.5,-25.500001907348633
1456879,1.2381559610366821,6.42465353012085,0.3822133541107178,-1.189031958580017,-1.478667974472046,3.5213639736175537,98.70000457763672,-167.70001220703125,-23.700000762939453
1456941,3.779665470123291,7.159173011779785,-0.9827489256858826,-0.9527499675750732,3.0716660022735596,5.929915904998779,96.30000305175781,-179.70001220703125,-22.5
1456988,5.215806484222412,8.838160514831543,-1.742390513420105,-0.44969800114631653,2.987823963165283,3.971061944961548,69.9000015258789,-186.90000915527344,-26.700000762939453
1457010,5.735592842102051,8.635390281677246,-1.8715893030166626,0.007621999830007553,0.8917739987373352,3.3917899131774902,69.9000015258789,-177.3000030517578,-23.700000762939453
1457051,7.467216968536377,10.21030044555664,-2.035480499267578,0.228659987449646,2.294221878051758,4.618931770324707,53.10000228881836,-179.70001220703125,-28.500001907348633
1457071,7.893094539642334,10.486642837524414,-2.554070472717285,0.28201398253440857,1.3795819282531738,3.711913824081421,43.5,-177.3000030517578,-21.900001525878906
1457111,9.13962459564209,10.188767433166504,-1.9619089365005493,0,0.7698220014572144,3.5213639736175537,48.30000305175781,-177.3000030517578,-30.900001525878906
1457168,9.246692657470703,10.076316833496094,-3.183915138244629,-0.5868939757347107,-3.193617820739746,-0.5411620140075684,36.30000305175781,-177.3000030517578,-29.700000762939453
1457188,10.423239707946777,9.777244567871094,-1.634724736213684,-2.1722700595855713,-3.1707520484924316,-0.7774440050125122,41.10000228881836,-191.70001220703125,-20.700000762939453
1457228,8.129959106445312,9.27001953125,-2.662334442138672,0.4725639820098877,1.2652519941329956,-3.3765459060668945,45.900001525878906,-186.90000915527344,-23.100000381469727
1457248,7.386467456817627,8.472695350646973,-1.9768625497817993,-0.18292799592018127,-0.6097599864006042,-5.625035762786865,41.10000228881836,-179.70001220703125,-21.900001525878906
1457268,6.510188102722168,7.429533958435059,-1.435543179512024,-0.4420759975910187,-1.478667974472046,-7.10370397567749,60.30000305175781,-184.5,-23.100000381469727
1457289,5.217002868652344,6.389961242675781,-0.6878644227981567,-0.23628199100494385,-1.8902559280395508,-6.875043869018555,60.30000305175781,-189.3000030517578,-24.30000114440918
1457309,3.925612211227417,7.068853855133057,-0.6615461111068726,0.33536797761917114,0.015243999660015106,-5.0533857345581055,69.9000015258789,-184.5,-21.30000114440918
1457369,-0.0735715851187706,5.621945858001709,-1.20406174659729,1.9893419742584229,1.806414008140564,-6.1204657554626465,81.9000015258789,-182.10000610351562,-30.900001525878906
1457404,-1.9290111064910889,7.912833213806152,-3.0870158672332764,1.8140360116958618,3.9329519271850586,-2.8201398849487305,81.9000015258789,-165.3000030517578,-23.700000762939453
1457427,-2.46793794631958,8.42663860321045,-3.445303440093994,1.371959924697876,2.5686140060424805,-2.6219680309295654,89.10000610351562,-167.70001220703125,-24.30000114440918
1457469,-2.999088764190674,9.563708305358887,-3.6911401748657227,0.7164679765701294,1.92836594581604,-2.652456045150757,93.9000015258789,-177.3000030517578,-19.5
1457489,-3.3962557315826416,9.68931770324707,-3.9148457050323486,0.44969800114631653,1.3643379211425781,-2.797273874282837,105.9000015258789,-184.5,-18.900001525878906
1457509,-3.65405535697937,9.61873722076416,-3.672597885131836,-0.2439039945602417,0.6554920077323914,-2.7667858600616455,89.10000610351562,-165.3000030517578,-20.100000381469727
1457551,-2.9943037033081055,10.05597972869873,-3.877760887145996,-0.02286599949002266,0.3887220025062561,-2.0198299884796143,101.10000610351562,-167.70001220703125,-24.30000114440918
1457587,-2.292083978652954,10.260544776916504,-3.470425605773926,-0.6707359552383423,-0.17530599236488342,-1.6615959405899048,105.9000015258789,-155.70001220703125,-21.30000114440918
1457609,-2.1778385639190674,9.050500869750977,-3.6379055976867676,0.015243999660015106,0.38109999895095825,-1.7378159761428833,105.9000015258789,-170.10000610351562,-22.5
1457650,-1.2913906574249268,8.933265686035156,-3.165970802307129,0.2134159952402115,-2.2713558673858643,-0.5487840175628662,105.9000015258789,-174.90000915527344,-27.30000114440918
1457690,-0.4133167862892151,8.799281120300293,-2.0755560398101807,-0.3582339882850647,-0.38109999895095825,-0.6631140112876892,117.9000015258789,-167.70001220703125,-23.700000762939453
1457710,-0.3235953450202942,8.64376449584961,-2.7460744380950928,0.4039659798145294,1.9893419742584229,-0.2591480016708374,115.50000762939453,-174.90000915527344,-26.100000381469727
1457730,0,8.974536895751953,-3.198270559310913,0.4878079891204834,1.2804960012435913,0.7088459730148315,120.30000305175781,-174.90000915527344,-23.100000381469727
1457771,0.5933578014373779,9.63668155670166,-2.554668664932251,0.09908600151538849,-0.44969800114631653,0.5792719721794128,108.30000305175781,-165.3000030517578,-21.900001525878906
1457791,0.6418074369430542,9.312487602233887,-2.780766725540161,0,0.4192099869251251,-0.33536797761917114,98.70000457763672,-172.5,-15.300000190734863
1457831,1.2596890926361084,9.462621688842773,-2.963200330734253,-0.15243999660015106,-1.3643379211425781,0.6554920077323914,115.50000762939453,-167.70001220703125,-21.900001525878906
1457852,1.4373375177383423,9.433911323547363,-2.42307710647583,-0.853663980960846,-2.187514066696167,0.7469559907913208,105.9000015258789,-172.5,-30.30000114440918
1457872,1.032992959022522,8.975733757019043,-2.146735191345215,-1.3872039318084717,-0.7240899801254272,0.030487999320030212,108.30000305175781,-165.3000030517578,-21.900001525878906
1457892,1.123910665512085,8.704176902770996,-2.652764081954956,-0.7545779943466187,0.13719600439071655,-0.4725639820098877,108.30000305175781,-160.5,-15.300000190734863
1457915,1.2764370441436768,8.885414123535156,-2.4846858978271484,-0.6250039935112,-1.4329359531402588,-0.426831990480423,110.70000457763672,-172.5,-19.5
1457935,1.0987886190414429,8.725709915161133,-2.042060136795044,-0.7469559907913208,-1.0365920066833496,-0.8689079880714417,113.10000610351562,-172.5,-25.500001907348633
1457955,0.7458842992782593,8.57677173614502,-2.3028504848480225,-0.4344539940357208,-0.015243999660015106,-1.2576299905776978,117.9000015258789,-170.10000610351562,-21.900001525878906
1458018,-2.065387725830078,9.198841094970703,-2.836992025375366,0.342989981174469,0.457319974899292,0.5411620140075684,125.10000610351562,-165.3000030517578,-24.900001525878906
1458124,-5.306724548339844,11.182282447814941,-5.359361171722412,1.1204339265823364,-1.295740008354187,-0.1600620001554489,101.10000610351562,-179.70001220703125,-15.90000057220459
1458144,-5.10814094543457,10.4453706741333,-5.10814094543457,-0.1600620001554489,-3.201239824295044,-0.457319974899292,120.30000305175781,-158.10000610351562,-21.30000114440918
1458188,-2.8387866020202637,8.187978744506836,-3.8759665489196777,1.3872039318084717,-7.39333963394165,-4.306429862976074,105.9000015258789,-162.90000915527344,-28.500001907348633
1458208,-2.015143632888794,7.172930717468262,-3.320889711380005,1.707327961921692,-8.940606117248535,-5.647902011871338,120.30000305175781,-165.3000030517578,-23.700000762939453
1458230,-0.49047723412513733,6.814642906188965,-2.4242734909057617,1.4862899780273438,-10.92232608795166,-4.5503339767456055,127.50000762939453,-172.5,-17.100000381469727
1458250,0.4707385301589966,6.848138809204102,-0.6711164116859436,-0.7317119836807251,-10.655555725097656,-2.7058098316192627,141.90000915527344,-155.70001220703125,-20.100000381469727
1458271,0.2177240401506424,6.546674728393555,0.2572014629840851,-1.3262280225753784,-3.254593849182129,-1.6615959405899048,141.90000915527344,-162.90000915527344,-23.700000762939453
1458292,0.001196285942569375,6.652545928955078,-1.5940510034561157,-0.48018598556518555,3.567095994949341,-0.8917739987373352,127.50000762939453,-158.10000610351562,-26.100000381469727
1458312,0.7632304430007935,6.94862699508667,-2.6635305881500244,0.25152599811553955,1.6692179441452026,1.021347999572754,137.10000610351562,-167.70001220703125,-21.900001525878906
1458332,1.1167329549789429,7.692716598510742,-2.453582525253296,0.38109999895095825,0.6783579587936401,2.187514066696167,132.3000030517578,-174.90000915527344,-19.5
1458352,2.0935003757476807,9.27001953125,-2.307635545730591,0.114329993724823,1.5320219993591309,3.3689239025115967,129.90000915527344,-170.10000610351562,-24.30000114440918
1458372,3.538015604019165,9.568492889404297,-2.4093198776245117,-0.10670799762010574,1.699705958366394,2.6677000522613525,146.70001220703125,-158.10000610351562,-21.30000114440918
1458392,4.0434465408325195,10.237814903259277,-2.2705507278442383,-0.5640279650688171,3.201239824295044,3.6814258098602295,122.70000457763672,-172.5,-25.500001907348633
1458413,4.425659656524658,10.917903900146484,-2.6958303451538086,-0.5030519962310791,4.46649169921875,4.153989791870117,122.70000457763672,-162.90000915527344,-20.100000381469727
1458435,4.542297840118408,10.051793098449707,-3.2054481506347656,-0.3887220025062561,3.6738038063049316,1.6844619512557983,129.90000915527344,-165.3000030517578,-15.90000057220459
1458455,5.481980323791504,11.596198081970215,-3.3244786262512207,-0.2439039945602417,1.2042759656906128,3.292703866958618,115.50000762939453,-165.3000030517578,-12.90000057220459
1458475,5.632712364196777,11.717022895812988,-2.041461944580078,-2.1494040489196777,0.853663980960846,1.524399995803833,113.10000610351562,-174.90000915527344,-18.30000114440918
1458496,5.319883823394775,10.324545860290527,-2.223297357559204,-1.9512319564819336,3.460387945175171,-0.114329993724823,120.30000305175781,-172.5,-26.100000381469727
1458517,5.132664680480957,10.754611015319824,-3.4381258487701416,0.3201240003108978,4.580821990966797,0.739333987236023,103.50000762939453,-174.90000915527344,-18.900001525878906
1458538,5.609982967376709,11.655413627624512,-3.928602933883667,0.10670799762010574,2.2484898567199707,0.9832379817962646,115.50000762939453,-172.5,-22.5
1458562,5.723629951477051,11.320453643798828,-2.8387866020202637,-1.3414719104766846,-1.5472660064697266,0.36585599184036255,110.70000457763672,-172.5,-23.100000381469727
1458582,5.392259120941162,10.695992469787598,-1.606611967086792,-1.9207439422607422,0.05335399881005287,-0.8917739987373352,110.70000457763672,-165.3000030517578,-22.5
1458604,5.03935432434082,10.07691478729248,-3.0750529766082764,-0.09908600151538849,3.4298999309539795,-2.8734939098358154,113.10000610351562,-165.3000030517578,-14.100000381469727
1458624,4.584765911102295,9.312487602233887,-3.168363332748413,0.08384199440479279,1.5853760242462158,-2.4009299278259277,115.50000762939453,-165.3000030517578,-12.90000057220459
1458646,3.764711856842041,8.498414993286133,-2.530742883682251,-0.7774440050125122,0.39634400606155396,-1.1585439443588257,117.9000015258789,-158.10000610351562,-23.700000762939453
1458666,3.8526389598846436,8.58993148803711,-2.6605398654937744,-1.3109840154647827,1.577754020690918,0.1600620001554489,108.30000305175781,-162.90000915527344,-18.30000114440918
1458750,2.2663636207580566,7.13285493850708,-1.5713216066360474,-1.3262280225753784,0.9222619533538818,-1.0518360137939453,108.30000305175781,-170.10000610351562,-24.900001525878906
1458844,-1.6628375053405762,7.741764545440674,-3.1468300819396973,0.5792719721794128,1.92836594581604,-0.7240899801254272,120.30000305175781,-165.3000030517578,-19.5
1458864,-1.728633165359497,9.112110137939453,-3.6444852352142334,0.9908599853515625,1.753059983253479,0.41158798336982727,113.10000610351562,-170.10000610351562,-16.5
1458904,-1.2866054773330688,10.593709945678711,-3.558950662612915,0.1295740008354187,-1.295740008354187,-0.8765299916267395,115.50000762939453,-155.70001220703125,-20.100000381469727
1458924,-2.4105162620544434,8.836365699768066,-2.5319392681121826,-0.4878079891204834,-1.0518360137939453,-2.187514066696167,125.10000610351562,-155.70001220703125,-24.900001525878906
1458944,-3.017033100128174,9.04093074798584,-2.920732021331787,0,2.782029867172241,-1.0061039924621582,120.30000305175781,-167.70001220703125,-16.5
1458964,-2.828019857406616,10.157065391540527,-3.938173294067383,0.8079319596290588,3.75002384185791,-0.26677000522613525,117.9000015258789,-165.3000030517578,-19.5
1459046,-3.0983805656433105,8.771766662597656,-3.552371025085449,0.7317119836807251,0.4725639820098877,-0.5792719721794128,129.90000915527344,-177.3000030517578,-15.300000190734863
1459092,-2.5887627601623535,7.784830570220947,-3.460257053375244,0.5411620140075684,-1.4481799602508545,-1.4862899780273438,144.3000030517578,-165.3000030517578,-21.30000114440918
1459112,-2.110846519470215,8.246597290039062,-3.476407051086426,0.5945159792900085,-2.1494040489196777,-0.2134159952402115,125.10000610351562,-162.90000915527344,-19.5
1459153,-0.6364241242408752,8.716737747192383,-2.5863702297210693,-0.9222619533538818,-2.080806016921997,-0.228659987449646,141.90000915527344,-172.5,-14.700000762939453
1459208,-0.6567609906196594,8.85371208190918,-2.9368820190429688,-0.9832379817962646,2.599102020263672,-0.10670799762010574,120.30000305175781,-158.10000610351562,-12.90000057220459
1459230,-0.3235953450202942,8.87763786315918,-2.6719045639038086,-0.9298839569091797,1.3795819282531738,-0.1600620001554489,132.3000030517578,-150.90000915527344,-26.700000762939453
1459270,-0.20097604393959045,9.743748664855957,-2.8483567237854004,-0.4420759975910187,3.048799991607666,-0.9908599853515625,134.70001220703125,-155.70001220703125,-28.500001907348633
1459293,-0.2972770631313324,9.034351348876953,-3.3430211544036865,0.114329993724823,1.9131219387054443,-1.5625100135803223,129.90000915527344,-160.5,-18.30000114440918
1459313,-0.0065795728005468845,9.435705184936523,-3.380105972290039,0.23628199100494385,0.9451279640197754,-1.0594580173492432,132.3000030517578,-174.90000915527344,-15.90000057220459
1459333,0.013159145601093769,9.537389755249023,-3.329861879348755,-0.07621999830007553,0.9298839569091797,-1.2804960012435913,137.10000610351562,-165.3000030517578,-20.100000381469727
1459353,0.18183545768260956,8.826197624206543,-3.4865753650665283,0.33536797761917114,0.9298839569091797,-1.8216580152511597,137.10000610351562,-150.90000915527344,-19.5
1459373,0.19379831850528717,8.81004810333252,-3.43692946434021,0.19817200303077698,0,-1.0594580173492432,129.90000915527344,-155.70001220703125,-20.700000762939453
1459393,0.706406831741333,9.596007347106934,-3.439321994781494,0.35061198472976685,0.2439039945602417,-0.9984819889068604,144.3000030517578,-162.90000915527344,-18.900001525878906
1459416,0.5801987051963806,9.005640983581543,-3.245523691177368,-0.1295740008354187,0.7164679765701294,-1.4939119815826416,137.10000610351562,-170.10000610351562,-18.900001525878906
1459456,0.43664437532424927,9.281982421875,-3.335843324661255,-0.22103799879550934,2.294221878051758,-1.7301939725875854,141.90000915527344,-162.90000915527344,-21.30000114440918
1459509,0.19918161630630493,9.4853515625,-2.9015915393829346,-0.5868939757347107,0.228659987449646,-0.685979962348938,141.90000915527344,-158.10000610351562,-20.100000381469727
