time,sensor_accX[g],sensor_accY[g],sensor_accZ[g],sensor_gyroX[°/s],sensor_gyroY[°/s],sensor_gyroZ[°/s],sensor_magX[µT],sensor_magY[µT],sensor_magZ[µT]
687489,-5.3133039474487305,7.844645023345947,-1.7974196672439575,-0.1600620001554489,0.17530599236488342,-0.060975998640060425,269.1000061035156,-86.10000610351562,-30.30000114440918
687509,-5.287583827972412,7.992386341094971,-1.7854567766189575,-0.114329993724823,0.2896359860897064,-0.09146399796009064,285.9000244140625,-78.9000015258789,-31.500001907348633
687532,-5.303135395050049,8.042630195617676,-1.7902419567108154,-0.16768398880958557,0.44969800114631653,-0.23628199100494385,276.3000183105469,-81.30000305175781,-37.5
687554,-5.512485504150391,7.894290924072266,-1.936188817024231,-0.07621999830007553,0.4420759975910187,-0.3582339882850647,281.1000061035156,-71.70000457763672,-32.10000228881836
687596,-5.398240089416504,7.892496585845947,-1.9367868900299072,0.09146399796009064,0.19817200303077698,-0.04573199898004532,293.1000061035156,-78.9000015258789,-33.900001525878906
687616,-5.3695292472839355,7.875150203704834,-1.9379832744598389,-0.05335399881005287,0.015243999660015106,0.007621999830007553,276.3000183105469,-86.10000610351562,-37.5
687637,-5.342014789581299,8.012125015258789,-1.9858347177505493,0.030487999320030212,0.05335399881005287,0.038109999150037766,281.1000061035156,-78.9000015258789,-39.900001525878906
687658,-5.361753463745117,7.930179595947266,-1.927216649055481,-0.10670799762010574,-0.007621999830007553,-0.07621999830007553,276.3000183105469,-71.70000457763672,-39.900001525878906
687718,-5.379697799682617,7.949918270111084,-1.9631052017211914,-0.25152599811553955,0.13719600439071655,-0.09146399796009064,276.3000183105469,-74.10000610351562,-36.30000305175781
687738,-5.326463222503662,7.960684776306152,-1.922431468963623,-0.2743920087814331,0.08384199440479279,-0.10670799762010574,281.1000061035156,-78.9000015258789,-37.5
687758,-5.305528163909912,7.943936824798584,-1.9176464080810547,-0.28201398253440857,0.09146399796009064,-0.114329993724823,283.5,-76.5,-35.10000228881836
687778,-5.255882263183594,7.905057430267334,-1.8745800256729126,-0.2134159952402115,0.09908600151538849,-0.12195199728012085,278.70001220703125,-71.70000457763672,-39.30000305175781
687800,-5.346799850463867,7.783036231994629,-1.8955150842666626,-0.19817200303077698,0.09146399796009064,-0.13719600439071655,276.3000183105469,-76.5,-33.30000305175781
687820,-5.371922016143799,7.874552249908447,-1.9188426733016968,-0.02286599949002266,0.15243999660015106,-0.06859800219535828,281.1000061035156,-76.5,-47.10000228881836
687840,-5.350986957550049,7.931973934173584,-1.912263035774231,0.030487999320030212,0.13719600439071655,-0.09908600151538849,273.9000244140625,-86.10000610351562,-33.900001525878906
687860,-5.279210090637207,7.988199234008789,-1.9349925518035889,0.04573199898004532,0.17530599236488342,-0.1295740008354187,278.70001220703125,-83.70000457763672,-32.10000228881836
687880,-5.407212257385254,7.848233699798584,-1.9960031509399414,0.038109999150037766,0.12195199728012085,-0.1295740008354187,285.9000244140625,-81.30000305175781,-36.900001525878906
687901,-5.3432111740112305,7.983414173126221,-2.0199289321899414,0.08384199440479279,0.09908600151538849,-0.015243999660015106,288.3000183105469,-86.10000610351562,-24.30000114440918
687921,-5.487363815307617,7.849430084228516,-2.014545440673828,-0.09908600151538849,-0.04573199898004532,-0.02286599949002266,276.3000183105469,-78.9000015258789,-34.5
687941,-5.556149959564209,7.896683692932129,-2.1323797702789307,-0.114329993724823,-0.13719600439071655,0.015243999660015106,269.1000061035156,-86.10000610351562,-33.900001525878906
687961,-5.657236099243164,7.8440470695495605,-1.9960031509399414,-0.3201240003108978,-0.5868939757347107,0.07621999830007553,276.3000183105469,-71.70000457763672,-36.900001525878906
688024,-6.3056230545043945,7.868570804595947,-2.0767524242401123,-0.35061198472976685,-4.10825777053833,1.5548880100250244,281.1000061035156,-86.10000610351562,-36.30000305175781
688044,-6.015523910522461,8.125772476196289,-1.8907299041748047,-0.48018598556518555,-5.640279769897461,2.073184013366699,271.5,-78.9000015258789,-39.30000305175781
688064,-5.4981303215026855,8.226858139038086,-1.6831743717193604,-0.8612859845161438,-6.661627769470215,2.2561118602752686,271.5,-78.9000015258789,-39.900001525878906
688084,-5.116515159606934,8.039639472961426,-1.23695969581604,-1.1585439443588257,-6.958885669708252,2.1570260524749756,261.9000244140625,-78.9000015258789,-34.5
688107,-4.767199516296387,8.061771392822266,-1.2686612606048584,-0.9375059604644775,-6.4253458976745605,2.03507399559021,266.70001220703125,-86.10000610351562,-38.70000076293945
688127,-4.504016399383545,8.179006576538086,-0.9833470582962036,-0.9832379817962646,-5.838451862335205,1.7759259939193726,259.5,-78.9000015258789,-40.5
688150,-4.43283748626709,8.213699340820312,-0.7943338751792908,-0.8079319596290588,-5.045763969421387,1.4329359531402588,257.1000061035156,-86.10000610351562,-39.900001525878906
688171,-4.450183868408203,8.433815956115723,-0.8894385695457458,-0.3887220025062561,-3.094532012939453,0.6402480006217957,266.70001220703125,-93.30000305175781,-40.5
688191,-4.54648494720459,8.30581283569336,-0.7207622528076172,-0.4039659798145294,-2.2713558673858643,0.007621999830007553,247.50001525878906,-78.9000015258789,-43.5
688211,-4.939464569091797,8.010929107666016,-1.0365817546844482,-0.1600620001554489,-1.2347639799118042,-0.39634400606155396,261.9000244140625,-74.10000610351562,-39.30000305175781
688231,-5.248704433441162,7.923599720001221,-1.035983681678772,0.09908600151538849,-0.853663980960846,-0.3887220025062561,257.1000061035156,-93.30000305175781,-42.900001525878906
688254,-5.2564802169799805,8.186184883117676,-1.1406586170196533,0.17530599236488342,-0.5945159792900085,-0.1448179930448532,259.5,-90.9000015258789,-44.70000076293945
688274,-5.200254917144775,8.298635482788086,-1.1490325927734375,-0.04573199898004532,-0.5030519962310791,-0.06859800219535828,266.70001220703125,-76.5,-41.70000076293945
688294,-5.234947204589844,8.0946683883667,-1.094003438949585,-0.26677000522613525,-0.5868939757347107,-0.02286599949002266,254.70001220703125,-88.5,-45.30000305175781
688314,-5.205638408660889,8.125772476196289,-0.9839451909065247,-0.3048799932003021,-0.5335400104522705,0.05335399881005287,252.3000030517578,-90.9000015258789,-35.70000076293945
688334,-5.123692512512207,8.301626205444336,-1.0264133214950562,-0.3277460038661957,-0.4039659798145294,0.08384199440479279,266.70001220703125,-88.5,-44.10000228881836
688377,-5.272032260894775,8.066555976867676,-1.0168430805206299,-0.2591480016708374,-0.10670799762010574,-0.4039659798145294,264.3000183105469,-93.30000305175781,-43.5
688397,-5.3252668380737305,8.110220909118652,-1.0485446453094482,-0.16768398880958557,-0.07621999830007553,-0.36585599184036255,266.70001220703125,-78.9000015258789,-34.5
688417,-5.310911655426025,8.149100303649902,-1.010263442993164,-0.2134159952402115,-0.13719600439071655,-0.26677000522613525,259.5,-90.9000015258789,-41.70000076293945
688437,-5.300743103027344,8.224466323852539,-1.0963960886001587,-0.28201398253440857,-0.19054999947547913,-0.18292799592018127,259.5,-78.9000015258789,-48.30000305175781
688458,-5.3043317794799805,8.141921997070312,-1.0114597082138062,-0.342989981174469,-0.23628199100494385,-0.2134159952402115,261.9000244140625,-93.30000305175781,-41.10000228881836
688478,-5.392857074737549,7.990592002868652,-1.0617038011550903,-0.3125019967556,-0.26677000522613525,-0.19817200303077698,259.5,-98.10000610351562,-39.900001525878906
688500,-5.273826599121094,8.2202787399292,-1.028207778930664,-0.2439039945602417,-0.3887220025062561,-0.030487999320030212,264.3000183105469,-90.9000015258789,-50.10000228881836
688521,-5.238536357879639,8.174819946289062,-0.9474584460258484,-0.342989981174469,-0.3277460038661957,-0.10670799762010574,261.9000244140625,-88.5,-51.30000305175781
688541,-5.20683479309082,8.150296211242676,-0.9552343487739563,-0.3125019967556,-0.20579399168491364,-0.15243999660015106,261.9000244140625,-86.10000610351562,-41.70000076293945
688561,-5.211021423339844,8.186184883117676,-0.9205420613288879,-0.2439039945602417,-0.015243999660015106,-0.16768398880958557,254.70001220703125,-90.9000015258789,-49.500003814697266
688581,-5.228965759277344,8.263344764709473,-0.9863377809524536,-0.23628199100494385,0.06859800219535828,-0.28201398253440857,249.90000915527344,-83.70000457763672,-44.70000076293945
688601,-5.234349250793457,8.173624038696289,-0.9719823002815247,-0.3201240003108978,0.10670799762010574,-0.2972579896450043,252.3000030517578,-88.5,-43.5
688624,-5.335435390472412,8.097061157226562,-0.906186580657959,-0.35061198472976685,0.1448179930448532,-0.2896359860897064,259.5,-88.5,-48.900001525878906
688644,-5.300743103027344,8.181997299194336,-0.9402807354927063,-0.342989981174469,0.1295740008354187,-0.22103799879550934,259.5,-86.10000610351562,-39.30000305175781
688664,-5.295958042144775,8.1843900680542,-0.9235327243804932,-0.3887220025062561,0.060975998640060425,-0.22103799879550934,264.3000183105469,-81.30000305175781,-47.70000076293945
688684,-5.293565273284912,8.125772476196289,-0.809885561466217,-0.4420759975910187,-0.015243999660015106,-0.26677000522613525,271.5,-81.30000305175781,-50.70000076293945
688704,-5.339622497558594,8.234036445617676,-0.903195858001709,-0.3201240003108978,0.1600620001554489,-0.2972579896450043,259.5,-83.70000457763672,-44.10000228881836
688724,-5.3785014152526855,8.221475601196289,-0.8589333295822144,-0.4192099869251251,0.06859800219535828,-0.33536797761917114,259.5,-95.70000457763672,-42.30000305175781
688746,-5.358762741088867,8.181997299194336,-0.8379983305931091,-0.41158798336982727,0.1448179930448532,-0.2972579896450043,261.9000244140625,-90.9000015258789,-42.30000305175781
688767,-5.346799850463867,8.134744644165039,-0.817661464214325,-0.4344539940357208,0.17530599236488342,-0.228659987449646,264.3000183105469,-90.9000015258789,-43.5
688788,-5.3162946701049805,8.152688980102539,-0.8021097183227539,-0.39634400606155396,0.18292799592018127,-0.16768398880958557,259.5,-86.10000610351562,-48.900001525878906
688808,-5.305528163909912,8.150894165039062,-0.7841654419898987,-0.39634400606155396,0.1295740008354187,-0.1448179930448532,257.1000061035156,-90.9000015258789,-50.70000076293945
688828,-5.2923688888549805,8.1724271774292,-0.7375102639198303,-0.3582339882850647,0.1600620001554489,-0.09908600151538849,271.5,-98.10000610351562,-39.30000305175781
688850,-5.359361171722412,8.1544828414917,-0.7901468873023987,-0.3125019967556,0.16768398880958557,-0.114329993724823,259.5,-88.5,-46.5
688872,-5.3103132247924805,8.14551067352295,-0.7590434551239014,-0.33536797761917114,0.060975998640060425,-0.1448179930448532,257.1000061035156,-83.70000457763672,-48.900001525878906
688893,-5.3073225021362305,8.189175605773926,-0.8320168852806091,-0.19054999947547913,0.09146399796009064,-0.22103799879550934,276.3000183105469,-93.30000305175781,-45.30000305175781
688914,-5.330051898956299,8.086893081665039,-0.8015115857124329,-0.2439039945602417,0.030487999320030212,-0.2439039945602417,266.70001220703125,-93.30000305175781,-45.30000305175781
688934,-5.3641462326049805,8.084500312805176,-0.8475685715675354,-0.19054999947547913,0.1295740008354187,-0.09146399796009064,257.1000061035156,-83.70000457763672,-47.70000076293945
688956,-5.278611660003662,8.179006576538086,-0.8206521272659302,-0.2743920087814331,0.060975998640060425,-0.015243999660015106,259.5,-90.9000015258789,-47.10000228881836
688977,-5.202647686004639,8.22326946258545,-0.8439797163009644,-0.2972579896450043,0.05335399881005287,-0.05335399881005287,264.3000183105469,-86.10000610351562,-41.70000076293945
688997,-5.220592021942139,8.097061157226562,-0.7470805644989014,-0.3734779953956604,0.114329993724823,-0.07621999830007553,252.3000030517578,-83.70000457763672,-41.10000228881836
689018,-5.231956481933594,8.111416816711426,-0.7751932740211487,-0.342989981174469,0.228659987449646,-0.04573199898004532,249.90000915527344,-81.30000305175781,-41.70000076293945
689038,-5.295958042144775,8.1604642868042,-0.7602397203445435,-0.342989981174469,0.23628199100494385,-0.114329993724823,257.1000061035156,-88.5,-49.500003814697266
689058,-5.276817321777344,8.260952949523926,-0.8140726089477539,-0.2743920087814331,0.2134159952402115,-0.2439039945602417,266.70001220703125,-83.70000457763672,-44.70000076293945
689078,-5.3641462326049805,8.192166328430176,-0.7793802618980408,-0.28201398253440857,0.15243999660015106,-0.4420759975910187,249.90000915527344,-90.9000015258789,-47.70000076293945
689102,-5.464035987854004,8.028274536132812,-0.8469704389572144,-0.228659987449646,0.07621999830007553,-0.4725639820098877,252.3000030517578,-81.30000305175781,-53.10000228881836
689122,-5.388669967651367,8.1664457321167,-0.8439797163009644,-0.1448179930448532,0.060975998640060425,-0.2743920087814331,254.70001220703125,-83.70000457763672,-47.70000076293945
689144,-5.359361171722412,8.113211631774902,-0.7937357425689697,-0.16768398880958557,0.06859800219535828,-0.2134159952402115,261.9000244140625,-86.10000610351562,-38.70000076293945
689164,-5.345603942871094,8.046817779541016,-0.7560527324676514,-0.17530599236488342,0.15243999660015106,-0.12195199728012085,266.70001220703125,-88.5,-43.5
689185,-5.340818405151367,8.1963529586792,-0.9462621808052063,-0.015243999660015106,0.3277460038661957,-0.038109999150037766,259.5,-93.30000305175781,-47.70000076293945
689206,-5.3013410568237305,8.044425010681152,-0.8822608590126038,-0.12195199728012085,0.19817200303077698,-0.09146399796009064,261.9000244140625,-93.30000305175781,-44.10000228881836
689226,-5.3282575607299805,8.095267295837402,-0.8451760411262512,-0.08384199440479279,0.2591480016708374,-0.09908600151538849,264.3000183105469,-81.30000305175781,-48.30000305175781
689246,-5.3755106925964355,8.1903715133667,-0.8272317051887512,-0.1295740008354187,0.3734779953956604,-0.1448179930448532,271.5,-83.70000457763672,-41.70000076293945
689266,-5.3970441818237305,8.263344764709473,-0.9887303113937378,-0.17530599236488342,0.342989981174469,-0.2896359860897064,261.9000244140625,-90.9000015258789,-41.10000228881836
689287,-5.416782855987549,8.083902359008789,-0.8457741737365723,-0.2591480016708374,0.23628199100494385,-0.3582339882850647,259.5,-83.70000457763672,-43.5
689307,-5.3964457511901855,8.029471397399902,-0.8487648963928223,-0.25152599811553955,0.228659987449646,-0.2591480016708374,269.1000061035156,-88.5,-44.10000228881836
689327,-5.4143900871276855,8.140726089477539,-0.903195858001709,-0.20579399168491364,0.2972579896450043,-0.19054999947547913,261.9000244140625,-86.10000610351562,-47.10000228881836
689347,-5.416184425354004,8.194559097290039,-0.915158748626709,-0.25152599811553955,0.228659987449646,-0.2134159952402115,259.5,-90.9000015258789,-43.5
689367,-5.380894184112549,8.094070434570312,-0.8679054379463196,-0.2591480016708374,0.23628199100494385,-0.228659987449646,269.1000061035156,-83.70000457763672,-42.900001525878906
689391,-5.353379726409912,8.042630195617676,-0.8780738711357117,-0.22103799879550934,0.2972579896450043,-0.1600620001554489,261.9000244140625,-83.70000457763672,-47.10000228881836
689411,-5.344407558441162,8.049209594726562,-0.8966163396835327,-0.18292799592018127,0.39634400606155396,-0.09908600151538849,245.10000610351562,-83.70000457763672,-45.30000305175781
689431,-5.355772018432617,8.122781753540039,-0.8924292922019958,-0.18292799592018127,0.4420759975910187,-0.09908600151538849,257.1000061035156,-88.5,-53.10000228881836
689451,-5.325864791870117,8.21728801727295,-0.9378882050514221,-0.228659987449646,0.4192099869251251,-0.19054999947547913,266.70001220703125,-88.5,-42.900001525878906
689472,-5.373716354370117,8.1185941696167,-0.9169531464576721,-0.28201398253440857,0.4420759975910187,-0.22103799879550934,264.3000183105469,-78.9000015258789,-48.900001525878906
689492,-5.3755106925964355,8.009732246398926,-0.9522436261177063,-0.26677000522613525,0.4420759975910187,-0.16768398880958557,259.5,-81.30000305175781,-43.5
689512,-5.4084086418151855,8.019901275634766,-0.9295141696929932,-0.25152599811553955,0.426831990480423,-0.10670799762010574,261.9000244140625,-81.30000305175781,-49.500003814697266
689532,-5.307920932769775,8.1903715133667,-0.9175513386726379,-0.25152599811553955,0.44969800114631653,-0.08384199440479279,269.1000061035156,-81.30000305175781,-44.10000228881836
689555,-5.353977680206299,8.038443565368652,-0.9522436261177063,-0.3125019967556,0.39634400606155396,-0.1448179930448532,259.5,-83.70000457763672,-45.900001525878906
689576,-5.365940570831299,8.031864166259766,-0.9612157344818115,-0.23628199100494385,0.3582339882850647,-0.13719600439071655,266.70001220703125,-90.9000015258789,-40.5
689596,-5.284593105316162,8.117398262023926,-1.0186375379562378,-0.19817200303077698,0.36585599184036255,-0.1295740008354187,276.3000183105469,-88.5,-53.10000228881836
689618,-5.278013706207275,8.033060073852539,-1.0228245258331299,-0.3048799932003021,0.28201398253440857,-0.20579399168491364,254.70001220703125,-90.9000015258789,-41.70000076293945
689638,-5.236143589019775,8.072537422180176,-1.0036839246749878,-0.3277460038661957,0.36585599184036255,-0.19054999947547913,261.9000244140625,-83.70000457763672,-50.10000228881836
689660,-5.240928649902344,8.141921997070312,-1.0234225988388062,-0.3201240003108978,0.4420759975910187,-0.228659987449646,261.9000244140625,-83.70000457763672,-42.900001525878906
689680,-5.2863874435424805,8.030667304992676,-1.0736666917800903,-0.426831990480423,0.4039659798145294,-0.3277460038661957,261.9000244140625,-81.30000305175781,-42.30000305175781
689700,-5.2684431076049805,7.995975017547607,-1.040170669555664,-0.4420759975910187,0.39634400606155396,-0.3048799932003021,269.1000061035156,-90.9000015258789,-44.70000076293945
689723,-5.267247200012207,8.180203437805176,-0.9983006119728088,-0.46494197845458984,0.41158798336982727,-0.22103799879550934,269.1000061035156,-86.10000610351562,-42.30000305175781
689743,-5.425755023956299,8.006741523742676,-0.9737767577171326,-0.6402480006217957,0.2896359860897064,-0.426831990480423,273.9000244140625,-86.10000610351562,-42.30000305175781
689763,-5.497531890869141,7.8560099601745605,-1.0443576574325562,-0.5792719721794128,0.19054999947547913,-0.44969800114631653,264.3000183105469,-93.30000305175781,-44.70000076293945
689783,-5.461045265197754,7.956497669219971,-0.9749730229377747,-0.5182960033416748,0.09146399796009064,-0.3125019967556,264.3000183105469,-86.10000610351562,-44.10000228881836
689803,-5.5011210441589355,7.927786827087402,-0.8948218822479248,-0.5030519962310791,0.114329993724823,-0.26677000522613525,269.1000061035156,-88.5,-40.5
689823,-5.470615386962891,8.077920913696289,-0.9354956150054932,-0.48018598556518555,0.114329993724823,-0.17530599236488342,269.1000061035156,-76.5,-45.900001525878906
689847,-5.508896827697754,7.913431644439697,-0.8421853184700012,-0.5868939757347107,0.1448179930448532,-0.17530599236488342,259.5,-88.5,-44.70000076293945
689868,-5.596225738525391,7.854215145111084,-0.8080911636352539,-0.5945159792900085,0.228659987449646,0,273.9000244140625,-86.10000610351562,-46.5
689888,-5.663217544555664,7.913431644439697,-0.7267436981201172,-0.5259180068969727,0.4420759975910187,0.18292799592018127,264.3000183105469,-76.5,-44.70000076293945
689908,-5.733798503875732,8.092276573181152,-0.806296706199646,-0.5487840175628662,0.5259180068969727,0.18292799592018127,271.5,-90.9000015258789,-39.900001525878906
689930,-5.985018730163574,7.860795021057129,-0.6537702679634094,-0.5259180068969727,0.6250039935112,0.2134159952402115,269.1000061035156,-88.5,-45.30000305175781
689950,-6.241621971130371,7.884720802307129,-0.6890606880187988,-0.17530599236488342,1.1128119230270386,0.6021379828453064,254.70001220703125,-90.9000015258789,-44.10000228881836
689973,-6.309810161590576,8.597108840942383,-0.7231548428535461,-0.060975998640060425,1.5167779922485352,1.0442140102386475,271.5,-83.70000457763672,-45.30000305175781
689993,-6.628620624542236,8.529519081115723,-0.7375102639198303,-0.09908600151538849,1.9054999351501465,0.9908599853515625,264.3000183105469,-90.9000015258789,-41.70000076293945
690013,-6.689033031463623,8.25915813446045,-0.9402807354927063,-0.1295740008354187,2.126538038253784,1.1051899194717407,266.70001220703125,-86.10000610351562,-41.10000228881836
690033,-6.500617980957031,7.937357425689697,-0.9319067597389221,-0.07621999830007553,2.233245849609375,1.5091559886932373,271.5,-88.5,-44.70000076293945
690053,-6.226070404052734,8.071341514587402,-0.9654027819633484,0.1295740008354187,2.492393970489502,2.0122079849243164,254.70001220703125,-95.70000457763672,-41.10000228881836
690077,-6.014925956726074,8.27710247039795,-0.8822608590126038,0.18292799592018127,2.6600780487060547,2.591480016708374,245.10000610351562,-88.5,-42.900001525878906
690098,-5.966475963592529,8.516359329223633,-0.9911229014396667,0.2134159952402115,2.8734939098358154,2.9192259311676025,245.10000610351562,-86.10000610351562,-35.70000076293945
690118,-5.937765121459961,8.955994606018066,-1.1903045177459717,0.2743920087814331,2.8277618885040283,2.843005895614624,259.5,-98.10000610351562,-45.30000305175781
690139,-6.278108596801758,8.60069751739502,-1.409822940826416,0.1600620001554489,2.4161739349365234,2.3170878887176514,254.70001220703125,-107.70000457763672,-47.10000228881836
690159,-6.334333896636963,8.4057035446167,-1.4780112504959106,0.342989981174469,1.8369019031524658,2.5228819847106934,252.3000030517578,-93.30000305175781,-39.900001525878906
690182,-5.730807781219482,8.550454139709473,-1.1777435541152954,0.18292799592018127,1.6082419157028198,3.346057891845703,249.90000915527344,-93.30000305175781,-43.5
690202,-5.705685615539551,8.240017890930176,-1.120919942855835,0.1295740008354187,2.042695999145508,3.5823400020599365,247.50001525878906,-100.50000762939453,-37.5
690222,-5.724826335906982,8.141324043273926,-1.327877402305603,0.28201398253440857,2.240867853164673,4.085391998291016,240.3000030517578,-98.10000610351562,-36.900001525878906
690245,-5.4951395988464355,8.290860176086426,-1.2243986129760742,0.33536797761917114,2.4009299278259277,4.557955741882324,245.10000610351562,-114.9000015258789,-33.900001525878906
690265,-5.397642135620117,8.226858139038086,-1.24294114112854,0.3277460038661957,2.583858013153076,4.657042026519775,225.90000915527344,-110.10000610351562,-37.5
690305,-5.246910095214844,8.457741737365723,-1.3978601694107056,0.49542999267578125,3.0869100093841553,5.14484977722168,240.3000030517578,-112.50000762939453,-33.30000305175781
690325,-5.257676601409912,8.463125228881836,-1.436739444732666,0.4420759975910187,3.208861827850342,5.0533857345581055,223.50001525878906,-117.30000305175781,-40.5
690345,-5.3701276779174805,8.4176664352417,-1.5725178718566895,0.3048799932003021,3.1173980236053467,5.076251983642578,228.3000030517578,-126.9000015258789,-40.5
690367,-5.476596832275391,8.409890174865723,-1.618574857711792,0.2743920087814331,3.0259339809417725,5.243936061859131,240.3000030517578,-119.70000457763672,-35.70000076293945
690387,-5.109337329864502,8.629408836364746,-1.4887778759002686,-0.06859800219535828,2.903981924057007,5.495461940765381,213.90000915527344,-124.50000762939453,-38.10000228881836
690407,-5.050121307373047,8.41467571258545,-1.4463096857070923,-0.20579399168491364,3.0259339809417725,5.335400104522705,221.10000610351562,-114.9000015258789,-32.70000076293945
690469,-4.271338939666748,8.264541625976562,-1.708296298980713,0.22103799879550934,3.2622158527374268,6.341504096984863,187.5,-150.90000915527344,-39.30000305175781
690489,-4.056605815887451,7.994779109954834,-1.912263035774231,0.39634400606155396,3.307947874069214,6.288149833679199,182.70001220703125,-141.3000030517578,-40.5
690573,-2.161090612411499,8.463125228881836,-1.9619089365005493,0.7621999979019165,1.753059983253479,7.286632061004639,158.70001220703125,-148.5,-32.70000076293945
690602,-0.827829897403717,9.262842178344727,-2.113239049911499,0.4039659798145294,2.987823963165283,6.143332004547119,161.10000610351562,-158.10000610351562,-33.30000305175781
690622,-1.7118852138519287,7.915823936462402,-2.748466968536377,0.853663980960846,3.361301898956299,4.367405891418457,153.90000915527344,-158.10000610351562,-29.100000381469727
690664,-0.5670395493507385,8.846534729003906,-2.790336847305298,0.7774440050125122,1.6844619512557983,5.556437969207764,134.70001220703125,-155.70001220703125,-27.30000114440918
690684,0.12261930853128433,9.236523628234863,-2.5558648109436035,0.7012239694595337,1.6768399477005005,5.655523777008057,137.10000610351562,-158.10000610351562,-33.30000305175781
690704,0.8200539946556091,9.51824951171875,-2.552276134490967,0.6707359552383423,1.9207439422607422,5.167716026306152,137.10000610351562,-160.5,-25.500001907348633
690744,1.3835047483444214,9.21439266204834,-2.0229194164276123,-0.19817200303077698,1.6615959405899048,3.803377866744995,129.90000915527344,-165.3000030517578,-26.100000381469727
690802,1.4875816106796265,9.137231826782227,-1.830317497253418,0.38109999895095825,3.1250200271606445,3.696669816970825,115.50000762939453,-155.70001220703125,-29.700000762939453
690959,0.6950421333312988,9.47518253326416,-1.6879594326019287,-0.35061198472976685,2.5000159740448,0.342989981174469,89.10000610351562,-162.90000915527344,-25.500001907348633
690979,0.8284280300140381,9.354357719421387,-1.7675124406814575,-0.39634400606155396,2.7134318351745605,1.0442140102386475,96.30000305175781,-177.3000030517578,-31.500001907348633
691019,0.8984107375144958,8.616249084472656,-1.7130814790725708,-0.5335400104522705,2.637212038040161,2.2637338638305664,93.9000015258789,-153.3000030517578,-25.500001907348633
691039,1.021030068397522,8.356057167053223,-1.8249342441558838,-0.04573199898004532,2.949713945388794,2.903981924057007,89.10000610351562,-177.3000030517578,-22.5
691063,1.2501188516616821,8.276504516601562,-1.745381236076355,-0.13719600439071655,2.4542839527130127,3.49849796295166,96.30000305175781,-177.3000030517578,-29.100000381469727
691083,1.4152063131332397,8.47030258178711,-1.6646318435668945,0.12195199728012085,2.530503988265991,3.8948419094085693,86.70000457763672,-170.10000610351562,-21.30000114440918
691103,1.530647873878479,8.85789966583252,-1.9654978513717651,0.26677000522613525,2.324709892272949,3.803377866744995,79.5,-167.70001220703125,-30.30000114440918
691127,1.809382438659668,9.02298641204834,-1.649678349494934,-0.2743920087814331,0.9375059604644775,2.942091941833496,79.5,-170.10000610351562,-28.500001907348633
691147,1.8051954507827759,9.00623893737793,-1.5725178718566895,-0.571649968624115,0.7850660085678101,2.1189160346984863,60.30000305175781,-182.10000610351562,-29.700000762939453
691167,1.8620190620422363,8.818421363830566,-1.543807029724121,-0.9222619533538818,0.7164679765701294,1.4481799602508545,77.10000610351562,-177.3000030517578,-29.700000762939453
691187,2.0426583290100098,8.891993522644043,-1.3799158334732056,-0.9984819889068604,0.8307979702949524,1.2118979692459106,79.5,-172.5,-36.30000305175781
691229,1.6616411209106445,8.547463417053223,-1.3984582424163818,-0.7164679765701294,1.5091559886932373,0.9756159782409668,79.5,-172.5,-30.900001525878906
691259,1.3685511350631714,8.859095573425293,-1.417000651359558,-0.4039659798145294,1.4862899780273438,0.7698220014572144,69.9000015258789,-174.90000915527344,-25.500001907348633
691279,1.3841028213500977,9.14261531829834,-1.2136321067810059,-0.48018598556518555,1.5167779922485352,0.426831990480423,65.10000610351562,-167.70001220703125,-30.30000114440918
691320,1.321895956993103,9.306506156921387,-1.0951998233795166,-0.739333987236023,2.1112940311431885,-0.18292799592018127,57.900001525878906,-162.90000915527344,-26.700000762939453
691340,1.2046599388122559,9.168933868408203,-1.0718722343444824,-0.7164679765701294,2.2103798389434814,-0.4725639820098877,69.9000015258789,-170.10000610351562,-20.100000381469727
691380,1.5270589590072632,9.49312686920166,-1.1316864490509033,-0.4192099869251251,1.9588539600372314,-0.7317119836807251,74.70000457763672,-167.70001220703125,-24.900001525878906
691403,2.0558173656463623,9.347180366516113,-1.0365817546844482,-0.4039659798145294,2.240867853164673,-0.49542999267578125,62.70000076293945,-194.10000610351562,-32.70000076293945
691423,2.625847578048706,9.884910583496094,-1.1490325927734375,-0.44969800114631653,2.4085519313812256,-0.04573199898004532,65.10000610351562,-182.10000610351562,-30.30000114440918
691443,2.7945239543914795,9.4793701171875,-0.9372900128364563,-0.9603719711303711,2.6219680309295654,-0.1600620001554489,69.9000015258789,-189.3000030517578,-24.900001525878906
691504,2.4272642135620117,9.087586402893066,-2.0528266429901123,0.2439039945602417,3.3231918811798096,0.4725639820098877,77.10000610351562,-182.10000610351562,-24.900001525878906
691524,2.4583675861358643,9.280786514282227,-2.5953423976898193,0.853663980960846,3.1783738136291504,0.5487840175628662,79.5,-170.10000610351562,-23.700000762939453
691544,2.313018798828125,8.95838737487793,-2.7921314239501953,1.013725996017456,2.5686140060424805,0.38109999895095825,67.5,-172.5,-26.100000381469727
691564,2.6150810718536377,9.388452529907227,-3.1037638187408447,1.5396440029144287,2.0960500240325928,0.9603719711303711,60.30000305175781,-177.3000030517578,-26.700000762939453
691624,2.49485445022583,9.835265159606934,-3.4985382556915283,1.6311079263687134,0.8841519951820374,0.1600620001554489,67.5,-170.10000610351562,-28.500001907348633
691644,2.619866132736206,10.103233337402344,-3.332254409790039,1.3795819282531738,0.2896359860897064,0.1600620001554489,55.500003814697266,-179.70001220703125,-27.30000114440918
691664,2.554070472717285,10.053586959838867,-2.9913129806518555,0.8307979702949524,0.22103799879550934,-0.1295740008354187,57.900001525878906,-179.70001220703125,-26.100000381469727
691684,2.3925719261169434,9.68632698059082,-2.8005053997039795,0.46494197845458984,0.5335400104522705,-0.46494197845458984,57.900001525878906,-172.5,-22.5
691744,1.6676225662231445,8.464919090270996,-2.6545584201812744,0.3125019967556,1.1280559301376343,-1.2728739976882935,65.10000610351562,-162.90000915527344,-19.5
691767,1.655659794807434,8.084500312805176,-2.551079750061035,0.49542999267578125,1.4558019638061523,-0.6097599864006042,62.70000076293945,-162.90000915527344,-25.500001907348633
691827,1.9200389385223389,8.005545616149902,-2.733513355255127,1.2042759656906128,1.9054999351501465,1.5320219993591309,62.70000076293945,-172.5,-21.30000114440918
691919,2.471526861190796,8.222073554992676,-3.4273593425750732,0.9756159782409668,1.9664759635925293,1.7149499654769897,50.70000076293945,-162.90000915527344,-18.30000114440918
691959,2.6581473350524902,8.568398475646973,-3.791030168533325,0.007621999830007553,0.6326259970664978,1.653973937034607,69.9000015258789,-162.90000915527344,-19.5
691979,2.6611380577087402,8.517556190490723,-3.892714500427246,-0.4344539940357208,0.6783579587936401,1.242385983467102,36.30000305175781,-186.90000915527344,-21.30000114440918
692000,2.6210625171661377,8.442788124084473,-4.0165300369262695,-0.44969800114631653,0.228659987449646,0.9070180058479309,50.70000076293945,-182.10000610351562,-19.5
692043,2.7042043209075928,8.370412826538086,-3.4895660877227783,-1.4481799602508545,-0.967993974685669,0.5335400104522705,43.5,-167.70001220703125,-19.5
692083,2.861515998840332,8.670082092285156,-3.410611152648926,-1.7987920045852661,-0.8917739987373352,0.15243999660015106,36.30000305175781,-182.10000610351562,-18.900001525878906
692239,3.380105972290039,8.74006462097168,-1.8805614709854126,-1.5015339851379395,-1.14329993724823,0.06859800219535828,43.5,-170.10000610351562,-14.700000762939453
692279,4.175037860870361,10.34189224243164,-1.8237379789352417,-1.242385983467102,-1.707327961921692,1.2347639799118042,41.10000228881836,-172.5,-23.100000381469727
692299,3.6737940311431885,9.430920600891113,-1.408626675605774,-1.4405579566955566,-1.577754020690918,0.1448179930448532,41.10000228881836,-172.5,-25.500001907348633
692341,3.63910174369812,9.96147346496582,-1.0880221128463745,-1.0518360137939453,-1.6768399477005005,0.7012239694595337,48.30000305175781,-174.90000915527344,-27.30000114440918
692385,3.4064242839813232,9.549352645874023,-1.1454437971115112,-1.4329359531402588,-0.2591480016708374,-0.7164679765701294,36.30000305175781,-174.90000915527344,-24.900001525878906
692429,2.7436819076538086,8.709559440612793,-0.8475685715675354,-1.4558019638061523,0,-1.013725996017456,38.70000076293945,-172.5,-31.500001907348633
692459,2.5708184242248535,8.469106674194336,-0.91276615858078,-1.2804960012435913,0.10670799762010574,-1.067080020904541,43.5,-174.90000915527344,-23.100000381469727
692480,2.616875410079956,8.457143783569336,-0.8469704389572144,-0.9756159782409668,0.2591480016708374,-0.7240899801254272,48.30000305175781,-172.5,-27.900001525878906
692520,2.7831592559814453,8.390151023864746,-0.8768776059150696,-0.5792719721794128,-0.05335399881005287,0.3048799932003021,38.70000076293945,-170.10000610351562,-35.10000228881836
692560,2.990116596221924,9.239514350891113,-0.821250319480896,-0.48018598556518555,0.20579399168491364,0.8384199738502502,45.900001525878906,-167.70001220703125,-22.5
692580,3.0002851486206055,9.317273139953613,-0.821250319480896,-0.6554920077323914,0.3734779953956604,0.44969800114631653,53.10000228881836,-172.5,-29.100000381469727
692603,2.9972944259643555,9.254467964172363,-0.9301123023033142,-0.7774440050125122,0.5335400104522705,0.2743920087814331,43.5,-179.70001220703125,-24.30000114440918
692644,2.8483567237854004,9.315478324890137,-0.9797582030296326,-0.510673999786377,0.2972579896450043,0.12195199728012085,36.30000305175781,-167.70001220703125,-23.700000762939453
692666,2.729924440383911,9.272412300109863,-0.8625221848487854,-0.3582339882850647,0.10670799762010574,0.030487999320030212,33.900001525878906,-179.70001220703125,-29.700000762939453
692686,2.7317190170288086,9.35675048828125,-0.9037940502166748,-0.2896359860897064,0.10670799762010574,0.05335399881005287,48.30000305175781,-177.3000030517578,-30.30000114440918
692706,2.727531909942627,9.20123291015625,-0.9073829054832458,-0.33536797761917114,0.08384199440479279,0.06859800219535828,41.10000228881836,-172.5,-24.30000114440918
692726,2.8028979301452637,8.82380485534668,-0.903195858001709,-0.09908600151538849,0.038109999150037766,0.6707359552383423,43.5,-170.10000610351562,-26.700000762939453
692749,3.0122480392456055,9.01102352142334,-0.8206521272659302,0.007621999830007553,0.015243999660015106,1.1509219408035278,33.900001525878906,-174.90000915527344,-20.700000762939453
692769,3.1199138164520264,8.851319313049316,-0.7225567102432251,-0.2439039945602417,0.18292799592018127,1.3948259353637695,43.5,-177.3000030517578,-28.500001907348633
692789,3.1976723670959473,8.71434497833252,-0.6208723783493042,-0.33536797761917114,0.39634400606155396,1.5472660064697266,38.70000076293945,-172.5,-31.500001907348633
692809,3.404629707336426,8.942835807800293,-0.6764997243881226,-0.25152599811553955,0.7469559907913208,1.6311079263687134,29.100000381469727,-177.3000030517578,-29.700000762939453
692829,3.4417147636413574,8.98410701751709,-0.6806867122650146,-0.3125019967556,0.8460419774055481,1.3414719104766846,36.30000305175781,-179.70001220703125,-29.100000381469727
692849,3.377115249633789,8.528322219848633,-0.5760116577148438,-0.4039659798145294,1.0975680351257324,1.0747020244598389,24.30000114440918,-182.10000610351562,-26.100000381469727
692869,3.457266330718994,8.880030632019043,-0.6053206920623779,0.04573199898004532,1.1280559301376343,0.914639949798584,29.100000381469727,-189.3000030517578,-29.700000762939453
692932,3.335245132446289,8.007340431213379,-0.6262556910514832,-0.5411620140075684,1.4024479389190674,-1.189031958580017,26.700000762939453,-167.70001220703125,-29.700000762939453
692952,3.0929973125457764,7.911637306213379,-1.2285857200622559,0.853663980960846,2.294221878051758,0.13719600439071655,14.700000762939453,-177.3000030517578,-21.30000114440918
692972,3.296964168548584,9.188074111938477,-1.7388015985488892,1.1661659479141235,2.134160041809082,0.2591480016708374,24.30000114440918,-179.70001220703125,-31.500001907348633
692992,3.245523691177368,9.250879287719727,-2.214325189590454,0.9832379817962646,2.088428020477295,-0.4725639820098877,12.300000190734863,-170.10000610351562,-23.100000381469727
693015,3.1528115272521973,8.144912719726562,-2.2310733795166016,0.8384199738502502,1.9207439422607422,-1.021347999572754,12.300000190734863,-174.90000915527344,-24.30000114440918
693057,3.365152359008789,8.48226547241211,-2.6832692623138428,1.0747020244598389,1.4405579566955566,0.2743920087814331,21.900001525878906,-177.3000030517578,-23.100000381469727
693117,3.6917383670806885,9.036744117736816,-3.552371025085449,1.5091559886932373,2.2180018424987793,-0.2743920087814331,17.100000381469727,-184.5,-26.100000381469727
693137,3.4506866931915283,8.4057035446167,-3.3902742862701416,1.2347639799118042,1.1814099550247192,-0.6936019659042358,36.30000305175781,-179.70001220703125,-22.5
693157,3.380704164505005,8.070144653320312,-3.425564765930176,1.4024479389190674,0.9375059604644775,-0.4039659798145294,24.30000114440918,-170.10000610351562,-18.30000114440918
693177,3.3998446464538574,8.333328247070312,-3.3639559745788574,1.2347639799118042,0.342989981174469,0.060975998640060425,21.900001525878906,-174.90000915527344,-18.900001525878906
693197,3.579885721206665,8.70537281036377,-3.2126259803771973,0.7698220014572144,-0.02286599949002266,0.09908600151538849,24.30000114440918,-177.3000030517578,-22.5
693240,3.6313259601593018,8.125772476196289,-2.885441780090332,-0.3734779953956604,-0.3277460038661957,0,14.700000762939453,-165.3000030517578,-15.300000190734863
693306,3.818544626235962,8.147903442382812,-2.4781062602996826,-0.5792719721794128,-0.457319974899292,0.8612859845161438,31.500001907348633,-172.5,-24.30000114440918
693326,3.8382835388183594,8.062369346618652,-2.366253614425659,-0.5259180068969727,-0.571649968624115,0.8307979702949524,19.5,-179.70001220703125,-17.700000762939453
693350,3.8496482372283936,8.1245756149292,-2.3327574729919434,-0.23628199100494385,-0.4878079891204834,0.7774440050125122,21.900001525878906,-177.3000030517578,-24.30000114440918
693370,4.39395809173584,9.551146507263184,-2.6748952865600586,0.5182960033416748,-0.18292799592018127,1.417691946029663,24.30000114440918,-177.3000030517578,-30.30000114440918
693394,4.002772808074951,8.777748107910156,-2.607903242111206,-0.4725639820098877,-0.9756159782409668,-0.853663980960846,12.300000190734863,-179.70001220703125,-26.100000381469727
693414,3.4351351261138916,7.7752604484558105,-2.2855043411254883,0.342989981174469,-1.3643379211425781,-0.5640279650688171,17.100000381469727,-174.90000915527344,-17.100000381469727
693434,3.7042994499206543,8.763392448425293,-2.137164831161499,0.1600620001554489,-1.4634239673614502,0.2972579896450043,33.900001525878906,-172.5,-24.900001525878906
693454,3.4943511486053467,8.707765579223633,-1.8446729183197021,-0.6173819899559021,-0.9375059604644775,-0.33536797761917114,5.100000381469727,-174.90000915527344,-23.700000762939453
693474,3.5428009033203125,8.62881088256836,-1.8727856874465942,-0.8155539631843567,-0.5335400104522705,-0.19817200303077698,17.100000381469727,-174.90000915527344,-18.30000114440918
693494,3.43692946434021,8.709559440612793,-1.6413042545318604,-1.3795819282531738,-0.3048799932003021,0.015243999660015106,36.30000305175781,-177.3000030517578,-25.500001907348633
693517,3.3645541667938232,8.724513053894043,-1.7734938859939575,-1.6920839548110962,-0.09146399796009064,0.1448179930448532,5.100000381469727,-170.10000610351562,-21.900001525878906
693537,3.455471992492676,8.44458293914795,-1.5491902828216553,-1.8902559280395508,-0.2439039945602417,0.22103799879550934,14.700000762939453,-172.5,-24.30000114440918
693597,3.317898988723755,8.620436668395996,-1.4911704063415527,-1.0975680351257324,0.6478700041770935,0.8689079880714417,17.100000381469727,-170.10000610351562,-15.300000190734863
693617,3.2987585067749023,8.752626419067383,-1.6813799142837524,-0.5868939757347107,0.44969800114631653,0.5030519962310791,14.700000762939453,-167.70001220703125,-24.30000114440918
693659,3.44291090965271,8.97214412689209,-1.6921464204788208,-0.02286599949002266,-0.28201398253440857,-0.5182960033416748,7.500000476837158,-165.3000030517578,-20.700000762939453
693679,3.505715847015381,9.005640983581543,-1.6604448556900024,0.12195199728012085,-0.3125019967556,-0.6631140112876892,2.700000047683716,-179.70001220703125,-23.100000381469727
693699,3.511697292327881,9.158764839172363,-1.7609329223632812,0.060975998640060425,-0.1448179930448532,-0.7164679765701294,17.100000381469727,-184.5,-22.5
693742,3.4237704277038574,9.107922554016113,-1.6598467826843262,-0.23628199100494385,-0.05335399881005287,-0.8612859845161438,24.30000114440918,-172.5,-23.100000381469727
693980,2.8866379261016846,8.923694610595703,-1.8811596632003784,-0.1600620001554489,0.16768398880958557,-0.5792719721794128,31.500001907348633,-189.3000030517578,-26.700000762939453
694078,3.162980079650879,9.02717399597168,-1.6742022037506104,-0.3048799932003021,-1.021347999572754,-0.739333987236023,24.30000114440918,-170.10000610351562,-29.700000762939453
694098,3.2060463428497314,9.01222038269043,-1.6107990741729736,-0.4192099869251251,-0.7545779943466187,-0.8079319596290588,17.100000381469727,-172.5,-21.900001525878906
694138,3.2479162216186523,8.617445945739746,-1.5862751007080078,-0.6631140112876892,0.060975998640060425,-0.5030519962310791,33.900001525878906,-170.10000610351562,-23.100000381469727
694162,3.21980357170105,8.688026428222656,-1.6933428049087524,-0.2743920087814331,0.19817200303077698,-0.17530599236488342,31.500001907348633,-172.5,-29.700000762939453
694182,3.3256750106811523,8.84892749786377,-1.636519193649292,-0.02286599949002266,0.19817200303077698,0.16768398880958557,24.30000114440918,-179.70001220703125,-29.100000381469727
694202,3.2245888710021973,9.09296989440918,-1.7788771390914917,0.04573199898004532,0.5411620140075684,0.23628199100494385,9.90000057220459,-172.5,-30.30000114440918
694222,3.0451457500457764,9.145008087158203,-1.9475535154342651,-0.015243999660015106,0.4420759975910187,0.038109999150037766,29.100000381469727,-174.90000915527344,-23.100000381469727
694284,2.9249191284179688,8.871058464050293,-2.0067696571350098,-0.3277460038661957,-0.38109999895095825,-0.739333987236023,29.100000381469727,-172.5,-24.900001525878906
694799,2.9907147884368896,9.07502555847168,-1.8129713535308838,0.05335399881005287,0.6402480006217957,-0.19054999947547913,33.900001525878906,-182.10000610351562,-26.700000762939453
694839,2.8860397338867188,8.66170883178711,-1.948151707649231,0.28201398253440857,-0.2896359860897064,-0.5411620140075684,36.30000305175781,-170.10000610351562,-28.500001907348633
695119,2.832206964492798,8.958985328674316,-1.9625071287155151,-0.038109999150037766,-0.4344539940357208,-0.6021379828453064,24.30000114440918,-165.3000030517578,-23.100000381469727
695157,2.9937055110931396,8.777748107910156,-1.9445627927780151,-0.07621999830007553,-0.5792719721794128,-0.5868939757347107,24.30000114440918,-167.70001220703125,-20.700000762939453
695177,3.076847553253174,8.99606990814209,-1.8536450862884521,-0.22103799879550934,-0.7774440050125122,-0.23628199100494385,38.70000076293945,-167.70001220703125,-29.700000762939453
695217,3.1402506828308105,8.75501823425293,-1.7106889486312866,-0.6021379828453064,0.20579399168491364,-0.3048799932003021,29.100000381469727,-167.70001220703125,-29.100000381469727
695257,3.1815223693847656,8.81902027130127,-1.8680005073547363,-0.19054999947547913,0.457319974899292,0.15243999660015106,21.900001525878906,-167.70001220703125,-24.30000114440918
695482,2.999088764190674,8.694605827331543,-2.2729432582855225,0.08384199440479279,0.18292799592018127,-0.015243999660015106,33.900001525878906,-182.10000610351562,-27.900001525878906
695719,2.917741298675537,9.02298641204834,-1.9930124282836914,-0.04573199898004532,0.5259180068969727,-0.46494197845458984,29.100000381469727,-179.70001220703125,-21.900001525878906
695878,2.9314987659454346,8.90156364440918,-2.1449406147003174,0,0.41158798336982727,-0.4039659798145294,31.500001907348633,-170.10000610351562,-17.700000762939453
695899,2.920732021331787,8.918312072753906,-2.1569035053253174,-0.060975998640060425,0.6097599864006042,-0.38109999895095825,29.100000381469727,-167.70001220703125,-19.5
695940,2.9518356323242188,8.834571838378906,-2.122211217880249,-0.07621999830007553,0.6554920077323914,-0.3201240003108978,31.500001907348633,-177.3000030517578,-20.700000762939453
695960,2.962602138519287,8.77894401550293,-2.125201940536499,-0.16768398880958557,0.6936019659042358,-0.2591480016708374,38.70000076293945,-172.5,-27.30000114440918
695980,3.064286470413208,8.872254371643066,-2.161090612411499,-0.08384199440479279,0.7012239694595337,-0.04573199898004532,24.30000114440918,-179.70001220703125,-25.500001907348633
696000,3.0959880352020264,8.917115211486816,-2.0737617015838623,-0.228659987449646,0.6021379828453064,-0.04573199898004532,31.500001907348633,-165.3000030517578,-26.100000381469727
696023,3.1043620109558105,8.84174919128418,-2.039069414138794,-0.4420759975910187,0.5564059615135193,-0.038109999150037766,41.10000228881836,-172.5,-23.100000381469727
696043,3.290982723236084,9.03794002532959,-2.146735191345215,-0.3887220025062561,0.5259180068969727,0.10670799762010574,38.70000076293945,-160.5,-28.500001907348633
696064,3.2802159786224365,9.01999568939209,-2.029499053955078,-0.4725639820098877,0.3582339882850647,-0.060975998640060425,41.10000228881836,-186.90000915527344,-21.900001525878906
696124,3.3280675411224365,8.82081413269043,-1.8536450862884521,-0.6173819899559021,0.060975998640060425,-0.46494197845458984,33.900001525878906,-177.3000030517578,-22.5
696144,3.41001296043396,8.815430641174316,-1.8727856874465942,-0.4878079891204834,-0.02286599949002266,-0.228659987449646,38.70000076293945,-167.70001220703125,-24.900001525878906
696164,3.3783113956451416,8.586342811584473,-1.7800735235214233,-0.5259180068969727,-0.2591480016708374,-0.13719600439071655,24.30000114440918,-182.10000610351562,-21.900001525878906
696184,3.4746124744415283,8.51815414428711,-1.6801836490631104,-0.426831990480423,-0.5335400104522705,0.02286599949002266,26.700000762939453,-177.3000030517578,-23.100000381469727
696204,3.699514389038086,8.911731719970703,-1.640706181526184,-0.342989981174469,-0.6402480006217957,0.36585599184036255,43.5,-170.10000610351562,-18.900001525878906
696224,3.6373074054718018,8.750831604003906,-1.628743290901184,-0.6783579587936401,-0.5868939757347107,0.114329993724823,26.700000762939453,-182.10000610351562,-26.100000381469727
696247,3.7569360733032227,8.744850158691406,-1.542610764503479,-0.5868939757347107,-1.1585439443588257,-0.04573199898004532,29.100000381469727,-182.10000610351562,-26.700000762939453
696287,3.71686053276062,8.54806137084961,-1.3745325803756714,-0.457319974899292,-0.9070180058479309,-0.6478700041770935,36.30000305175781,-174.90000915527344,-20.100000381469727
696309,3.6504664421081543,8.406301498413086,-1.414608120918274,-0.342989981174469,-0.7774440050125122,-0.9451279640197754,33.900001525878906,-177.3000030517578,-24.900001525878906
696329,3.4865753650665283,8.038443565368652,-1.3918787240982056,-0.038109999150037766,-0.6554920077323914,-1.2804960012435913,36.30000305175781,-162.90000915527344,-17.100000381469727
696350,3.2096352577209473,7.366728782653809,-1.4104211330413818,0.04573199898004532,-0.7240899801254272,-1.4405579566955566,33.900001525878906,-174.90000915527344,-17.700000762939453
696370,2.8244311809539795,6.76439905166626,-1.421785831451416,0.1448179930448532,-0.8384199738502502,-1.2881180047988892,24.30000114440918,-189.3000030517578,-23.100000381469727
696412,1.0048801898956299,3.9309957027435303,-0.9773656129837036,-0.05335399881005287,-0.3734779953956604,-2.080806016921997,45.900001525878906,-182.10000610351562,-15.90000057220459
696435,0.49047723412513733,3.6983180046081543,-1.429561734199524,-0.4039659798145294,0.48018598556518555,0.1295740008354187,50.70000076293945,-172.5,-18.30000114440918
696455,0.2930900454521179,3.908266067504883,-1.3476160764694214,-1.196653962135315,0.26677000522613525,1.524399995803833,43.5,-177.3000030517578,-21.30000114440918
696477,-0.06878644227981567,5.198460578918457,-2.137164831161499,-0.38109999895095825,1.6311079263687134,3.711913824081421,45.900001525878906,-174.90000915527344,-23.700000762939453
696497,0.8224465847015381,9.554736137390137,-3.162980079650879,1.3567159175872803,3.9786839485168457,8.628104209899902,29.100000381469727,-167.70001220703125,-24.900001525878906
696577,9.244897842407227,19.599349975585938,-4.346107006072998,1.6768399477005005,2.652456045150757,7.614377975463867,17.100000381469727,-172.5,-30.900001525878906
696597,11.931158065795898,19.561668395996094,-6.504206657409668,0.2134159952402115,8.437553405761719,7.515291690826416,-4.5,-184.5,-24.30000114440918
696619,8.779542922973633,19.361289978027344,-7.6891279220581055,1.9054999351501465,-3.818621873855591,-6.105221748352051,5.100000381469727,-170.10000610351562,-24.900001525878906
696660,4.256983757019043,11.802556991577148,0.032897863537073135,-3.4908759593963623,-8.986337661743164,-5.2134480476379395,17.100000381469727,-177.3000030517578,-27.30000114440918
696722,-0.6208723783493042,0.7040143013000488,0.27574390172958374,-1.6082419157028198,-1.3567159175872803,-8.46804141998291,36.30000305175781,-182.10000610351562,-29.100000381469727
696743,-1.5444051027297974,-0.8409889936447144,0.2506219148635864,-1.5320219993591309,0.2972579896450043,-5.693634033203125,55.500003814697266,-177.3000030517578,-24.900001525878906
696763,-1.0862276554107666,-0.9378882050514221,0.11544159054756165,-1.2195199728012085,0.1600620001554489,-2.690565824508667,43.5,-170.10000610351562,-16.5
696783,-0.041870009154081345,0.23626647889614105,0.5383286476135254,-0.2134159952402115,-0.38109999895095825,-0.49542999267578125,45.900001525878906,-184.5,-21.900001525878906
696803,0.7004254460334778,1.2991665601730347,0.5975448489189148,-0.3201240003108978,0.3582339882850647,0.114329993724823,43.5,-172.5,-20.700000762939453
696847,-0.35110992193222046,-0.7165752649307251,0.49346795678138733,-0.22103799879550934,1.5091559886932373,1.2728739976882935,38.70000076293945,-177.3000030517578,-19.5
696868,-0.5473008155822754,-0.33795076608657837,0.3899892270565033,-0.6097599864006042,2.042695999145508,1.5396440029144287,36.30000305175781,-182.10000610351562,-30.900001525878906
696888,-0.7955301403999329,-0.47791624069213867,0.05323472619056702,-0.5259180068969727,2.233245849609375,1.2118979692459106,41.10000228881836,-162.90000915527344,-21.30000114440918
696909,0.1280025988817215,1.6610430479049683,-0.362474650144577,0.5182960033416748,2.0579400062561035,3.8414878845214844,41.10000228881836,-174.90000915527344,-29.100000381469727
696929,1.6179767847061157,5.120701789855957,-1.040170669555664,1.699705958366394,3.7881338596343994,8.429931640625,43.5,-182.10000610351562,-20.700000762939453
696951,4.61407470703125,9.71743106842041,-2.3058412075042725,0.3125019967556,5.525949954986572,12.225687980651855,21.900001525878906,-184.5,-21.30000114440918
697031,13.00362777709961,19.599349975585938,-5.8079681396484375,1.646351933479309,9.939087867736816,16.02906608581543,-6.900000095367432,-170.10000610351562,-24.30000114440918
697199,-1.1663787364959717,-1.6897538900375366,1.000095009803772,-0.9527499675750732,0.4192099869251251,-8.186027526855469,24.30000114440918,-172.5,-23.100000381469727
697219,-0.9271215796470642,-0.7620341181755066,-0.6130965352058411,0.16768398880958557,0.7317119836807251,-1.2881180047988892,36.30000305175781,-186.90000915527344,-22.5
697259,0.2649773359298706,1.3930749893188477,-0.22789247334003448,1.2042759656906128,-1.417691946029663,-0.12195199728012085,36.30000305175781,-184.5,-25.500001907348633
697282,-0.10288058966398239,0.176452174782753,-0.06160872429609299,-0.05335399881005287,-0.8841519951820374,-1.3414719104766846,38.70000076293945,-182.10000610351562,-24.30000114440918
697302,-0.16269488632678986,-0.14175988733768463,0.18063917756080627,-0.16768398880958557,-1.3109840154647827,-0.9298839569091797,29.100000381469727,-170.10000610351562,-24.30000114440918
697322,-0.3475210666656494,-0.708799421787262,0.5993392467498779,-0.7850660085678101,-1.0061039924621582,-0.8917739987373352,43.5,-172.5,-21.900001525878906
697342,-0.4737292230129242,-0.9743748903274536,0.6430037021636963,-1.242385983467102,0.09908600151538849,-0.3734779953956604,33.900001525878906,-177.3000030517578,-21.900001525878906
697365,-0.4234852194786072,-0.5724228024482727,0.3235953450202942,-1.1204339265823364,1.3872039318084717,0.7469559907913208,36.30000305175781,-172.5,-23.100000381469727
697385,0.2733513414859772,1.4074304103851318,-0.32778236269950867,-0.007621999830007553,2.484771966934204,2.888737916946411,31.500001907348633,-184.5,-26.700000762939453
697445,5.481382369995117,13.68311882019043,-2.732915163040161,-0.4192099869251251,5.198204040527344,14.96960735321045,9.90000057220459,-174.90000915527344,-27.30000114440918
697485,7.853617191314697,17.603946685791016,-3.9447529315948486,3.4756319522857666,5.960403919219971,3.300325870513916,0.30000001192092896,-170.10000610351562,-18.30000114440918
697560,13.87811279296875,19.599349975585938,-5.225377082824707,-4.0396599769592285,-9.291217803955078,-2.9116039276123047,-23.700000762939453,-172.5,-26.700000762939453
697580,10.662496566772461,19.059226989746094,-2.635417938232422,-3.711913824081421,-7.96498966217041,-4.2988080978393555,-21.30000114440918,-172.5,-20.100000381469727
697622,3.705495595932007,8.554640769958496,-0.7345195412635803,-0.457319974899292,-4.32167387008667,-15.670831680297852,-2.1000001430511475,-174.90000915527344,-22.5
697642,0.4312610924243927,1.9086742401123047,0.22131289541721344,0.3201240003108978,-3.201239824295044,-19.085487365722656,17.100000381469727,-172.5,-21.30000114440918
697662,-1.9032909870147705,-2.0169382095336914,0.03887929394841194,0.7240899801254272,-0.5182960033416748,-14.138810157775879,36.30000305175781,-182.10000610351562,-17.100000381469727
697682,-1.9385813474655151,-2.5325372219085693,-0.18781688809394836,-0.33536797761917114,0.7088459730148315,-4.817103862762451,43.5,-179.70001220703125,-22.5
697703,-0.22310732305049896,-0.0795530155301094,-0.3367545008659363,1.4481799602508545,-1.2576299905776978,-0.7621999979019165,43.5,-177.3000030517578,-24.30000114440918
697743,0.8876441717147827,1.1448456048965454,0.0927121639251709,1.2195199728012085,-1.471045970916748,0.5868939757347107,45.900001525878906,-167.70001220703125,-23.700000762939453
697763,0.2751457691192627,0.41690564155578613,0.14893759787082672,0.17530599236488342,-0.5259180068969727,0.2134159952402115,57.900001525878906,-162.90000915527344,-24.30000114440918
697787,0.08074930310249329,-0.08074930310249329,0.2930900454521179,-0.5411620140075684,-0.739333987236023,0.2439039945602417,48.30000305175781,-160.5,-18.900001525878906
697807,-0.09390844404697418,-0.5431138277053833,0.5538803935050964,-1.1661659479141235,-0.342989981174469,-0.1448179930448532,53.10000228881836,-191.70001220703125,-24.900001525878906
697827,-0.20336860418319702,-0.708799421787262,0.5102159380912781,-1.5091559886932373,0.6631140112876892,0.015243999660015106,24.30000114440918,-177.3000030517578,-18.900001525878906
697848,-0.24344418942928314,-0.6208723783493042,0.409129798412323,-1.600619912147522,1.2347639799118042,0.2972579896450043,43.5,-167.70001220703125,-26.100000381469727
697868,-0.4815050959587097,-0.4492053687572479,0.26138848066329956,-1.646351933479309,1.7606819868087769,0.6783579587936401,48.30000305175781,-177.3000030517578,-27.30000114440918
697888,0.012561002746224403,2.1533145904541016,-0.4282703697681427,0.4039659798145294,3.361301898956299,3.452765941619873,29.100000381469727,-167.70001220703125,-23.100000381469727
697912,2.7048025131225586,7.738773822784424,-1.7118852138519287,-1.3872039318084717,1.9207439422607422,6.852177619934082,31.500001907348633,-182.10000610351562,-26.700000762939453
697932,2.6007256507873535,11.487934112548828,-2.298065185546875,2.7134318351745605,6.791202068328857,11.219583511352539,24.30000114440918,-177.3000030517578,-23.100000381469727
697972,5.952718734741211,16.387920379638672,-3.4776031970977783,-1.646351933479309,-0.6936019659042358,-2.2103798389434814,12.300000190734863,-165.3000030517578,-25.500001907348633
697992,9.07981014251709,19.185436248779297,-5.4113993644714355,6.905531883239746,7.477181911468506,7.728707790374756,-2.1000001430511475,-179.70001220703125,-15.300000190734863
698012,17.72477149963379,19.563461303710938,-6.68963098526001,-2.027451992034912,14.230273246765137,15.022961616516113,-14.100000381469727,-162.90000915527344,-31.500001907348633
698032,14.422423362731934,19.599349975585938,-9.176111221313477,2.843005895614624,0.3201240003108978,-4.245453834533691,-30.900001525878906,-167.70001220703125,-21.30000114440918
698052,11.965251922607422,19.598752975463867,-7.2177910804748535,-3.2850818634033203,-12.683008193969727,-5.655523777008057,-16.5,-165.3000030517578,-23.700000762939453
698073,9.331628799438477,18.42579460144043,-1.9762643575668335,-6.455833911895752,-14.809545516967773,-1.935987949371338,-16.5,-174.90000915527344,-18.900001525878906
698094,6.7380805015563965,14.38832950592041,-1.2166228294372559,-1.9740979671478271,-2.9649579524993896,-5.39637565612793,-2.1000001430511475,-167.70001220703125,-27.900001525878906
698116,4.3592658042907715,9.299328804016113,-2.7981128692626953,0.9222619533538818,-0.9375059604644775,-12.10373592376709,5.100000381469727,-174.90000915527344,-24.900001525878906
698136,1.3763269186019897,3.591848611831665,-1.2226042747497559,-1.7683039903640747,-5.762231826782227,-13.765331268310547,14.700000762939453,-177.3000030517578,-17.100000381469727
698198,-0.24643489718437195,-0.20037789642810822,-0.2237054705619812,0.4039659798145294,-1.242385983467102,-0.9375059604644775,31.500001907348633,-174.90000915527344,-27.900001525878906
698218,0.5562729835510254,0.6424055695533752,0.025720147415995598,1.1509219408035278,-1.753059983253479,-0.09908600151538849,53.10000228881836,-186.90000915527344,-20.100000381469727
698241,0.6370222568511963,0.6806867122650146,0.08015115559101105,0.49542999267578125,-0.9222619533538818,0.015243999660015106,24.30000114440918,-177.3000030517578,-22.5
698281,0.19619089365005493,-0.4898791015148163,0.16748003661632538,-0.4344539940357208,-0.6250039935112,-0.04573199898004532,21.900001525878906,-174.90000915527344,-25.500001907348633
698301,0.07177715748548508,-0.7698100209236145,0.48090696334838867,-0.9298839569091797,-0.3734779953956604,0.09908600151538849,33.900001525878906,-196.50001525878906,-24.900001525878906
698321,0.014953574165701866,-0.9384863376617432,0.5993392467498779,-1.524399995803833,0.7240899801254272,0.7774440050125122,53.10000228881836,-182.10000610351562,-18.900001525878906
698341,-0.08792701363563538,-0.6166853904724121,0.5921615362167358,-1.5701320171356201,1.8369019031524658,1.5625100135803223,38.70000076293945,-172.5,-27.900001525878906
698405,3.785048723220825,10.869454383850098,-2.363262891769409,1.189031958580017,6.417723655700684,11.547329902648926,17.100000381469727,-170.10000610351562,-23.100000381469727
698461,10.569186210632324,19.599349975585938,-4.84615421295166,4.009171962738037,7.881147861480713,6.631139755249023,-2.1000001430511475,-165.3000030517578,-25.500001907348633
698481,18.130908966064453,19.589780807495117,-6.599909782409668,1.653973937034607,13.605269432067871,14.436067581176758,-26.100000381469727,-162.90000915527344,-31.500001907348633
698501,16.427398681640625,19.599349975585938,-9.069642066955566,2.278977870941162,4.085391998291016,0.8460419774055481,-33.30000305175781,-170.10000610351562,-21.30000114440918
698521,13.45582389831543,19.599349975585938,-7.506694316864014,-3.1250200271606445,-7.515291690826416,-0.6707359552383423,-26.100000381469727,-158.10000610351562,-22.5
698564,5.745761394500732,12.514945030212402,-1.2106413841247559,-3.8491098880767822,-7.484803676605225,-8.368955612182617,-6.900000095367432,-167.70001220703125,-18.30000114440918
698584,2.631829023361206,7.755521774291992,-0.6753033995628357,-0.8689079880714417,-4.367405891418457,-12.652520179748535,-14.100000381469727,-167.70001220703125,-26.100000381469727
698604,-0.5347397923469543,-0.48329952359199524,0.17465774714946747,0.9832379817962646,-1.3414719104766846,-15.274487495422363,17.100000381469727,-172.5,-23.100000381469727
698624,-1.3476160764694214,-1.719660997390747,0.21413518488407135,0.5487840175628662,0.060975998640060425,-12.187578201293945,12.300000190734863,-186.90000915527344,-21.30000114440918
698667,0.44501838088035583,0.3182120621204376,-0.5688339471817017,2.1189160346984863,-0.2439039945602417,-1.013725996017456,29.100000381469727,-170.10000610351562,-22.5
698697,0.7871561646461487,0.5042345523834229,-0.11065644770860672,1.2271419763565063,-0.8231759667396545,-0.5945159792900085,29.100000381469727,-165.3000030517578,-26.100000381469727
698718,0.3828114867210388,-0.23626647889614105,-0.16269488632678986,0.4878079891204834,-0.6250039935112,-0.6478700041770935,36.30000305175781,-174.90000915527344,-23.700000762939453
698758,0.06459943950176239,-0.721958577632904,0.4139149487018585,-0.8079319596290588,-0.8460419774055481,-0.571649968624115,19.5,-177.3000030517578,-31.500001907348633
698778,-0.08194559067487717,-0.6926495432853699,0.4958605170249939,-1.3186060190200806,-0.426831990480423,-0.23628199100494385,21.900001525878906,-179.70001220703125,-15.90000057220459
698798,0.4713366627693176,1.9774606227874756,-0.05622543767094612,0.09146399796009064,1.5091559886932373,2.446661949157715,21.900001525878906,-170.10000610351562,-23.700000762939453
698820,2.7311208248138428,8.692811965942383,-2.3447203636169434,2.896359920501709,6.943641662597656,12.583921432495117,21.900001525878906,-172.5,-20.700000762939453
698841,7.53420877456665,16.86823081970215,-3.499136447906494,-2.080806016921997,8.170783996582031,13.681489944458008,2.700000047683716,-167.70001220703125,-26.100000381469727
698903,5.8318939208984375,15.645626068115234,-1.9116649627685547,2.2103798389434814,5.0533857345581055,7.865903854370117,5.100000381469727,-177.3000030517578,-29.100000381469727
699078,2.444610357284546,7.455254077911377,-1.8560376167297363,-0.6478700041770935,1.2195199728012085,-1.1661659479141235,26.700000762939453,-184.5,-21.30000114440918
699177,3.67499041557312,9.453649520874023,-1.9966012239456177,0.10670799762010574,1.4939119815826416,1.6920839548110962,33.900001525878906,-167.70001220703125,-26.700000762939453
699197,3.8233299255371094,9.755711555480957,-2.181427478790283,-0.12195199728012085,0.9603719711303711,0.6478700041770935,38.70000076293945,-172.5,-22.5
699239,3.407022476196289,9.790404319763184,-2.567229747772217,0.114329993724823,1.3567159175872803,0.1600620001554489,26.700000762939453,-177.3000030517578,-22.5
699280,2.741887331008911,8.987696647644043,-2.271148920059204,0.030487999320030212,-0.3048799932003021,-1.7301939725875854,41.10000228881836,-184.5,-18.900001525878906
699300,2.735905885696411,8.637184143066406,-2.1898014545440674,-0.015243999660015106,-0.6554920077323914,-2.225623846054077,41.10000228881836,-179.70001220703125,-17.700000762939453
699360,3.2263832092285156,8.507986068725586,-1.739399790763855,-0.3887220025062561,-0.16768398880958557,-0.04573199898004532,33.900001525878906,-174.90000915527344,-27.30000114440918
699537,2.819645881652832,8.78791618347168,-1.7035112380981445,-0.510673999786377,-0.7926880121231079,-1.14329993724823,41.10000228881836,-179.70001220703125,-20.700000762939453
699558,2.801701784133911,8.93446159362793,-1.6789872646331787,-0.5335400104522705,-0.6097599864006042,-1.067080020904541,48.30000305175781,-182.10000610351562,-20.700000762939453
699599,2.5953423976898193,8.851319313049316,-1.4475059509277344,-0.6097599864006042,-0.3048799932003021,-1.0289700031280518,33.900001525878906,-170.10000610351562,-23.700000762939453
699619,2.572613000869751,8.902161598205566,-1.446907877922058,-0.5335400104522705,-0.3201240003108978,-0.9756159782409668,26.700000762939453,-177.3000030517578,-23.100000381469727
699660,2.6336236000061035,9.139026641845703,-1.4917685985565186,-0.05335399881005287,-0.39634400606155396,-0.7926880121231079,41.10000228881836,-177.3000030517578,-22.5
699740,2.735905885696411,9.091175079345703,-1.5192831754684448,0.6402480006217957,-0.9908599853515625,-1.0289700031280518,41.10000228881836,-174.90000915527344,-20.100000381469727
699800,2.9291062355041504,8.97513484954834,-1.4732261896133423,0.6173819899559021,-0.9070180058479309,-1.0061039924621582,48.30000305175781,-172.5,-24.30000114440918
699914,2.900395154953003,8.018704414367676,-1.6771929264068604,0.6631140112876892,2.4009299278259277,-0.3125019967556,50.70000076293945,-177.3000030517578,-26.100000381469727
699960,3.389078140258789,9.08698844909668,-4.357471466064453,0.7164679765701294,1.0365920066833496,-4.862835884094238,55.500003814697266,-170.10000610351562,-14.700000762939453
699981,2.8716843128204346,8.152688980102539,-3.9064717292785645,2.6677000522613525,-0.16768398880958557,-3.3765459060668945,45.900001525878906,-165.3000030517578,-17.100000381469727
700021,3.714467763900757,10.042222023010254,-3.708486318588257,1.1509219408035278,-0.3734779953956604,-2.75154185295105,57.900001525878906,-174.90000915527344,-26.700000762939453
700063,2.6037163734436035,7.828495025634766,-3.3131139278411865,0.02286599949002266,-0.41158798336982727,-2.690565824508667,65.10000610351562,-170.10000610351562,-23.100000381469727
700213,2.778374195098877,8.158670425415039,-2.798711061477661,-0.6478700041770935,-1.4024479389190674,-0.2972579896450043,77.10000610351562,-167.70001220703125,-15.300000190734863
700377,2.6671195030212402,11.505878448486328,-3.046342134475708,-1.3490939140319824,-1.6920839548110962,0.9527499675750732,74.70000457763672,-174.90000915527344,-20.100000381469727
700398,0.814670741558075,8.288467407226562,-2.2274844646453857,-1.021347999572754,-3.0259339809417725,-3.2622158527374268,69.9000015258789,-172.5,-23.700000762939453
700439,-0.0017944289138540626,11.120076179504395,-2.2280826568603516,-2.644834041595459,-1.067080020904541,0.9375059604644775,74.70000457763672,-177.3000030517578,-20.100000381469727
700459,-0.6412092447280884,9.540380477905273,-2.0665838718414307,-1.7835479974746704,-0.6326259970664978,-1.3643379211425781,81.9000015258789,-160.5,-17.700000762939453
700480,-0.6968365907669067,9.92259407043457,-2.173053503036499,-1.4634239673614502,-0.8689079880714417,0.12195199728012085,55.500003814697266,-174.90000915527344,-23.700000762939453
700501,-0.8822608590126038,10.05777359008789,-2.1150336265563965,-1.7149499654769897,-0.7850660085678101,-0.07621999830007553,81.9000015258789,-170.10000610351562,-23.700000762939453
700521,-0.9139624834060669,9.640868186950684,-2.1838200092315674,-1.021347999572754,-0.9222619533538818,-0.6402480006217957,72.30000305175781,-165.3000030517578,-14.100000381469727
700541,-0.805698573589325,9.770665168762207,-2.074958086013794,-0.2896359860897064,-0.9222619533538818,-0.5640279650688171,77.10000610351562,-172.5,-20.100000381469727
700561,-0.821250319480896,9.40041446685791,-2.113239049911499,-0.06859800219535828,-1.0899460315704346,-1.1051899194717407,72.30000305175781,-172.5,-16.5
700581,-0.3666616380214691,9.798179626464844,-1.9864327907562256,0.3201240003108978,-1.2118979692459106,-0.6783579587936401,72.30000305175781,-172.5,-15.90000057220459
700621,-0.1543208807706833,8.90455436706543,-1.818354606628418,0.007621999830007553,-0.5564059615135193,-0.7240899801254272,72.30000305175781,-177.3000030517578,-18.900001525878906
700641,0.011962858960032463,9.144410133361816,-1.8859448432922363,0.228659987449646,-0.2134159952402115,0.038109999150037766,65.10000610351562,-160.5,-23.100000381469727
700681,0.2147333323955536,8.766383171081543,-2.006171464920044,0.25152599811553955,-0.08384199440479279,0.1448179930448532,77.10000610351562,-165.3000030517578,-22.5
700741,0.6041244268417358,9.721019744873047,-2.0067696571350098,0.20579399168491364,0.2972579896450043,-0.114329993724823,77.10000610351562,-172.5,-23.700000762939453
700794,0.6208723783493042,9.63249397277832,-1.9983956813812256,0.08384199440479279,-0.1448179930448532,-0.8231759667396545,84.30000305175781,-170.10000610351562,-18.900001525878906
700816,0.4940660893917084,9.350171089172363,-2.0647895336151123,-0.3277460038661957,0.5182960033416748,-1.3338500261306763,81.9000015258789,-179.70001220703125,-22.5
700858,0.4605700969696045,8.58993148803711,-1.9954049587249756,-0.18292799592018127,-0.2896359860897064,-0.7317119836807251,86.70000457763672,-162.90000915527344,-21.30000114440918
700878,0.8074930310249329,9.12168025970459,-1.8548413515090942,-0.1600620001554489,0.1295740008354187,-0.09908600151538849,79.5,-170.10000610351562,-18.30000114440918
700898,0.7040143013000488,9.189868927001953,-2.2819154262542725,-0.23628199100494385,0.9756159782409668,-0.4420759975910187,91.5,-170.10000610351562,-24.900001525878906
700920,0.7010235786437988,8.632997512817383,-2.5086116790771484,0.04573199898004532,1.0975680351257324,-0.7774440050125122,74.70000457763672,-182.10000610351562,-24.30000114440918
700941,0.9085791707038879,8.560622215270996,-2.6725027561187744,0.5640279650688171,0.8841519951820374,-0.6326259970664978,79.5,-162.90000915527344,-23.100000381469727
700961,1.2836148738861084,8.515761375427246,-2.7676074504852295,0.4420759975910187,0.8155539631843567,-0.38109999895095825,93.9000015258789,-172.5,-20.100000381469727
700981,1.7208573818206787,8.473891258239746,-2.953629970550537,0.7012239694595337,1.189031958580017,0.038109999150037766,86.70000457763672,-162.90000915527344,-19.5
701001,2.2286806106567383,9.171924591064453,-3.0630900859832764,0.426831990480423,1.2500079870224,0.7317119836807251,89.10000610351562,-165.3000030517578,-18.30000114440918
701021,2.6892507076263428,9.66838264465332,-3.2209999561309814,0.12195199728012085,2.278977870941162,0.6097599864006042,84.30000305175781,-165.3000030517578,-27.900001525878906
701044,3.49076247215271,10.434603691101074,-3.8651998043060303,0.23628199100494385,2.843005895614624,-0.16768398880958557,86.70000457763672,-158.10000610351562,-16.5
701064,3.0385663509368896,9.68154239654541,-3.9955949783325195,0.228659987449646,2.080806016921997,-1.4405579566955566,77.10000610351562,-170.10000610351562,-19.5
701084,2.8746750354766846,8.899768829345703,-4.136756896972656,0.8765299916267395,2.03507399559021,-1.6158639192581177,86.70000457763672,-174.90000915527344,-18.30000114440918
701106,2.8782639503479004,8.842347145080566,-4.363452911376953,1.2881180047988892,0.8307979702949524,-1.1814099550247192,86.70000457763672,-155.70001220703125,-21.900001525878906
701126,2.842973470687866,8.89259147644043,-4.017726421356201,0.7774440050125122,-0.19054999947547913,-0.9222619533538818,81.9000015258789,-165.3000030517578,-15.300000190734863
701146,3.046342134475708,9.115100860595703,-4.027894973754883,0.6936019659042358,0.18292799592018127,-1.0061039924621582,79.5,-167.70001220703125,-22.5
701169,2.792729616165161,8.557631492614746,-3.9004902839660645,-0.02286599949002266,0.41158798336982727,-1.7911700010299683,89.10000610351562,-158.10000610351562,-15.90000057220459
701189,2.7729907035827637,8.144912719726562,-3.860414743423462,-0.04573199898004532,0.44969800114631653,-1.6768399477005005,91.5,-165.3000030517578,-18.30000114440918
701209,2.7562427520751953,8.107828140258789,-3.4147982597351074,-0.6631140112876892,-0.15243999660015106,-1.1280559301376343,93.9000015258789,-172.5,-19.5
701229,2.7113821506500244,8.2741117477417,-2.911760091781616,-1.2881180047988892,0.36585599184036255,-0.7850660085678101,91.5,-177.3000030517578,-20.100000381469727
701272,2.6868581771850586,8.321365356445312,-2.6270439624786377,-1.6234859228134155,-0.09908600151538849,-0.3048799932003021,105.9000015258789,-162.90000915527344,-13.500000953674316
701292,2.7502613067626953,8.217885971069336,-2.41111421585083,-1.4024479389190674,-0.08384199440479279,-0.23628199100494385,91.5,-158.10000610351562,-20.100000381469727
701312,2.9039840698242188,8.418862342834473,-2.3411316871643066,-1.0747020244598389,-0.6478700041770935,-0.030487999320030212,81.9000015258789,-162.90000915527344,-23.100000381469727
701336,3.43393874168396,9.41357421875,-2.2819154262542725,-0.7545779943466187,-0.9527499675750732,0.49542999267578125,77.10000610351562,-167.70001220703125,-20.100000381469727
701357,3.6911401748657227,9.798179626464844,-2.0318915843963623,-1.4558019638061523,-0.6936019659042358,-0.6021379828453064,93.9000015258789,-165.3000030517578,-15.300000190734863
701377,2.906376600265503,7.7423624992370605,-2.2256898880004883,-0.7774440050125122,0.5564059615135193,-2.28659987449646,96.30000305175781,-160.5,-21.900001525878906
701399,2.841179132461548,8.60189437866211,-2.3297669887542725,0.06859800219535828,-0.1295740008354187,-0.4725639820098877,101.10000610351562,-170.10000610351562,-23.100000381469727
701461,-0.49645867943763733,11.102729797363281,-2.802299737930298,-0.967993974685669,-0.19054999947547913,-0.967993974685669,96.30000305175781,-158.10000610351562,-24.900001525878906
701482,-1.035983681678772,9.18328857421875,-2.522368907928467,-0.5868939757347107,-1.2804960012435913,-1.8369019031524658,89.10000610351562,-165.3000030517578,-17.100000381469727
701503,-1.4391319751739502,8.56002426147461,-2.3028504848480225,0.10670799762010574,-2.942091941833496,0.49542999267578125,101.10000610351562,-162.90000915527344,-20.700000762939453
701523,-0.47612181305885315,9.64864444732666,-1.8327100276947021,-0.33536797761917114,-3.5823400020599365,2.7134318351745605,98.70000457763672,-162.90000915527344,-21.30000114440918
701543,-0.1573116034269333,9.58882999420166,-1.4540855884552002,-0.4039659798145294,-2.484771966934204,1.8597679138183594,93.9000015258789,-165.3000030517578,-16.5
701563,-0.18602246046066284,8.869263648986816,-1.8775707483291626,-0.16768398880958557,-1.0594580173492432,0.6707359552383423,89.10000610351562,-167.70001220703125,-21.30000114440918
701583,-0.07596416026353836,9.142017364501953,-2.124603748321533,0.5411620140075684,-1.196653962135315,0.26677000522613525,84.30000305175781,-155.70001220703125,-21.30000114440918
701647,-0.5742172598838806,9.197644233703613,-2.974565029144287,1.7683039903640747,0.3887220025062561,-2.042695999145508,96.30000305175781,-167.70001220703125,-17.100000381469727
701667,-0.20516303181648254,9.15457820892334,-2.8860397338867188,1.5472660064697266,-0.967993974685669,-2.14178204536438,93.9000015258789,-170.10000610351562,-21.30000114440918
701687,-0.24763119220733643,8.790308952331543,-2.6491751670837402,1.1737879514694214,-0.038109999150037766,-1.7454379796981812,96.30000305175781,-179.70001220703125,-18.30000114440918
701707,-0.16448931396007538,8.794496536254883,-3.2987585067749023,1.8902559280395508,1.92836594581604,-1.0442140102386475,103.50000762939453,-162.90000915527344,-15.90000057220459
701727,0.14774131774902344,8.977527618408203,-3.7724876403808594,1.3262280225753784,1.4405579566955566,-0.5335400104522705,98.70000457763672,-160.5,-27.30000114440918
701747,0.45817750692367554,8.897974967956543,-3.4853789806365967,0.3048799932003021,0.33536797761917114,-0.26677000522613525,91.5,-160.5,-24.30000114440918
701770,1.3063442707061768,9.703673362731934,-3.329861879348755,-0.5182960033416748,0.48018598556518555,-0.09146399796009064,89.10000610351562,-158.10000610351562,-24.900001525878906
701790,1.2531095743179321,9.00025749206543,-3.4052278995513916,-0.7774440050125122,1.6920839548110962,-1.3033620119094849,103.50000762939453,-158.10000610351562,-20.100000381469727
701810,1.5473958253860474,8.57497787475586,-4.035072326660156,0.030487999320030212,2.294221878051758,-1.2652519941329956,103.50000762939453,-158.10000610351562,-13.500000953674316
701830,1.745381236076355,8.485854148864746,-4.30543327331543,-0.19817200303077698,0.8612859845161438,-0.8689079880714417,117.9000015258789,-177.3000030517578,-17.700000762939453
701850,2.0994818210601807,9.21439266204834,-4.060792446136475,-0.6097599864006042,0.08384199440479279,-0.25152599811553955,98.70000457763672,-162.90000915527344,-14.100000381469727
701872,2.715569019317627,9.5032958984375,-4.264759540557861,-0.6250039935112,1.7149499654769897,-1.0365920066833496,96.30000305175781,-162.90000915527344,-14.100000381469727
701953,4.300049781799316,8.128165245056152,-3.374722719192505,-1.6158639192581177,2.995445966720581,-1.6158639192581177,105.9000015258789,-172.5,-18.30000114440918
701998,4.18580436706543,6.340315341949463,-3.8891255855560303,0.12195199728012085,3.7881338596343994,-4.672286033630371,110.70000457763672,-160.5,-22.5
702018,3.931593656539917,5.900082111358643,-2.4344418048858643,-0.9908599853515625,0.4878079891204834,-5.548815727233887,113.10000610351562,-155.70001220703125,-14.100000381469727
702060,3.46683669090271,3.353189468383789,0.11603973805904388,-1.425313949584961,4.32167387008667,-8.193650245666504,127.50000762939453,-150.90000915527344,-15.90000057220459
702081,3.1761391162872314,2.9877240657806396,0.3636709153652191,-1.7225719690322876,6.737847805023193,-8.155539512634277,144.3000030517578,-158.10000610351562,-13.500000953674316
702102,2.19697904586792,2.586968421936035,0.28591233491897583,-1.2271419763565063,8.307979583740234,-9.115911483764648,141.90000915527344,-148.5,-17.700000762939453
702126,0.5478989481925964,1.6759966611862183,0.2488274723291397,-0.3048799932003021,9.001582145690918,-9.893355369567871,144.3000030517578,-155.70001220703125,-14.700000762939453
702146,-0.8140726089477539,2.372833251953125,0.3086417615413666,1.189031958580017,8.170783996582031,-9.016825675964355,163.5,-146.10000610351562,-20.700000762939453
702166,-1.8961132764816284,5.11113166809082,0.7536601424217224,2.2484898567199707,5.701255798339844,-8.292736053466797,158.70001220703125,-134.10000610351562,-14.100000381469727
702188,-3.1940834522247314,7.315886497497559,0.8571388721466064,2.5152599811553955,7.294253826141357,-9.14639949798584,170.70001220703125,-146.10000610351562,-16.5
702208,-5.193077087402344,9.525426864624023,-1.3332606554031372,4.8552141189575195,7.827793598175049,-9.222620010375977,185.10000610351562,-131.70001220703125,-14.100000381469727
702228,-5.5041117668151855,9.302319526672363,-1.3727381229400635,3.399411916732788,2.1646480560302734,-9.900978088378906,185.10000610351562,-122.10000610351562,-10.5
702270,-6.175826072692871,10.624215126037598,-0.8978126049041748,2.1112940311431885,0.060975998640060425,-7.080837726593018,194.70001220703125,-126.9000015258789,-7.500000476837158
702300,-7.862589359283447,9.359143257141113,-2.381805419921875,3.109776020050049,-2.1722700595855713,-4.878079891204834,206.70001220703125,-124.50000762939453,-9.90000057220459
702320,-7.744156837463379,9.993772506713867,-2.5744073390960693,1.9131219387054443,-5.586925983428955,-2.0503180027008057,204.3000030517578,-105.30000305175781,-13.500000953674316
702362,-6.42465353012085,13.25185775756836,-2.515191078186035,-0.1448179930448532,-8.765299797058105,1.577754020690918,213.90000915527344,-110.10000610351562,-20.100000381469727
702382,-6.648359298706055,12.431205749511719,-1.2848111391067505,-0.25152599811553955,-12.675385475158691,-1.4481799602508545,211.50001525878906,-122.10000610351562,-12.300000190734863
702402,-8.607276916503906,10.369406700134277,-1.536629319190979,0.19817200303077698,-8.346089363098145,-2.599102020263672,216.3000030517578,-117.30000305175781,-16.5
702425,-5.2564802169799805,12.048992156982422,-2.8148608207702637,2.530503988265991,-12.522945404052734,4.093013763427734,209.10000610351562,-105.30000305175781,-18.900001525878906
702445,-7.104742050170898,15.113876342773438,-1.4433189630508423,-1.8673899173736572,-12.240931510925293,3.5213639736175537,213.90000915527344,-105.30000305175781,-18.900001525878906
702487,-7.151397228240967,10.710348129272461,-6.583759784698486,4.961921691894531,-6.966507911682129,3.4375219345092773,204.3000030517578,-129.3000030517578,-19.5
702509,-7.383476734161377,12.377970695495605,-4.815051078796387,-2.378063917160034,-14.733325958251953,7.385717868804932,221.10000610351562,-117.30000305175781,-14.700000762939453
702529,-6.607087135314941,14.14309024810791,-4.580578804016113,0.457319974899292,-8.285114288330078,8.094563484191895,209.10000610351562,-126.9000015258789,-18.900001525878906
702549,-5.706284046173096,12.980300903320312,-6.395942687988281,2.797273874282837,-5.175337791442871,4.5427117347717285,209.10000610351562,-122.10000610351562,-18.900001525878906
702569,-6.96358060836792,10.661898612976074,-7.418169021606445,3.109776020050049,-4.78661584854126,4.649419784545898,201.90000915527344,-131.70001220703125,-23.700000762939453
702589,-5.805575847625732,13.66696834564209,-8.552248001098633,2.5609920024871826,-5.708878040313721,10.74701976776123,187.5,-134.10000610351562,-25.500001907348633
702609,-2.560051918029785,15.726973533630371,-8.58275318145752,-0.02286599949002266,-6.966507911682129,9.53512191772461,192.3000030517578,-124.50000762939453,-22.5
702632,-3.975856304168701,13.657398223876953,-8.30880355834961,0.7698220014572144,-7.881147861480713,3.711913824081421,177.90000915527344,-131.70001220703125,-23.700000762939453
702653,-3.177335500717163,12.160246849060059,-8.84593677520752,1.5472660064697266,-6.654006004333496,7.538157939910889,175.5,-136.5,-17.700000762939453
702674,-2.146735191345215,13.683716773986816,-8.024087905883789,-1.2271419763565063,-7.0884599685668945,8.727190017700195,165.90000915527344,-143.70001220703125,-27.30000114440918
702736,0.13278773427009583,12.356437683105469,-8.51815414428711,-3.452765941619873,-5.076251983642578,10.061039924621582,165.90000915527344,-155.70001220703125,-24.30000114440918
702897,2.27473783493042,6.77038049697876,-3.994398832321167,-1.6387299299240112,5.952781677246094,5.548815727233887,108.30000305175781,-167.70001220703125,-26.100000381469727
702919,2.271148920059204,6.124983787536621,-4.0075578689575195,-1.4558019638061523,5.282045841217041,3.5366079807281494,103.50000762939453,-172.5,-26.700000762939453
702959,2.358477830886841,4.850341320037842,-2.127594470977783,-1.753059983253479,4.64179801940918,1.7683039903640747,93.9000015258789,-170.10000610351562,-25.500001907348633
703001,1.6927446126937866,4.402332305908203,-2.3387389183044434,-0.5182960033416748,8.330845832824707,1.1585439443588257,103.50000762939453,-167.70001220703125,-23.100000381469727
703076,1.6084064245224,6.233846187591553,-0.9079810380935669,-1.4024479389190674,5.686011791229248,0.030487999320030212,89.10000610351562,-186.90000915527344,-26.700000762939453
703139,1.6616411209106445,7.324260711669922,-0.2548089027404785,-0.8079319596290588,3.048799991607666,-0.2439039945602417,101.10000610351562,-174.90000915527344,-23.100000381469727
703334,1.2261930704116821,9.29514217376709,-1.7872512340545654,1.806414008140564,2.4237959384918213,-0.9375059604644775,98.70000457763672,-167.70001220703125,-13.500000953674316
703377,1.5402181148529053,10.27310562133789,-2.4039366245269775,0.8917739987373352,-0.48018598556518555,-0.39634400606155396,110.70000457763672,-167.70001220703125,-20.100000381469727
703397,1.3452235460281372,9.816123962402344,-2.2992615699768066,0.3734779953956604,-0.8155539631843567,-1.577754020690918,101.10000610351562,-167.70001220703125,-23.700000762939453
703437,0.7644267082214355,9.19644832611084,-2.2555971145629883,-0.5868939757347107,-0.6326259970664978,-1.92836594581604,108.30000305175781,-160.5,-19.5
703458,0.7237529754638672,9.046314239501953,-2.4374325275421143,-0.13719600439071655,-0.6936019659042358,-1.5396440029144287,103.50000762939453,-179.70001220703125,-21.30000114440918
703478,0.7428935766220093,8.97214412689209,-2.1293890476226807,-0.26677000522613525,-1.577754020690918,-0.8460419774055481,115.50000762939453,-174.90000915527344,-23.100000381469727
703500,0.8924292922019958,9.60677433013916,-1.9690866470336914,-0.25152599811553955,-0.9984819889068604,0.038109999150037766,110.70000457763672,-165.3000030517578,-20.700000762939453
703560,0.6597517132759094,9.066651344299316,-2.169464588165283,0.3582339882850647,-0.9222619533538818,0.5182960033416748,105.9000015258789,-160.5,-27.30000114440918
703580,0.7327251434326172,9.507482528686523,-2.4045348167419434,0.6173819899559021,-0.739333987236023,0.7850660085678101,101.10000610351562,-162.90000915527344,-16.5
703602,0.6788922548294067,9.344189643859863,-2.46494722366333,0.3201240003108978,-1.0975680351257324,0.342989981174469,98.70000457763672,-174.90000915527344,-24.30000114440918
703622,0.7237529754638672,9.143811225891113,-2.372235059738159,0.22103799879550934,-1.1204339265823364,0.33536797761917114,105.9000015258789,-162.90000915527344,-22.5
703642,0.9953098893165588,9.421948432922363,-2.503826379776001,0.02286599949002266,-0.7240899801254272,0.3887220025062561,105.9000015258789,-165.3000030517578,-17.700000762939453
703682,0.9534398913383484,9.47039794921875,-2.7705981731414795,-0.3582339882850647,-0.19817200303077698,-0.8689079880714417,98.70000457763672,-155.70001220703125,-20.100000381469727
703702,1.1675751209259033,8.847132682800293,-2.7951221466064453,-0.49542999267578125,-0.7850660085678101,-0.8384199738502502,108.30000305175781,-170.10000610351562,-21.900001525878906
703724,1.3183071613311768,8.845337867736816,-2.5355279445648193,-1.1356779336929321,-0.9984819889068604,-0.19817200303077698,110.70000457763672,-165.3000030517578,-28.500001907348633
703744,1.2333707809448242,8.528322219848633,-2.6306328773498535,-0.8155539631843567,-0.20579399168491364,-0.3277460038661957,103.50000762939453,-165.3000030517578,-24.900001525878906
703764,1.520479440689087,8.496023178100586,-2.920732021331787,-0.09146399796009064,-0.3734779953956604,-0.060975998640060425,113.10000610351562,-155.70001220703125,-25.500001907348633
703784,2.092304229736328,9.459630966186523,-2.726933717727661,-0.25152599811553955,-0.9375059604644775,0.2972579896450043,117.9000015258789,-170.10000610351562,-20.100000381469727
703806,2.0641913414001465,9.107922554016113,-2.617473602294922,-0.8689079880714417,-0.2134159952402115,-0.8689079880714417,115.50000762939453,-165.3000030517578,-26.700000762939453
703826,2.0013864040374756,8.595314025878906,-2.640801191329956,-0.8689079880714417,0.09146399796009064,-1.3109840154647827,115.50000762939453,-160.5,-21.900001525878906
703846,2.068378448486328,8.75501823425293,-2.729924440383911,-0.853663980960846,0.3582339882850647,-1.7149499654769897,115.50000762939453,-155.70001220703125,-23.100000381469727
703868,2.0558173656463623,8.614455223083496,-3.1940834522247314,-0.38109999895095825,0.9984819889068604,-2.637212038040161,105.9000015258789,-172.5,-21.900001525878906
703888,2.2813172340393066,8.137735366821289,-3.1641762256622314,-0.4344539940357208,0.38109999895095825,-3.0259339809417725,110.70000457763672,-165.3000030517578,-26.700000762939453
703908,2.42905855178833,7.417571067810059,-3.025407075881958,-0.1448179930448532,1.4100699424743652,-3.246971845626831,115.50000762939453,-158.10000610351562,-24.900001525878906
703928,2.718559741973877,7.550358772277832,-3.4112093448638916,0.7012239694595337,2.14178204536438,-2.75154185295105,113.10000610351562,-160.5,-21.30000114440918
703988,3.020023822784424,6.197957515716553,-2.810673713684082,0.571649968624115,4.474113941192627,-4.824726104736328,134.70001220703125,-165.3000030517578,-21.900001525878906
704012,3.0152387619018555,5.3880720138549805,-2.3830015659332275,0.7698220014572144,5.282045841217041,-5.167716026306152,122.70000457763672,-150.90000915527344,-11.100000381469727
704032,3.0780436992645264,5.620749473571777,-2.104865074157715,0.9908599853515625,5.891805648803711,-4.977165699005127,122.70000457763672,-155.70001220703125,-17.100000381469727
704052,2.6031181812286377,5.051915645599365,-1.6999223232269287,0.41158798336982727,6.311016082763672,-6.318637847900391,137.10000610351562,-146.10000610351562,-18.30000114440918
704096,0.43784064054489136,3.1677651405334473,-0.715977132320404,0.3201240003108978,7.065593719482422,-9.413169860839844,163.5,-146.10000610351562,-9.90000057220459
704116,-0.8942237496376038,2.8890304565429688,-1.2447354793548584,1.8521459102630615,7.256144046783447,-10.190613746643066,165.90000915527344,-153.3000030517578,-17.700000762939453
704136,-1.0569186210632324,3.890321969985962,-1.3332606554031372,2.843005895614624,4.077769756317139,-8.559505462646484,173.10000610351562,-141.3000030517578,-17.700000762939453
704156,-1.6269488334655762,4.96578311920166,-0.2739494740962982,1.6234859228134155,1.6844619512557983,-8.010722160339355,173.10000610351562,-129.3000030517578,-12.300000190734863
704176,-2.9847333431243896,5.986214637756348,-0.9540380239486694,2.637212038040161,3.902463912963867,-8.21651554107666,185.10000610351562,-131.70001220703125,-12.90000057220459
704219,-3.3376376628875732,8.844141960144043,-1.512703537940979,1.2118979692459106,-1.4862899780273438,-5.922293663024902,199.50001525878906,-129.3000030517578,-11.100000381469727
704239,-3.9088642597198486,8.929078102111816,0.10168430209159851,-0.4878079891204834,-2.8734939098358154,-7.690598011016846,194.70001220703125,-126.9000015258789,-6.300000190734863
704259,-5.577085018157959,7.5013108253479,-0.4827013909816742,0.8841519951820374,-0.36585599184036255,-8.68145751953125,199.50001525878906,-110.10000610351562,-11.100000381469727
704281,-6.093282222747803,8.851319313049316,-1.83450448513031,1.7378159761428833,-0.7850660085678101,-5.061007976531982,221.10000610351562,-110.10000610351562,-14.100000381469727
704301,-6.7231268882751465,11.164338111877441,-1.5814900398254395,0.5945159792900085,-5.884183883666992,-3.551851987838745,225.90000915527344,-105.30000305175781,-14.700000762939453
704322,-7.783036231994629,10.770760536193848,-0.27753832936286926,-0.5487840175628662,-6.006135940551758,-4.580821990966797,218.70001220703125,-112.50000762939453,-17.100000381469727
704342,-8.436208724975586,9.366320610046387,-1.2794277667999268,0.20579399168491364,-3.414655923843384,-5.045763969421387,223.50001525878906,-110.10000610351562,-17.100000381469727
704362,-9.04093074798584,10.801265716552734,-2.361468553543091,2.9268479347229004,-3.1173980236053467,-0.3125019967556,228.3000030517578,-114.9000015258789,-14.100000381469727
704382,-7.235137462615967,16.26410484313965,-4.036268711090088,1.242385983467102,-6.311016082763672,5.335400104522705,225.90000915527344,-102.9000015258789,-15.300000190734863
704402,-7.410991191864014,15.040903091430664,-1.4301598072052002,-2.126538038253784,-11.295804023742676,-0.23628199100494385,228.3000030517578,-112.50000762939453,-15.90000057220459
704422,-9.828086853027344,11.373688697814941,-1.3799158334732056,0.5640279650688171,-6.654006004333496,-0.5182960033416748,221.10000610351562,-119.70000457763672,-21.900001525878906
704442,-6.8337836265563965,14.234007835388184,-3.222196102142334,0.114329993724823,-5.952781677246094,5.686011791229248,230.70001220703125,-100.50000762939453,-14.700000762939453
704462,-7.860196590423584,15.347750663757324,-1.8207472562789917,-2.332331895828247,-9.375060081481934,3.7805118560791016,206.70001220703125,-114.9000015258789,-18.900001525878906
704482,-5.644077301025391,14.562987327575684,-3.1462321281433105,-0.9222619533538818,-8.803409576416016,2.850627899169922,218.70001220703125,-114.9000015258789,-17.700000762939453
704502,-7.234539031982422,13.133424758911133,-2.238250970840454,-2.439039945602417,-10.175370216369629,1.471045970916748,218.70001220703125,-119.70000457763672,-23.100000381469727
704522,-8.302224159240723,12.465299606323242,-4.707385063171387,2.5533699989318848,-1.6768399477005005,6.707359790802002,209.10000610351562,-131.70001220703125,-20.100000381469727
704543,-4.608691692352295,15.316048622131348,-5.773874282836914,-0.09908600151538849,-11.265316009521484,7.370473861694336,204.3000030517578,-114.9000015258789,-23.700000762939453
704584,-7.503703594207764,11.532196044921875,-3.947145462036133,2.957335948944092,-3.567095994949341,4.496979713439941,204.3000030517578,-119.70000457763672,-23.700000762939453
704605,-4.713964939117432,13.158547401428223,-7.375102996826172,3.8795979022979736,-3.0640439987182617,7.050349712371826,197.10000610351562,-136.5,-29.100000381469727
704625,-4.773180961608887,12.048394203186035,-6.114815711975098,0.4878079891204834,-11.783611297607422,5.0533857345581055,194.70001220703125,-136.5,-22.5
704645,-4.406519412994385,12.057964324951172,-5.229564189910889,2.3628199100494385,-9.763781547546387,6.608273983001709,182.70001220703125,-143.70001220703125,-32.10000228881836
704665,-3.579287528991699,12.068730354309082,-5.721237659454346,2.75154185295105,-5.6174139976501465,6.913153648376465,175.5,-150.90000915527344,-32.10000228881836
704687,-3.789235830307007,11.674554824829102,-6.2703328132629395,2.6143460273742676,-2.698187828063965,7.149435997009277,177.90000915527344,-138.90000915527344,-24.900001525878906
704707,-3.407022476196289,11.613543510437012,-7.3613457679748535,3.3308138847351074,-0.19817200303077698,7.827793598175049,170.70001220703125,-141.3000030517578,-32.70000076293945
704767,-0.7273418307304382,11.040522575378418,-7.121490001678467,0.038109999150037766,-0.967993974685669,7.0351057052612305,139.5,-143.70001220703125,-23.700000762939453
704819,0.7500712871551514,9.206018447875977,-7.463029861450195,-0.5259180068969727,1.5015339851379395,7.774439811706543,139.5,-155.70001220703125,-25.500001907348633
704839,0.8960181474685669,9.2760009765625,-6.520954608917236,-0.6936019659042358,0.6936019659042358,6.067111968994141,122.70000457763672,-172.5,-35.70000076293945
704880,2.098883628845215,7.759110450744629,-5.547177791595459,-0.23628199100494385,0.7240899801254272,6.158576011657715,120.30000305175781,-158.10000610351562,-22.5
704901,2.226288080215454,7.6891279220581055,-3.8257224559783936,-0.7164679765701294,3.8948419094085693,3.1173980236053467,120.30000305175781,-167.70001220703125,-30.30000114440918
704921,2.006171464920044,6.77636194229126,-3.618764877319336,0.2972579896450043,5.754610061645508,0.7012239694595337,127.50000762939453,-162.90000915527344,-29.100000381469727
704941,1.4104211330413818,5.891109943389893,-3.1426432132720947,0,6.387235641479492,-0.6478700041770935,117.9000015258789,-153.3000030517578,-26.100000381469727
704961,1.3769251108169556,5.385679244995117,-2.9524338245391846,0.48018598556518555,6.097599983215332,-1.0975680351257324,113.10000610351562,-165.3000030517578,-29.700000762939453
704981,1.0778536796569824,4.865294933319092,-1.8781689405441284,0.19054999947547913,3.96343994140625,-1.4100699424743652,105.9000015258789,-160.5,-27.900001525878906
705001,1.521675705909729,5.704489707946777,-1.1831268072128296,0.457319974899292,4.8018598556518555,-0.9603719711303711,110.70000457763672,-165.3000030517578,-24.30000114440918
705021,0.8810645937919617,4.618860244750977,-1.1621917486190796,0.17530599236488342,6.974129676818848,-3.506119966506958,117.9000015258789,-174.90000915527344,-23.100000381469727
705043,1.0856294631958008,4.108046054840088,-1.5037314891815186,1.5396440029144287,6.5244317054748535,-3.208861827850342,105.9000015258789,-158.10000610351562,-22.5
705063,1.4373375177383423,4.491455554962158,-0.5855819582939148,0.9070180058479309,3.506119966506958,-2.789651870727539,113.10000610351562,-162.90000915527344,-19.5
705085,1.9003002643585205,4.954418182373047,0.34393221139907837,0.6707359552383423,4.832347869873047,-2.4619059562683105,113.10000610351562,-158.10000610351562,-26.700000762939453
705106,1.951142430305481,5.520859718322754,-0.08493629842996597,0.35061198472976685,7.60675573348999,-2.591480016708374,122.70000457763672,-170.10000610351562,-20.100000381469727
705126,1.5808918476104736,5.241527080535889,-0.4797106683254242,-0.05335399881005287,8.041210174560547,-3.048799991607666,120.30000305175781,-146.10000610351562,-17.700000762939453
705146,1.1011812686920166,6.016720294952393,-0.8589333295822144,0.914639949798584,7.157057762145996,-2.0122079849243164,129.90000915527344,-155.70001220703125,-17.100000381469727
705206,-0.20576117932796478,7.945731163024902,-0.818857729434967,-2.0579400062561035,6.0213799476623535,-3.041177988052368,134.70001220703125,-162.90000915527344,-14.100000381469727
705255,-1.1418548822402954,9.700682640075684,-2.480498790740967,-0.7469559907913208,0.5259180068969727,0.2439039945602417,141.90000915527344,-162.90000915527344,-14.100000381469727
705300,-0.6507795453071594,9.587035179138184,-2.18501615524292,-0.9603719711303711,-0.7317119836807251,-0.3048799932003021,125.10000610351562,-148.5,-21.900001525878906
705340,-0.28770676255226135,9.835265159606934,-2.372833251953125,-0.9375059604644775,-1.425313949584961,-0.114329993724823,134.70001220703125,-158.10000610351562,-17.700000762939453
705481,0.3666616380214691,9.2042236328125,-2.5229671001434326,0.08384199440479279,-1.4024479389190674,0.2743920087814331,120.30000305175781,-162.90000915527344,-24.30000114440918
705501,0.46415895223617554,9.170129776000977,-2.44102144241333,0.19054999947547913,-1.600619912147522,0.12195199728012085,134.70001220703125,-150.90000915527344,-18.30000114440918
705541,0.36426907777786255,8.79688835144043,-2.5618462562561035,0.09146399796009064,-0.571649968624115,-0.015243999660015106,129.90000915527344,-162.90000915527344,-20.100000381469727
705584,0.352904349565506,9.386059761047363,-2.8363940715789795,-0.060975998640060425,-0.8155539631843567,-0.038109999150037766,129.90000915527344,-158.10000610351562,-17.700000762939453
705604,0.36845606565475464,9.426733016967773,-2.6372122764587402,-0.18292799592018127,-0.9756159782409668,-0.23628199100494385,137.10000610351562,-153.3000030517578,-17.700000762939453
705624,0.25241634249687195,9.01401424407959,-2.5092098712921143,-0.5030519962310791,-0.3887220025062561,-0.44969800114631653,129.90000915527344,-153.3000030517578,-21.30000114440918
705666,0.11843230575323105,9.017603874206543,-2.842973470687866,-0.02286599949002266,0.33536797761917114,-0.426831990480423,105.9000015258789,-155.70001220703125,-16.5
705686,0.06818830221891403,9.089380264282227,-2.9907147884368896,0.36585599184036255,-0.04573199898004532,-0.26677000522613525,129.90000915527344,-162.90000915527344,-20.700000762939453
705706,0.04545886442065239,9.004444122314453,-2.8776657581329346,0.2439039945602417,-0.426831990480423,-0.19817200303077698,134.70001220703125,-143.70001220703125,-20.700000762939453
705730,0.39955949783325195,9.497314453125,-2.9673871994018555,0.17530599236488342,-0.2134159952402115,-0.13719600439071655,149.10000610351562,-153.3000030517578,-17.700000762939453
705750,0.29667890071868896,9.211999893188477,-3.0266034603118896,-0.08384199440479279,-0.33536797761917114,-0.5640279650688171,127.50000762939453,-158.10000610351562,-26.100000381469727
705770,0.1943964660167694,8.827393531799316,-2.8178515434265137,-0.17530599236488342,-0.5182960033416748,-0.7164679765701294,122.70000457763672,-162.90000915527344,-18.900001525878906
705793,0.35529693961143494,8.87763786315918,-2.820244073867798,-0.25152599811553955,-0.2896359860897064,-0.5335400104522705,132.3000030517578,-155.70001220703125,-23.100000381469727
705833,0.32479164004325867,8.96137809753418,-2.8034961223602295,-0.342989981174469,-0.2743920087814331,-0.8993960022926331,129.90000915527344,-158.10000610351562,-19.5
705893,0.7488750219345093,8.74724292755127,-2.6402029991149902,-0.1295740008354187,-0.114329993724823,-0.44969800114631653,146.70001220703125,-162.90000915527344,-20.700000762939453
705913,0.7482768297195435,8.677260398864746,-2.7353076934814453,-0.342989981174469,0.19817200303077698,-0.8231759667396545,132.3000030517578,-160.5,-24.30000114440918
705933,1.007272720336914,8.345291137695312,-2.7670094966888428,-0.2591480016708374,0.2972579896450043,-1.021347999572754,137.10000610351562,-155.70001220703125,-16.5
705953,1.446907877922058,8.532509803771973,-2.7024099826812744,-0.038109999150037766,0.46494197845458984,-0.8765299916267395,134.70001220703125,-153.3000030517578,-26.100000381469727
706037,1.8847484588623047,5.353977680206299,-2.9817426204681396,0.33536797761917114,2.538125991821289,-3.6814258098602295,141.90000915527344,-158.10000610351562,-21.900001525878906
706077,2.193390369415283,4.867687702178955,-2.307037353515625,0.4878079891204834,2.0655620098114014,-3.7805118560791016,149.10000610351562,-153.3000030517578,-19.5
706097,1.8632153272628784,4.231263160705566,-2.092902183532715,0.7088459730148315,4.481735706329346,-4.664663791656494,156.3000030517578,-141.3000030517578,-17.100000381469727
706140,0.5921615362167358,4.681066989898682,-1.6221637725830078,0.9451279640197754,3.307947874069214,-5.015275955200195,156.3000030517578,-146.10000610351562,-31.500001907348633
706160,0.14953574538230896,3.6941308975219727,-0.711790144443512,0.3201240003108978,3.4832539558410645,-6.150953769683838,163.5,-148.5,-22.5
706200,-1.4301598072052002,4.499231338500977,-0.13458216190338135,0.9908599853515625,7.309497833251953,-5.129605770111084,175.5,-146.10000610351562,-12.90000057220459
706220,-1.7148759365081787,7.619743347167969,-1.3260829448699951,2.2180018424987793,8.589993476867676,-3.246971845626831,168.3000030517578,-141.3000030517578,-14.100000381469727
706243,-1.9260203838348389,9.664793968200684,-1.0808444023132324,0.4725639820098877,5.083873748779297,-4.7027740478515625,175.5,-134.10000610351562,-11.100000381469727
706266,-3.907668113708496,7.8530192375183105,0.07775858789682388,-0.02286599949002266,6.036623954772949,-8.993959426879883,175.5,-131.70001220703125,-11.100000381469727
706286,-4.18879508972168,7.39484167098999,-1.9989937543869019,2.3094658851623535,6.3719916343688965,-5.983269691467285,180.3000030517578,-122.10000610351562,-15.90000057220459
706306,-3.6618313789367676,10.607467651367188,-3.123502492904663,2.3018438816070557,2.5228819847106934,-1.5091559886932373,192.3000030517578,-134.10000610351562,-11.100000381469727
706328,-5.160777568817139,11.344977378845215,-2.2765321731567383,-0.28201398253440857,-2.294221878051758,-3.7881338596343994,194.70001220703125,-117.30000305175781,-14.100000381469727
706348,-6.325960159301758,9.423742294311523,-2.593547821044922,1.478667974472046,-1.3948259353637695,-5.388753890991211,189.90000915527344,-129.3000030517578,-12.300000190734863
706368,-5.3641462326049805,9.80595588684082,-3.090604782104492,1.5625100135803223,-4.519845962524414,-3.201239824295044,194.70001220703125,-110.10000610351562,-14.700000762939453
706388,-7.101751327514648,12.441373825073242,-3.428555488586426,1.417691946029663,-4.10825777053833,0.16768398880958557,211.50001525878906,-98.10000610351562,-11.100000381469727
706408,-6.423457145690918,13.56648063659668,-4.047633647918701,1.0061039924621582,-4.839970111846924,1.2195199728012085,197.10000610351562,-112.50000762939453,-6.300000190734863
706428,-5.459848880767822,12.364811897277832,-2.357879638671875,-2.126538038253784,-10.853727340698242,-2.080806016921997,221.10000610351562,-112.50000762939453,-11.700000762939453
706448,-8.125772476196289,9.810741424560547,-1.1532196998596191,0.4420759975910187,-6.99699592590332,-2.378063917160034,216.3000030517578,-119.70000457763672,-17.100000381469727
706468,-7.059881687164307,14.010302543640137,-4.4609503746032715,4.016793727874756,0.5487840175628662,4.878079891204834,201.90000915527344,-110.10000610351562,-10.5
706528,-8.451162338256836,11.464008331298828,-5.042943477630615,2.888737916946411,-4.862835884094238,2.5686140060424805,209.10000610351562,-119.70000457763672,-19.5
706700,-4.737292289733887,11.984991073608398,-6.864288806915283,-1.3186060190200806,-7.652487754821777,6.821690082550049,185.10000610351562,-136.5,-18.30000114440918
706760,-2.1658756732940674,11.700872421264648,-6.883429527282715,-1.7835479974746704,-3.147886037826538,8.529017448425293,153.90000915527344,-146.10000610351562,-25.500001907348633
706857,1.1352753639221191,7.36493444442749,-5.688937664031982,-0.09146399796009064,-1.8673899173736572,5.678390026092529,122.70000457763672,-162.90000915527344,-26.100000381469727
706877,1.3601771593093872,6.3295488357543945,-4.888622283935547,-1.2042759656906128,0.5640279650688171,6.943641662597656,127.50000762939453,-158.10000610351562,-25.500001907348633
706939,2.2334659099578857,6.2846879959106445,-4.044044494628906,-0.05335399881005287,5.190581798553467,3.5366079807281494,105.9000015258789,-165.3000030517578,-26.700000762939453
707038,2.4966487884521484,5.263060092926025,-1.2848111391067505,-0.9375059604644775,5.061007976531982,0.8765299916267395,86.70000457763672,-177.3000030517578,-23.700000762939453
707058,2.1748478412628174,4.811461925506592,-1.1257051229476929,-0.8079319596290588,7.538157939910889,-0.4192099869251251,81.9000015258789,-167.70001220703125,-24.900001525878906
707099,1.7621291875839233,4.539905071258545,-0.2883049249649048,-0.967993974685669,6.943641662597656,-0.6554920077323914,98.70000457763672,-174.90000915527344,-24.900001525878906
707139,0.8021097183227539,5.422764301300049,-0.818857729434967,-0.739333987236023,8.971094131469727,-1.3033620119094849,98.70000457763672,-165.3000030517578,-27.900001525878906
707180,1.8680005073547363,7.792008399963379,0.7931375503540039,-1.0442140102386475,2.652456045150757,-0.9070180058479309,91.5,-165.3000030517578,-24.900001525878906
707218,1.9445627927780151,8.161661148071289,0.17286331951618195,-0.9527499675750732,4.626554012298584,-1.7835479974746704,103.50000762939453,-170.10000610351562,-26.700000762939453
707238,2.020526885986328,8.331533432006836,0.04486072435975075,-0.9070180058479309,4.123501777648926,-1.4558019638061523,89.10000610351562,-174.90000915527344,-31.500001907348633
707278,0.32419347763061523,9.557726860046387,-1.403841495513916,0.9070180058479309,4.977165699005127,-0.800309956073761,91.5,-162.90000915527344,-24.900001525878906
707298,0.43604621291160583,10.34667682647705,-2.4218809604644775,1.1814099550247192,2.8125178813934326,-1.4481799602508545,84.30000305175781,-177.3000030517578,-21.900001525878906
707358,0.6884625554084778,9.855003356933594,-2.7251393795013428,0.3277460038661957,0.2439039945602417,-1.6692179441452026,91.5,-172.5,-24.30000114440918
707393,0.8685035705566406,9.595409393310547,-2.125800132751465,-0.6097599864006042,-1.1128119230270386,-0.8765299916267395,86.70000457763672,-167.70001220703125,-21.30000114440918
707417,0.7991189956665039,9.03315544128418,-2.008563995361328,-1.14329993724823,-0.6631140112876892,-1.0365920066833496,93.9000015258789,-165.3000030517578,-23.700000762939453
707457,0.4426257908344269,8.432021141052246,-2.2855043411254883,-0.13719600439071655,-1.5625100135803223,-0.05335399881005287,117.9000015258789,-160.5,-26.100000381469727
707477,0.7799784541130066,9.216785430908203,-2.25978422164917,0.35061198472976685,-2.2027578353881836,0.39634400606155396,108.30000305175781,-174.90000915527344,-25.500001907348633
707497,0.8649147152900696,9.170129776000977,-2.3267762660980225,0.4725639820098877,-2.1494040489196777,0.04573199898004532,105.9000015258789,-155.70001220703125,-23.700000762939453
707517,0.8912330269813538,9.111512184143066,-2.486480236053467,0.4725639820098877,-1.8902559280395508,0.06859800219535828,101.10000610351562,-172.5,-27.30000114440918
707540,1.0467501878738403,9.310693740844727,-2.5648369789123535,0.4344539940357208,-1.6844619512557983,0.3125019967556,98.70000457763672,-165.3000030517578,-22.5
707560,0.8798683285713196,9.00205135345459,-2.5893609523773193,0.08384199440479279,-1.067080020904541,0.10670799762010574,91.5,-174.90000915527344,-20.100000381469727
707581,0.8691017627716064,9.301721572875977,-3.067875385284424,0.41158798336982727,-0.6250039935112,0.10670799762010574,89.10000610351562,-174.90000915527344,-21.30000114440918
707643,1.0497409105300903,8.882423400878906,-2.6216607093811035,-0.3048799932003021,-1.8445239067077637,0.114329993724823,110.70000457763672,-162.90000915527344,-28.500001907348633
707663,1.1454437971115112,8.762794494628906,-2.662334442138672,-0.3887220025062561,-1.5167779922485352,0.07621999830007553,101.10000610351562,-158.10000610351562,-20.100000381469727
707683,1.3799158334732056,8.897377014160156,-2.673699140548706,-0.16768398880958557,-1.3186060190200806,-0.06859800219535828,98.70000457763672,-162.90000915527344,-23.100000381469727
707703,1.5240682363510132,9.118091583251953,-2.620464324951172,-0.07621999830007553,-1.1356779336929321,-0.44969800114631653,93.9000015258789,-162.90000915527344,-18.30000114440918
707723,1.7017167806625366,9.025379180908203,-2.444610357284546,-0.015243999660015106,-1.021347999572754,-0.7317119836807251,98.70000457763672,-162.90000915527344,-18.900001525878906
707766,1.3380458354949951,8.720924377441406,-2.8800582885742188,0.28201398253440857,1.196653962135315,-1.3490939140319824,110.70000457763672,-155.70001220703125,-18.30000114440918
707786,1.4421226978302002,9.05109977722168,-3.2945713996887207,0.7088459730148315,0.6707359552383423,-1.3490939140319824,108.30000305175781,-160.5,-23.700000762939453
707806,1.6849687099456787,9.341796875,-3.1193156242370605,0.07621999830007553,0.23628199100494385,-1.6158639192581177,108.30000305175781,-162.90000915527344,-16.5
707826,1.6000324487686157,8.969752311706543,-3.2239906787872314,-0.16768398880958557,1.1356779336929321,-2.439039945602417,110.70000457763672,-160.5,-19.5
707846,1.5599569082260132,8.63180160522461,-3.573904275894165,0.12195199728012085,1.4634239673614502,-2.8658719062805176,117.9000015258789,-170.10000610351562,-20.700000762939453
707886,2.1269965171813965,8.701186180114746,-3.174942970275879,-0.5868939757347107,0.853663980960846,-3.452765941619873,120.30000305175781,-170.10000610351562,-13.500000953674316
707906,2.226288080215454,7.559928894042969,-3.2048499584198,-0.457319974899292,2.0503180027008057,-4.489357948303223,115.50000762939453,-158.10000610351562,-20.700000762939453
707926,2.4308531284332275,6.661518096923828,-3.171952247619629,0.3734779953956604,1.3872039318084717,-4.382649898529053,115.50000762939453,-158.10000610351562,-17.700000762939453
707949,2.43503999710083,5.959298610687256,-2.3207948207855225,0.030487999320030212,0.7240899801254272,-4.123501777648926,132.3000030517578,-146.10000610351562,-23.100000381469727
707989,2.8160572052001953,6.316987991333008,-2.42307710647583,1.4481799602508545,3.864353895187378,-4.367405891418457,139.5,-148.5,-18.30000114440918
708009,3.3992464542388916,7.156182289123535,-2.5893609523773193,1.935987949371338,4.458869934082031,-4.839970111846924,137.10000610351562,-150.90000915527344,-19.5
708032,3.6684107780456543,7.559330940246582,-2.369842529296875,0.9222619533538818,5.121984004974365,-6.265284061431885,151.5,-150.90000915527344,-13.500000953674316
708052,3.0983805656433105,6.288875102996826,-2.351898193359375,-0.44969800114631653,7.080837726593018,-8.39182186126709,134.70001220703125,-150.90000915527344,-19.5
708074,1.293783187866211,3.4620516300201416,-1.8961132764816284,-1.2881180047988892,7.789683818817139,-10.144882202148438,144.3000030517578,-138.90000915527344,-15.90000057220459
708094,0.409129798412323,3.2000648975372314,-1.7663161754608154,-0.7850660085678101,8.513773918151855,-8.971094131469727,168.3000030517578,-134.10000610351562,-14.700000762939453
708116,-1.0838350057601929,3.076249361038208,-1.733418345451355,-0.9298839569091797,8.315601348876953,-9.0625581741333,173.10000610351562,-138.90000915527344,-15.90000057220459
708136,-3.165372610092163,2.7101857662200928,-1.9648996591567993,0.18292799592018127,8.64334774017334,-8.917739868164062,192.3000030517578,-141.3000030517578,-18.30000114440918
708156,-3.6923365592956543,4.276124000549316,-2.9440596103668213,2.1494040489196777,7.1875457763671875,-6.227173805236816,182.70001220703125,-131.70001220703125,-18.900001525878906
708179,-2.643791913986206,6.66869592666626,-2.8453660011291504,1.14329993724823,2.6753220558166504,-4.184477806091309,199.50001525878906,-126.9000015258789,-12.90000057220459
708199,-3.8047873973846436,6.177022457122803,-1.2285857200622559,0.22103799879550934,1.2118979692459106,-5.693634033203125,173.10000610351562,-122.10000610351562,-11.100000381469727
708219,-3.6767847537994385,6.586750507354736,-2.196381092071533,1.7835479974746704,3.650938034057617,-3.8338658809661865,194.70001220703125,-131.70001220703125,-7.500000476837158
708241,-4.446594715118408,7.749540328979492,-2.164679527282715,0.6326259970664978,3.201239824295044,-3.0259339809417725,189.90000915527344,-122.10000610351562,-9.300000190734863
708261,-4.84017276763916,8.82978630065918,-2.980546474456787,1.6158639192581177,3.8262438774108887,-1.7835479974746704,187.5,-129.3000030517578,-9.90000057220459
708283,-2.8806564807891846,11.855792045593262,-2.5588555335998535,-1.5167779922485352,-2.2713558673858643,-1.2576299905776978,182.70001220703125,-119.70000457763672,-7.500000476837158
708303,-4.748058795928955,8.519948959350586,-0.1058713048696518,-1.6615959405899048,-2.126538038253784,-5.952781677246094,182.70001220703125,-114.9000015258789,-10.5
708323,-4.807873249053955,10.842537879943848,-2.053424835205078,1.9512319564819336,3.2241058349609375,-0.17530599236488342,182.70001220703125,-119.70000457763672,-12.300000190734863
708343,-3.2108314037323,16.332294464111328,-3.042753219604492,-1.3033620119094849,0.7621999979019165,1.653973937034607,194.70001220703125,-124.50000762939453,-12.90000057220459
708363,-4.929296016693115,13.42113208770752,-0.918149471282959,-1.7606819868087769,-4.496979713439941,-6.623517990112305,197.10000610351562,-114.9000015258789,-9.300000190734863
708387,-6.680060863494873,10.909529685974121,-1.533638596534729,1.8673899173736572,-0.9908599853515625,-4.588443756103516,209.10000610351562,-112.50000762939453,-6.300000190734863
708408,-4.748058795928955,15.842414855957031,-3.5099029541015625,2.4542839527130127,-0.571649968624115,1.653973937034607,213.90000915527344,-114.9000015258789,-5.700000286102295
708428,-6.065169811248779,16.502166748046875,-2.4816951751708984,-1.371959924697876,-7.385717868804932,-1.7606819868087769,218.70001220703125,-93.30000305175781,-12.300000190734863
708472,-7.053900241851807,15.504464149475098,-3.979445219039917,0.4039659798145294,-8.452797889709473,1.6920839548110962,216.3000030517578,-110.10000610351562,-13.500000953674316
708492,-7.122686386108398,15.346553802490234,-3.2915806770324707,0.09146399796009064,-10.0000638961792,2.088428020477295,204.3000030517578,-112.50000762939453,-14.100000381469727
708512,-6.3361287117004395,15.329806327819824,-2.869889974594116,-0.2591480016708374,-11.333913803100586,2.9268479347229004,194.70001220703125,-114.9000015258789,-11.700000762939453
708536,-6.541889667510986,14.03961181640625,-2.268158197402954,-1.1128119230270386,-9.253108024597168,1.875011920928955,213.90000915527344,-112.50000762939453,-17.100000381469727
708598,-6.340315341949463,13.763269424438477,-4.770190238952637,-0.7317119836807251,-11.090009689331055,5.724122047424316,206.70001220703125,-114.9000015258789,-18.30000114440918
708618,-6.139339447021484,12.266118049621582,-3.8287131786346436,0.7240899801254272,-9.588476181030273,3.9481959342956543,209.10000610351562,-119.70000457763672,-23.700000762939453
708640,-6.088497161865234,11.391633033752441,-5.11113166809082,1.707327961921692,-3.5747179985046387,4.46649169921875,192.3000030517578,-129.3000030517578,-20.700000762939453
708661,-5.179319858551025,10.053586959838867,-7.389458179473877,3.1326420307159424,-0.3887220025062561,5.198204040527344,199.50001525878906,-122.10000610351562,-17.700000762939453
708681,-3.6881494522094727,10.690608978271484,-8.2501859664917,2.4619059562683105,-5.099117755889893,7.85828161239624,189.90000915527344,-124.50000762939453,-20.100000381469727
708701,-2.902787923812866,10.982502937316895,-6.576581954956055,-0.38109999895095825,-8.429931640625,8.330845832824707,182.70001220703125,-119.70000457763672,-20.700000762939453
708721,-3.121109962463379,9.96027660369873,-5.946139335632324,0.5259180068969727,-3.094532012939453,6.989373683929443,170.70001220703125,-129.3000030517578,-16.5
708741,-2.495452404022217,9.1982421875,-7.468413352966309,1.9588539600372314,1.4405579566955566,7.660109996795654,173.10000610351562,-141.3000030517578,-15.90000057220459
708765,-1.2124358415603638,9.92857551574707,-7.997769832611084,0.5868939757347107,-0.9298839569091797,9.923843383789062,165.90000915527344,-155.70001220703125,-23.700000762939453
708785,-0.8451760411262512,10.207907676696777,-6.491047382354736,-1.5015339851379395,-3.254593849182129,9.679940223693848,156.3000030517578,-148.5,-25.500001907348633
708805,-0.47911250591278076,8.725111961364746,-6.144722938537598,0.08384199440479279,1.8978779315948486,6.044245719909668,146.70001220703125,-148.5,-22.5
708825,-0.026318291202187538,7.934366703033447,-6.491645812988281,0.5182960033416748,2.233245849609375,5.739366054534912,141.90000915527344,-150.90000915527344,-19.5
708845,0.4043446481227875,7.221380233764648,-6.2164998054504395,-0.6097599864006042,0.08384199440479279,7.286632061004639,137.10000610351562,-148.5,-23.700000762939453
708865,1.3864953517913818,8.240017890930176,-4.54947566986084,-1.5320219993591309,-0.16768398880958557,7.416205883026123,129.90000915527344,-150.90000915527344,-18.900001525878906
708885,1.1825286149978638,7.479179859161377,-4.217505931854248,-1.0289700031280518,1.2347639799118042,5.327777862548828,110.70000457763672,-158.10000610351562,-31.500001907348633
708905,1.5539754629135132,5.9156341552734375,-4.560242176055908,0.914639949798584,3.620450019836426,3.6814258098602295,122.70000457763672,-160.5,-18.30000114440918
708945,2.0169382095336914,6.226668357849121,-3.4142000675201416,-1.4329359531402588,2.1646480560302734,5.762231826782227,103.50000762939453,-165.3000030517578,-20.100000381469727
708965,2.0426583290100098,5.709872722625732,-2.828019857406616,-1.8902559280395508,3.208861827850342,3.9939279556274414,110.70000457763672,-179.70001220703125,-23.700000762939453
708989,2.1066596508026123,5.151207447052002,-2.822636604309082,-0.8079319596290588,5.350644111633301,3.60520601272583,96.30000305175781,-155.70001220703125,-20.100000381469727
709009,1.8512524366378784,5.451475143432617,-2.45298433303833,-1.0365920066833496,4.481735706329346,2.439039945602417,89.10000610351562,-170.10000610351562,-18.900001525878906
709029,1.8201490640640259,5.042943477630615,-2.4015440940856934,-0.3125019967556,4.268320083618164,1.0975680351257324,98.70000457763672,-165.3000030517578,-21.30000114440918
709049,2.0486397743225098,5.2983503341674805,-2.124603748321533,0.16768398880958557,2.850627899169922,0.457319974899292,101.10000610351562,-158.10000610351562,-15.300000190734863
709069,2.2095401287078857,6.005953788757324,-1.619771122932434,-0.060975998640060425,1.6692179441452026,-0.38109999895095825,108.30000305175781,-172.5,-17.700000762939453
709149,2.2579896450042725,6.355268955230713,-0.8427834510803223,-0.15243999660015106,2.5686140060424805,-1.3338500261306763,103.50000762939453,-160.5,-16.5
709316,0.20875190198421478,9.06186580657959,-2.366851806640625,0.3734779953956604,2.1189160346984863,-1.1737879514694214,98.70000457763672,-160.5,-23.100000381469727
709336,0.38340964913368225,8.912928581237793,-2.798711061477661,0.6554920077323914,0.2134159952402115,-0.7774440050125122,113.10000610351562,-167.70001220703125,-16.5
709379,0.818857729434967,8.924891471862793,-2.595940589904785,-0.3048799932003021,-0.9603719711303711,-0.8765299916267395,113.10000610351562,-174.90000915527344,-26.100000381469727
709437,0.8236428499221802,8.988892555236816,-2.5002377033233643,-0.7698220014572144,-0.9527499675750732,-0.9908599853515625,120.30000305175781,-162.90000915527344,-18.900001525878906
709459,0.8463723063468933,9.147400856018066,-2.650371551513672,-0.4344539940357208,-0.9832379817962646,-0.23628199100494385,115.50000762939453,-167.70001220703125,-21.30000114440918
709500,0.8427834510803223,9.16654109954834,-2.498443126678467,-0.2134159952402115,-1.3948259353637695,0.06859800219535828,105.9000015258789,-155.70001220703125,-20.700000762939453
