time,sensor_accX[g],sensor_accY[g],sensor_accZ[g],sensor_gyroX[°/s],sensor_gyroY[°/s],sensor_gyroZ[°/s],sensor_magX[µT],sensor_magY[µT],sensor_magZ[µT]
194630,-3.180326223373413,8.921302795410156,-1.7770828008651733,-0.28201398253440857,0.17530599236488342,-0.2439039945602417,170.70001220703125,-150.90000915527344,-42.30000305175781
194654,-3.2108314037323,8.990687370300293,-1.8249342441558838,-0.23628199100494385,0.17530599236488342,-0.12195199728012085,182.70001220703125,-150.90000915527344,-43.5
194674,-3.2299721240997314,9.085193634033203,-1.84646737575531,-0.2972579896450043,0.09908600151538849,-0.09146399796009064,173.10000610351562,-146.10000610351562,-44.10000228881836
194698,-3.1904945373535156,8.951210021972656,-1.8105788230895996,-0.33536797761917114,0.015243999660015106,-0.1448179930448532,163.5,-153.3000030517578,-39.30000305175781
194719,-3.103165626525879,8.944629669189453,-1.7914382219314575,-0.25152599811553955,0.060975998640060425,-0.060975998640060425,187.5,-155.70001220703125,-40.5
194739,-3.073258638381958,9.006836891174316,-1.7645217180252075,-0.2439039945602417,0.07621999830007553,-0.007621999830007553,168.3000030517578,-153.3000030517578,-46.5
194759,-3.1127359867095947,9.082202911376953,-1.821345329284668,-0.25152599811553955,0.1295740008354187,-0.06859800219535828,170.70001220703125,-148.5,-40.5
194780,-3.1127359867095947,8.950013160705566,-1.7794753313064575,-0.23628199100494385,0.08384199440479279,-0.1448179930448532,182.70001220703125,-143.70001220703125,-39.900001525878906
194800,-3.1378579139709473,8.942835807800293,-1.752558946609497,-0.19817200303077698,0.19054999947547913,-0.060975998640060425,182.70001220703125,-153.3000030517578,-44.70000076293945
194820,-3.2114295959472656,9.07801628112793,-1.8835521936416626,-0.22103799879550934,0.13719600439071655,-0.030487999320030212,170.70001220703125,-146.10000610351562,-42.30000305175781
194844,-3.1635782718658447,9.005640983581543,-1.8859448432922363,-0.2439039945602417,-0.05335399881005287,-0.1448179930448532,163.5,-160.5,-39.900001525878906
194864,-3.0834269523620605,8.95240592956543,-1.7932326793670654,-0.2439039945602417,-0.060975998640060425,-0.1600620001554489,177.90000915527344,-148.5,-41.70000076293945
194884,-3.0122480392456055,8.98530387878418,-1.7716994285583496,-0.2743920087814331,0.02286599949002266,-0.06859800219535828,180.3000030517578,-155.70001220703125,-36.900001525878906
194904,-3.043949604034424,9.090577125549316,-1.7902419567108154,-0.3201240003108978,0.2439039945602417,-0.06859800219535828,175.5,-155.70001220703125,-39.900001525878906
194924,-3.1223063468933105,9.006836891174316,-1.8279249668121338,-0.426831990480423,0.228659987449646,-0.1600620001554489,163.5,-155.70001220703125,-41.10000228881836
194944,-3.1109416484832764,8.930274963378906,-1.7782790660858154,-0.3734779953956604,0.19054999947547913,-0.19817200303077698,165.90000915527344,-160.5,-39.900001525878906
194965,-3.123502492904663,8.980518341064453,-1.82553231716156,-0.342989981174469,0.3125019967556,-0.09908600151538849,175.5,-148.5,-41.10000228881836
194985,-3.2060463428497314,9.057679176330566,-1.839289665222168,-0.4344539940357208,0.36585599184036255,-0.1600620001554489,170.70001220703125,-153.3000030517578,-45.30000305175781
195005,-3.2299721240997314,9.01222038269043,-1.8566358089447021,-0.457319974899292,0.3277460038661957,-0.2134159952402115,175.5,-143.70001220703125,-36.900001525878906
195026,-3.2527015209198,8.917713165283203,-1.8309156894683838,-0.3734779953956604,0.1600620001554489,-0.2743920087814331,168.3000030517578,-146.10000610351562,-36.30000305175781
195046,-3.1217081546783447,8.852516174316406,-1.7388015985488892,-0.3048799932003021,0.1295740008354187,-0.19817200303077698,180.3000030517578,-124.50000762939453,-36.900001525878906
195106,-3.1737465858459473,8.98530387878418,-1.8596265316009521,-0.4420759975910187,0.17530599236488342,-0.23628199100494385,170.70001220703125,-150.90000915527344,-41.70000076293945
195126,-3.1109416484832764,8.98111629486084,-1.7956252098083496,-0.39634400606155396,0.1600620001554489,-0.1295740008354187,185.10000610351562,-146.10000610351562,-42.30000305175781
195146,-3.102567672729492,9.027771949768066,-1.7866530418395996,-0.4039659798145294,0.25152599811553955,-0.114329993724823,175.5,-141.3000030517578,-35.70000076293945
195169,-3.075651168823242,8.969752311706543,-1.7944289445877075,-0.426831990480423,0.2439039945602417,-0.08384199440479279,180.3000030517578,-158.10000610351562,-41.70000076293945
195190,-3.0272016525268555,9.073230743408203,-1.7615309953689575,-0.41158798336982727,0.2591480016708374,-0.08384199440479279,163.5,-158.10000610351562,-42.900001525878906
195210,-3.0505292415618896,9.046314239501953,-1.7388015985488892,-0.4192099869251251,0.33536797761917114,-0.23628199100494385,177.90000915527344,-146.10000610351562,-39.900001525878906
195230,-3.1019694805145264,8.96915340423584,-1.7693068981170654,-0.426831990480423,0.38109999895095825,-0.3048799932003021,168.3000030517578,-146.10000610351562,-42.900001525878906
195250,-3.058903217315674,9.014613151550293,-1.7645217180252075,-0.4344539940357208,0.39634400606155396,-0.2134159952402115,158.70001220703125,-155.70001220703125,-53.10000228881836
195271,-3.153409719467163,9.01999568939209,-1.85244882106781,-0.46494197845458984,0.3201240003108978,-0.16768398880958557,165.90000915527344,-150.90000915527344,-41.70000076293945
195291,-3.150418996810913,9.006836891174316,-1.7675124406814575,-0.4725639820098877,0.1295740008354187,-0.16768398880958557,180.3000030517578,-150.90000915527344,-42.30000305175781
195311,-3.165372610092163,8.82799243927002,-1.82553231716156,-0.3734779953956604,0.114329993724823,-0.17530599236488342,185.10000610351562,-153.3000030517578,-46.5
195331,-3.127091407775879,8.966761589050293,-1.8638135194778442,-0.16768398880958557,0.030487999320030212,-0.07621999830007553,173.10000610351562,-158.10000610351562,-46.5
195353,-2.956620693206787,9.146801948547363,-1.8685986995697021,-0.1295740008354187,-0.04573199898004532,-0.10670799762010574,170.70001220703125,-150.90000915527344,-42.900001525878906
195373,-2.942265272140503,9.244897842407227,-1.8368970155715942,-0.19054999947547913,0.18292799592018127,-0.17530599236488342,173.10000610351562,-138.90000915527344,-42.900001525878906
195435,-3.2802159786224365,8.97513484954834,-2.0552191734313965,-0.22103799879550934,0.015243999660015106,0.13719600439071655,173.10000610351562,-162.90000915527344,-45.900001525878906
195474,-3.1695597171783447,9.182690620422363,-2.009162187576294,-0.3048799932003021,0.02286599949002266,0.4192099869251251,180.3000030517578,-143.70001220703125,-43.5
195495,-3.138456106185913,9.26702880859375,-1.9696848392486572,-0.41158798336982727,0.13719600439071655,0.342989981174469,173.10000610351562,-162.90000915527344,-41.10000228881836
195536,-3.3992464542388916,9.013416290283203,-1.5360311269760132,-0.38109999895095825,0.5945159792900085,0.015243999660015106,182.70001220703125,-146.10000610351562,-41.10000228881836
195556,-3.8855366706848145,8.915321350097656,-1.709492564201355,0.030487999320030212,1.0899460315704346,0.030487999320030212,170.70001220703125,-141.3000030517578,-42.30000305175781
195576,-4.015932083129883,9.47817325592041,-2.1090521812438965,0.5030519962310791,0.9908599853515625,0.17530599236488342,170.70001220703125,-150.90000915527344,-36.30000305175781
195597,-4.104456901550293,10.000950813293457,-2.289691209793091,0.6554920077323914,0.510673999786377,0.02286599949002266,175.5,-148.5,-38.10000228881836
195617,-4.253993034362793,10.074522018432617,-2.2376527786254883,0.4420759975910187,0.007621999830007553,0.1448179930448532,175.5,-160.5,-44.10000228881836
195637,-3.9632952213287354,9.652831077575684,-2.124603748321533,-0.35061198472976685,0.060975998640060425,1.0442140102386475,165.90000915527344,-150.90000915527344,-39.30000305175781
195659,-4.044642925262451,8.23523235321045,-2.42905855178833,-0.46494197845458984,0.342989981174469,2.225623846054077,165.90000915527344,-162.90000915527344,-42.900001525878906
195679,-3.2742345333099365,8.51217269897461,-1.9864327907562256,0.1600620001554489,-0.7317119836807251,4.00154972076416,161.10000610351562,-160.5,-42.30000305175781
195699,-2.7622241973876953,10.04102611541748,-1.308736801147461,0.10670799762010574,-0.5335400104522705,4.00154972076416,163.5,-158.10000610351562,-43.5
195719,-3.1223063468933105,9.994370460510254,-1.0981905460357666,-0.4725639820098877,-0.04573199898004532,2.1722700595855713,153.90000915527344,-162.90000915527344,-45.900001525878906
195741,-3.371731996536255,9.70128059387207,-1.202865481376648,-0.8689079880714417,0.2743920087814331,1.3186060190200806,156.3000030517578,-153.3000030517578,-38.10000228881836
195762,-3.755141496658325,9.30112361907959,-1.0706759691238403,-1.2500079870224,-0.04573199898004532,0.9984819889068604,153.90000915527344,-150.90000915527344,-39.900001525878906
195782,-3.987819194793701,9.567296981811523,-0.9354956150054932,-1.1280559301376343,-0.28201398253440857,1.3262280225753784,139.5,-148.5,-42.30000305175781
195802,-4.573400974273682,10.041624069213867,-0.9737767577171326,-1.1051899194717407,0.07621999830007553,1.2118979692459106,153.90000915527344,-153.3000030517578,-39.900001525878906
195823,-4.8479485511779785,10.587130546569824,-1.1789398193359375,-1.6920839548110962,-0.06859800219535828,1.295740008354187,158.70001220703125,-165.3000030517578,-42.30000305175781
195886,-3.67499041557312,9.72341251373291,-0.6908551454544067,-1.425313949584961,1.295740008354187,4.184477806091309,137.10000610351562,-165.3000030517578,-41.10000228881836
195906,-3.2957677841186523,10.039231300354004,-0.709397554397583,-1.0823240280151367,1.8673899173736572,4.57319974899292,139.5,-158.10000610351562,-43.5
195926,-2.7281301021575928,10.27908706665039,-0.5718246698379517,-1.021347999572754,1.9969639778137207,4.527467727661133,141.90000915527344,-167.70001220703125,-51.900001525878906
195949,-2.608501434326172,9.822704315185547,-0.10646945238113403,-1.0747020244598389,2.278977870941162,3.9786839485168457,132.3000030517578,-160.5,-40.5
195969,-2.1150336265563965,10.5231294631958,-0.36546534299850464,-0.426831990480423,3.4832539558410645,3.917707920074463,141.90000915527344,-160.5,-47.10000228881836
195989,-1.699324131011963,10.31078815460205,-0.20516303181648254,-0.4420759975910187,2.9116039276123047,3.5899620056152344,125.10000610351562,-158.10000610351562,-48.900001525878906
196029,-2.0456490516662598,8.47030258178711,-0.41870006918907166,0.5487840175628662,3.307947874069214,3.4375219345092773,117.9000015258789,-155.70001220703125,-44.70000076293945
196070,-1.0772554874420166,9.120484352111816,-1.0539278984069824,2.4542839527130127,2.7591638565063477,6.394857883453369,105.9000015258789,-170.10000610351562,-42.900001525878906
196090,-0.5634506940841675,10.39452838897705,-0.90977543592453,2.187514066696167,2.484771966934204,5.929915904998779,101.10000610351562,-167.70001220703125,-36.30000305175781
196130,-1.345821738243103,9.596007347106934,-0.4868883788585663,1.3186060190200806,3.810999870300293,3.239349842071533,105.9000015258789,-182.10000610351562,-45.30000305175781
196150,-1.4642540216445923,9.679149627685547,-0.5981429815292358,1.5167779922485352,4.504601955413818,3.4222779273986816,101.10000610351562,-177.3000030517578,-38.10000228881836
196193,-1.9427683353424072,9.46142578125,-0.6806867122650146,1.7301939725875854,5.381131649017334,3.8795979022979736,93.9000015258789,-182.10000610351562,-42.900001525878906
196213,-1.8351026773452759,9.442883491516113,-0.724949300289154,1.7378159761428833,5.754610061645508,4.329296112060547,93.9000015258789,-174.90000915527344,-37.5
196233,-1.4869834184646606,9.75212287902832,-0.6238631010055542,1.6692179441452026,6.234796047210693,4.46649169921875,91.5,-172.5,-39.900001525878906
196296,-1.4708335399627686,8.511574745178223,-0.7919412851333618,1.6615959405899048,6.99699592590332,3.0183119773864746,72.30000305175781,-179.70001220703125,-39.30000305175781
196338,-0.5407212376594543,8.87464714050293,-0.6914532780647278,1.3033620119094849,7.561023712158203,2.75154185295105,69.9000015258789,-177.3000030517578,-33.900001525878906
196388,0.718369722366333,8.236428260803223,-0.7267436981201172,0.8307979702949524,8.056453704833984,1.2652519941329956,67.5,-170.10000610351562,-33.900001525878906
196428,1.5432088375091553,8.342300415039062,-1.0904146432876587,1.1280559301376343,8.239381790161133,0.3887220025062561,57.900001525878906,-172.5,-36.30000305175781
196448,2.0845282077789307,9.159363746643066,-1.6024249792099,1.5548880100250244,8.574749946594238,0.228659987449646,69.9000015258789,-179.70001220703125,-31.500001907348633
196491,2.4069273471832275,8.803468704223633,-2.7825610637664795,1.5929979085922241,8.247003555297852,-1.2118979692459106,65.10000610351562,-177.3000030517578,-26.100000381469727
196511,2.6832692623138428,8.659316062927246,-2.780766725540161,1.0823240280151367,7.400961875915527,-1.0899460315704346,57.900001525878906,-177.3000030517578,-27.900001525878906
196573,2.866899251937866,9.155176162719727,-3.4710235595703125,1.0823240280151367,7.164680004119873,-0.7240899801254272,67.5,-182.10000610351562,-21.30000114440918
196609,3.454275608062744,9.41237735748291,-3.958510160446167,1.6311079263687134,7.279009819030762,-0.9527499675750732,65.10000610351562,-167.70001220703125,-31.500001907348633
196629,3.6684107780456543,9.508678436279297,-4.261768817901611,1.2500079870224,6.913153648376465,-0.8079319596290588,67.5,-170.10000610351562,-28.500001907348633
196669,3.064286470413208,8.601295471191406,-4.42685604095459,1.7987920045852661,5.39637565612793,0.15243999660015106,69.9000015258789,-174.90000915527344,-26.700000762939453
196689,2.819645881652832,9.04392147064209,-4.080531120300293,1.242385983467102,4.100636005401611,0.09908600151538849,77.10000610351562,-167.70001220703125,-25.500001907348633
196709,2.6701102256774902,8.60189437866211,-4.082923889160156,1.3262280225753784,3.810999870300293,-0.7164679765701294,79.5,-165.3000030517578,-21.900001525878906
196729,2.735905885696411,8.27710247039795,-3.9327900409698486,1.1051899194717407,2.995445966720581,-0.8079319596290588,60.30000305175781,-167.70001220703125,-17.700000762939453
196750,2.631829023361206,7.741166114807129,-3.48179030418396,0.09146399796009064,2.5152599811553955,-0.48018598556518555,53.10000228881836,-172.5,-21.900001525878906
196770,2.3919737339019775,7.466618537902832,-3.410611152648926,-0.5411620140075684,2.987823963165283,0.17530599236488342,65.10000610351562,-172.5,-21.900001525878906
196790,2.399749517440796,7.592228889465332,-3.6438870429992676,-0.5259180068969727,3.0869100093841553,0.6554920077323914,67.5,-174.90000915527344,-18.900001525878906
196810,2.6701102256774902,8.228055000305176,-3.4291536808013916,-0.7164679765701294,2.4695279598236084,0.853663980960846,72.30000305175781,-184.5,-22.5
196831,2.789738893508911,8.149100303649902,-3.392666816711426,-1.013725996017456,2.545747995376587,0.7088459730148315,67.5,-174.90000915527344,-18.900001525878906
196851,2.586968421936035,7.830289840698242,-3.3513951301574707,-0.9603719711303711,2.4237959384918213,0.6173819899559021,57.900001525878906,-177.3000030517578,-21.30000114440918
196871,2.5738091468811035,7.946927547454834,-3.273038387298584,-0.7240899801254272,2.2637338638305664,0.6554920077323914,57.900001525878906,-182.10000610351562,-23.700000762939453
196891,2.5833795070648193,8.251980781555176,-3.24372935295105,-0.6631140112876892,2.0655620098114014,0.3125019967556,74.70000457763672,-177.3000030517578,-20.100000381469727
196911,2.7048025131225586,8.3518705368042,-3.156400442123413,-0.6936019659042358,1.8902559280395508,0.02286599949002266,48.30000305175781,-174.90000915527344,-23.700000762939453
196955,2.5588555335998535,8.455946922302246,-3.1845130920410156,-0.8155539631843567,1.9512319564819336,-0.3277460038661957,69.9000015258789,-172.5,-15.90000057220459
196975,2.4721248149871826,8.488844871520996,-3.0116498470306396,-0.685979962348938,1.4939119815826416,-0.457319974899292,60.30000305175781,-174.90000915527344,-14.100000381469727
196995,2.3596739768981934,8.30102825164795,-2.8268237113952637,-0.967993974685669,1.1737879514694214,-0.7469559907913208,57.900001525878906,-170.10000610351562,-20.700000762939453
197015,2.2394473552703857,8.074332237243652,-2.793327569961548,-0.914639949798584,1.2042759656906128,-0.8917739987373352,57.900001525878906,-174.90000915527344,-20.700000762939453
197035,2.295074462890625,8.128763198852539,-2.8417773246765137,-0.7926880121231079,0.914639949798584,-0.685979962348938,69.9000015258789,-177.3000030517578,-20.700000762939453
197055,2.3501036167144775,8.409890174865723,-2.750859498977661,-0.7621999979019165,0.5259180068969727,-0.510673999786377,77.10000610351562,-186.90000915527344,-21.900001525878906
197075,2.2035586833953857,8.180203437805176,-2.780766725540161,-0.914639949798584,0.23628199100494385,-0.7088459730148315,57.900001525878906,-162.90000915527344,-21.30000114440918
197095,2.1419498920440674,7.8021769523620605,-2.6892507076263428,-0.9984819889068604,-0.3048799932003021,-0.7926880121231079,67.5,-174.90000915527344,-26.700000762939453
197115,2.1353704929351807,7.6448655128479,-2.4846858978271484,-1.0823240280151367,-0.5030519962310791,-0.5182960033416748,69.9000015258789,-167.70001220703125,-27.30000114440918
197135,2.441619634628296,8.30880355834961,-2.580986976623535,-1.1280559301376343,-0.6326259970664978,0,67.5,-165.3000030517578,-22.5
197155,2.497844934463501,8.2800931930542,-2.8238329887390137,-1.2500079870224,-0.7240899801254272,0.12195199728012085,65.10000610351562,-165.3000030517578,-27.30000114440918
197176,2.6928396224975586,8.694605827331543,-2.7197561264038086,-0.967993974685669,-2.3018438816070557,0.13719600439071655,72.30000305175781,-170.10000610351562,-30.900001525878906
197197,2.492461681365967,8.132949829101562,-2.5594537258148193,-0.9451279640197754,-2.835383892059326,0.1600620001554489,60.30000305175781,-177.3000030517578,-26.100000381469727
197217,2.537322521209717,7.972647666931152,-2.1826236248016357,-0.7926880121231079,-3.666181802749634,0.4039659798145294,77.10000610351562,-177.3000030517578,-26.700000762939453
197239,2.528350353240967,8.376394271850586,-2.0157418251037598,-0.7012239694595337,-3.85673189163208,0.914639949798584,67.5,-174.90000915527344,-19.5
197259,2.357281446456909,8.680849075317383,-1.84048593044281,-0.967993974685669,-4.123501777648926,1.242385983467102,67.5,-165.3000030517578,-24.900001525878906
197279,2.2077457904815674,9.420153617858887,-1.5707234144210815,-0.9375059604644775,-4.268320083618164,1.4558019638061523,55.500003814697266,-165.3000030517578,-32.10000228881836
197341,3.3376376628875732,13.119070053100586,0.5837875604629517,-3.407033920288086,-2.6600780487060547,-1.6234859228134155,60.30000305175781,-184.5,-26.700000762939453
197361,2.115631580352783,11.503485679626465,-0.2703606188297272,-2.5533699989318848,-0.05335399881005287,-3.239349842071533,65.10000610351562,-179.70001220703125,-35.70000076293945
197382,0.7686136960983276,9.88251781463623,-0.12321744859218597,-2.743919849395752,-0.02286599949002266,-4.6951518058776855,53.10000228881836,-165.3000030517578,-29.100000381469727
197402,-0.21951846778392792,8.59890365600586,-0.5233750939369202,-1.6920839548110962,0.6936019659042358,-4.916189670562744,67.5,-172.5,-31.500001907348633
197422,-0.22490175068378448,8.034255981445312,-0.9707860350608826,-0.7926880121231079,-0.15243999660015106,-3.559473991394043,77.10000610351562,-182.10000610351562,-30.30000114440918
197442,0.23626647889614105,8.135940551757812,-1.0066746473312378,-0.10670799762010574,-0.9756159782409668,-1.5396440029144287,89.10000610351562,-177.3000030517578,-31.500001907348633
197462,0.8385964632034302,8.670680046081543,-1.1603974103927612,0.5564059615135193,-1.1051899194717407,-0.06859800219535828,77.10000610351562,-174.90000915527344,-33.900001525878906
197486,1.3613734245300293,9.223962783813477,-1.4522911310195923,0.41158798336982727,-1.1661659479141235,0.3582339882850647,72.30000305175781,-182.10000610351562,-29.100000381469727
197506,1.645491361618042,9.00803279876709,-1.2435392141342163,0.060975998640060425,-1.242385983467102,0.4344539940357208,81.9000015258789,-182.10000610351562,-30.30000114440918
197530,1.8841503858566284,8.835169792175293,-1.1932952404022217,-0.4725639820098877,-0.914639949798584,0.6402480006217957,79.5,-167.70001220703125,-29.700000762939453
197550,1.7986159324645996,8.472097396850586,-1.4893759489059448,-0.7317119836807251,-0.22103799879550934,0.914639949798584,77.10000610351562,-179.70001220703125,-30.30000114440918
197572,1.946357250213623,9.276598930358887,-1.7950270175933838,-0.28201398253440857,-0.5182960033416748,1.7225719690322876,65.10000610351562,-167.70001220703125,-21.900001525878906
197654,2.41410493850708,9.2520751953125,-0.9079810380935669,-0.7469559907913208,0.8155539631843567,1.4024479389190674,60.30000305175781,-179.70001220703125,-30.30000114440918
197694,1.6622393131256104,8.656923294067383,-0.7578471302986145,-0.7545779943466187,1.3414719104766846,-0.4878079891204834,55.500003814697266,-179.70001220703125,-28.500001907348633
197714,2.119818687438965,8.671278953552246,-0.5598618388175964,-0.4725639820098877,1.4100699424743652,-0.5640279650688171,62.70000076293945,-167.70001220703125,-29.100000381469727
197758,1.6849687099456787,9.214990615844727,-1.0204318761825562,0.5411620140075684,0.8841519951820374,-0.6173819899559021,72.30000305175781,-160.5,-30.900001525878906
197778,1.3673548698425293,8.1544828414917,-1.2614835500717163,0.6402480006217957,1.2347639799118042,-1.2271419763565063,55.500003814697266,-179.70001220703125,-30.900001525878906
197799,1.643696904182434,8.222073554992676,-1.5629476308822632,0.9908599853515625,0.8079319596290588,-0.5182960033416748,67.5,-179.70001220703125,-27.30000114440918
197839,2.3596739768981934,9.465612411499023,-1.2818204164505005,0.19817200303077698,0.20579399168491364,-0.114329993724823,62.70000076293945,-184.5,-28.500001907348633
197887,3.1976723670959473,9.46022891998291,-2.0486397743225098,-0.3887220025062561,0.7545779943466187,-0.9756159782409668,67.5,-174.90000915527344,-26.100000381469727
197991,2.530144691467285,7.956497669219971,-1.8368970155715942,-0.7317119836807251,0.3277460038661957,-1.0061039924621582,62.70000076293945,-182.10000610351562,-29.100000381469727
198031,2.5092098712921143,7.464226245880127,-2.071967363357544,-0.12195199728012085,0.44969800114631653,-0.114329993724823,67.5,-170.10000610351562,-23.100000381469727
198131,4.282105445861816,9.18448543548584,-2.4464046955108643,-0.19054999947547913,0.7621999979019165,1.295740008354187,69.9000015258789,-174.90000915527344,-32.70000076293945
198170,3.9447529315948486,9.480566024780273,-2.5439021587371826,-0.26677000522613525,0.5945159792900085,0.9984819889068604,57.900001525878906,-174.90000915527344,-30.900001525878906
198190,3.818544626235962,9.325647354125977,-2.3034486770629883,-0.6783579587936401,0.19054999947547913,0.015243999660015106,62.70000076293945,-174.90000915527344,-26.700000762939453
198235,3.3196935653686523,8.031265258789062,-1.518684983253479,-1.7378159761428833,0.33536797761917114,-1.6158639192581177,57.900001525878906,-170.10000610351562,-25.500001907348633
198256,3.0929973125457764,7.8470377922058105,-1.4959555864334106,-1.92836594581604,0.8155539631843567,-1.5396440029144287,60.30000305175781,-172.5,-24.30000114440918
198276,3.0535199642181396,7.928983211517334,-1.6078083515167236,-2.042695999145508,1.1356779336929321,-1.1280559301376343,55.500003814697266,-174.90000915527344,-24.900001525878906
198296,2.908769369125366,7.908646583557129,-1.61139714717865,-1.935987949371338,1.2271419763565063,-0.6936019659042358,77.10000610351562,-170.10000610351562,-27.900001525878906
198356,2.5767998695373535,8.59770679473877,-2.1598942279815674,-0.9756159782409668,0.7240899801254272,0.030487999320030212,67.5,-194.10000610351562,-32.10000228881836
198380,2.629436492919922,8.908143043518066,-2.0462470054626465,-0.8155539631843567,0.09146399796009064,0.007621999830007553,69.9000015258789,-184.5,-29.700000762939453
198400,2.8178515434265137,9.828685760498047,-2.3267762660980225,-0.426831990480423,0.08384199440479279,0.19817200303077698,77.10000610351562,-170.10000610351562,-30.30000114440918
198422,2.720952272415161,9.899864196777344,-2.372833251953125,-0.7926880121231079,-0.6097599864006042,-0.33536797761917114,67.5,-170.10000610351562,-35.70000076293945
198483,3.0026776790618896,10.16364574432373,-1.3667566776275635,-1.8369019031524658,-0.41158798336982727,0.3277460038661957,72.30000305175781,-170.10000610351562,-27.30000114440918
198553,2.423675298690796,9.16654109954834,-1.4008508920669556,-0.9451279640197754,-0.18292799592018127,0.12195199728012085,72.30000305175781,-172.5,-38.70000076293945
198593,1.408626675605774,8.045620918273926,-1.1747528314590454,-0.09908600151538849,-1.2728739976882935,-0.08384199440479279,57.900001525878906,-167.70001220703125,-33.900001525878906
198613,1.1825286149978638,8.056985855102539,-0.9994968771934509,0.2972579896450043,-1.3033620119094849,-0.030487999320030212,62.70000076293945,-153.3000030517578,-27.30000114440918
198654,1.6042194366455078,8.668886184692383,-0.7710062861442566,0,-1.4634239673614502,-0.5259180068969727,62.70000076293945,-172.5,-35.10000228881836
198676,1.7974196672439575,9.1922607421875,-0.8643165826797485,0.038109999150037766,-0.9451279640197754,-0.6173819899559021,57.900001525878906,-172.5,-31.500001907348633
198697,2.0815374851226807,10.280282974243164,-1.0963960886001587,0.02286599949002266,-0.6783579587936401,-0.685979962348938,65.10000610351562,-165.3000030517578,-33.30000305175781
198717,2.1796329021453857,10.422640800476074,-1.196884036064148,-0.007621999830007553,-0.6173819899559021,-0.7469559907913208,67.5,-162.90000915527344,-34.5
198737,1.7340164184570312,9.161157608032227,-1.3003628253936768,0.18292799592018127,-0.571649968624115,-0.48018598556518555,62.70000076293945,-172.5,-34.5
198758,1.7806715965270996,9.727001190185547,-1.3033535480499268,0.6707359552383423,-0.9070180058479309,-0.007621999830007553,65.10000610351562,-179.70001220703125,-23.700000762939453
198798,1.5982379913330078,10.06973648071289,-1.1669769287109375,0.06859800219535828,-1.1509219408035278,-0.4192099869251251,55.500003814697266,-174.90000915527344,-32.10000228881836
198829,1.512703537940979,9.328638076782227,-0.709995687007904,-0.5945159792900085,-1.2195199728012085,-0.9527499675750732,74.70000457763672,-182.10000610351562,-29.700000762939453
198849,1.5832844972610474,8.951210021972656,-0.5221788287162781,-0.7164679765701294,-1.1128119230270386,-0.7774440050125122,74.70000457763672,-167.70001220703125,-34.5
198891,1.618574857711792,8.45833969116211,-0.4653552174568176,-0.4039659798145294,-0.739333987236023,0.22103799879550934,72.30000305175781,-162.90000915527344,-35.70000076293945
198911,1.8703930377960205,8.692214012145996,-0.39238178730010986,-0.18292799592018127,-0.6021379828453064,0.8231759667396545,62.70000076293945,-174.90000915527344,-33.900001525878906
198951,2.0486397743225098,9.339404106140137,-0.40554094314575195,-0.20579399168491364,-0.15243999660015106,0.7621999979019165,69.9000015258789,-174.90000915527344,-27.30000114440918
198992,2.014545440673828,9.1802978515625,-0.5221788287162781,-0.228659987449646,-0.15243999660015106,-0.17530599236488342,57.900001525878906,-177.3000030517578,-33.900001525878906
199071,2.068976640701294,9.209009170532227,-0.3253897726535797,-0.5259180068969727,0.007621999830007553,-0.9375059604644775,72.30000305175781,-167.70001220703125,-29.100000381469727
199091,2.1539127826690674,9.449462890625,-0.33615633845329285,-0.4344539940357208,0.16768398880958557,-0.7012239694595337,72.30000305175781,-184.5,-32.70000076293945
199133,2.2849061489105225,9.70247745513916,-0.37563377618789673,-0.28201398253440857,0.7240899801254272,-0.8841519951820374,77.10000610351562,-174.90000915527344,-29.700000762939453
199154,2.9530317783355713,11.185273170471191,-0.9785618782043457,-0.04573199898004532,1.4405579566955566,-0.4878079891204834,67.5,-174.90000915527344,-29.700000762939453
199174,3.347208023071289,10.867061614990234,-1.2375577688217163,-0.5259180068969727,0.5792719721794128,-1.1280559301376343,67.5,-179.70001220703125,-30.900001525878906
199194,2.694634199142456,9.242505073547363,-0.8942237496376038,-0.15243999660015106,0.5640279650688171,-1.0442140102386475,72.30000305175781,-167.70001220703125,-35.70000076293945
199214,2.909367322921753,10.036839485168457,-1.5402181148529053,0.7012239694595337,0.800309956073761,-0.3201240003108978,74.70000457763672,-170.10000610351562,-33.30000305175781
199237,2.510406017303467,9.58882999420166,-1.22499680519104,0.2743920087814331,0.2972579896450043,-0.5487840175628662,69.9000015258789,-165.3000030517578,-33.30000305175781
199279,1.9595164060592651,9.830479621887207,-1.5982379913330078,0.510673999786377,1.646351933479309,-1.5701320171356201,72.30000305175781,-174.90000915527344,-32.10000228881836
199329,1.205856204032898,8.679054260253906,-1.8578320741653442,0.7317119836807251,2.1494040489196777,-2.492393970489502,84.30000305175781,-179.70001220703125,-29.700000762939453
199493,0.030505292117595673,9.321459770202637,-3.3878817558288574,2.7667858600616455,0.8689079880714417,-1.295740008354187,93.9000015258789,-170.10000610351562,-23.100000381469727
199513,0.031103434041142464,10.02009105682373,-3.567922830581665,2.5533699989318848,0.7621999979019165,-1.806414008140564,101.10000610351562,-172.5,-27.30000114440918
199533,-0.25122004747390747,9.947715759277344,-3.4064242839813232,1.7378159761428833,0.3201240003108978,-2.9268479347229004,93.9000015258789,-172.5,-33.900001525878906
199553,-0.49645867943763733,9.700084686279297,-3.3753206729888916,1.3109840154647827,0.41158798336982727,-3.902463912963867,101.10000610351562,-167.70001220703125,-28.500001907348633
199575,-0.5885726809501648,9.357946395874023,-3.3585727214813232,0.8841519951820374,0.342989981174469,-4.4436259269714355,89.10000610351562,-174.90000915527344,-26.100000381469727
199595,-0.5042345523834229,8.83098316192627,-3.1587929725646973,0.4192099869251251,0.2134159952402115,-4.00154972076416,108.30000305175781,-174.90000915527344,-24.900001525878906
199615,-0.3235953450202942,8.742457389831543,-3.1432414054870605,0.41158798336982727,0.6173819899559021,-2.9192259311676025,101.10000610351562,-170.10000610351562,-21.30000114440918
199635,-0.27753832936286926,8.635988235473633,-2.9697799682617188,0.4039659798145294,0.7088459730148315,-2.0579400062561035,91.5,-177.3000030517578,-22.5
199655,-0.17346146702766418,8.957191467285156,-3.1229045391082764,0.739333987236023,1.1356779336929321,-1.5167779922485352,98.70000457763672,-167.70001220703125,-32.10000228881836
199675,0.03588857874274254,8.872254371643066,-3.040360689163208,0.853663980960846,0.8765299916267395,-1.5396440029144287,98.70000457763672,-162.90000915527344,-25.500001907348633
199695,0.17585402727127075,8.706568717956543,-2.8178515434265137,0.914639949798584,0.8841519951820374,-1.524399995803833,103.50000762939453,-160.5,-21.30000114440918
199738,0.18662060797214508,8.969752311706543,-3.0744547843933105,1.2195199728012085,1.478667974472046,-1.3338500261306763,108.30000305175781,-160.5,-26.100000381469727
199758,0.08732887357473373,9.4375,-3.371731996536255,1.3567159175872803,1.7835479974746704,-1.242385983467102,113.10000610351562,-172.5,-23.700000762939453
199778,0.20516303181648254,9.575671195983887,-3.740786075592041,1.2804960012435913,1.5320219993591309,-1.3186060190200806,108.30000305175781,-170.10000610351562,-19.5
199801,0.359483927488327,8.958985328674316,-3.264066219329834,0.8689079880714417,0.7469559907913208,-0.9603719711303711,127.50000762939453,-158.10000610351562,-17.100000381469727
199821,0.5281602144241333,9.141419410705566,-3.359769105911255,0.8231759667396545,1.1509219408035278,-0.44969800114631653,110.70000457763672,-167.70001220703125,-17.100000381469727
199841,0.6788922548294067,9.33282470703125,-3.365750551223755,0.5411620140075684,1.2271419763565063,-0.35061198472976685,101.10000610351562,-165.3000030517578,-18.900001525878906
199861,0.6962383985519409,9.260449409484863,-3.311319589614868,0.342989981174469,1.417691946029663,-0.5868939757347107,120.30000305175781,-158.10000610351562,-19.5
199881,0.8463723063468933,9.27121639251709,-3.3513951301574707,0.28201398253440857,1.3567159175872803,-0.9222619533538818,120.30000305175781,-155.70001220703125,-23.100000381469727
199904,0.9600194692611694,9.161157608032227,-3.052921772003174,0.114329993724823,1.0899460315704346,-1.3033620119094849,113.10000610351562,-158.10000610351562,-20.700000762939453
199924,0.9462621808052063,8.870460510253906,-2.8782639503479004,-0.1295740008354187,1.524399995803833,-1.6158639192581177,117.9000015258789,-160.5,-17.100000381469727
199967,0.5538803935050964,8.443984031677246,-2.856132745742798,-0.10670799762010574,1.5929979085922241,-1.295740008354187,108.30000305175781,-160.5,-26.700000762939453
199987,0.721360445022583,8.731691360473633,-3.0355756282806396,0.19054999947547913,1.478667974472046,-0.9375059604644775,125.10000610351562,-167.70001220703125,-18.900001525878906
200007,0.8362038731575012,8.997864723205566,-2.9105637073516846,0.4878079891204834,1.0899460315704346,-0.8231759667396545,120.30000305175781,-158.10000610351562,-18.30000114440918
200029,0.8984107375144958,9.500903129577637,-3.0630900859832764,0.3734779953956604,1.3186060190200806,-0.9070180058479309,137.10000610351562,-158.10000610351562,-20.700000762939453
200069,0.42169079184532166,8.973938941955566,-3.690542221069336,0.015243999660015106,1.577754020690918,-1.2728739976882935,110.70000457763672,-177.3000030517578,-21.900001525878906
200092,0.4755236506462097,8.568398475646973,-3.5392119884490967,-0.46494197845458984,0.15243999660015106,-1.1128119230270386,127.50000762939453,-155.70001220703125,-20.100000381469727
200112,0.6101058125495911,8.559426307678223,-3.448294162750244,-0.5411620140075684,-0.20579399168491364,-0.8765299916267395,122.70000457763672,-165.3000030517578,-15.90000057220459
200153,0.7422954440116882,8.569594383239746,-3.064884662628174,-0.7317119836807251,-0.9832379817962646,-1.1051899194717407,125.10000610351562,-165.3000030517578,-18.30000114440918
200173,1.0814424753189087,9.715636253356934,-3.502127170562744,-0.3201240003108978,-0.5335400104522705,-0.8155539631843567,122.70000457763672,-165.3000030517578,-17.700000762939453
200193,1.1532196998596191,10.247983932495117,-3.815553903579712,-0.1295740008354187,-0.5564059615135193,-1.0823240280151367,134.70001220703125,-158.10000610351562,-19.5
200217,0.5646469593048096,8.716139793395996,-3.1522135734558105,-0.7774440050125122,-2.2103798389434814,-2.233245849609375,125.10000610351562,-172.5,-21.900001525878906
200237,0.6591535806655884,8.43441390991211,-3.002079486846924,0.16768398880958557,-2.1646480560302734,-0.5868939757347107,139.5,-155.70001220703125,-21.30000114440918
200277,1.0832369327545166,9.965062141418457,-2.4392271041870117,-0.5868939757347107,-2.5076379776000977,0.457319974899292,132.3000030517578,-165.3000030517578,-23.700000762939453
200300,0.34692293405532837,9.134839057922363,-1.631734013557434,-1.1204339265823364,-1.9588539600372314,-0.28201398253440857,132.3000030517578,-160.5,-14.700000762939453
200320,0.08732887357473373,9.4913330078125,-1.8745800256729126,-0.8460419774055481,-0.9222619533538818,-0.6631140112876892,137.10000610351562,-158.10000610351562,-18.30000114440918
200340,-0.26856619119644165,9.602587699890137,-2.187408924102783,-0.739333987236023,-0.8917739987373352,-1.2804960012435913,129.90000915527344,-165.3000030517578,-21.30000114440918
200360,-0.40673720836639404,10.21927261352539,-2.4368345737457275,0.015243999660015106,-1.524399995803833,-1.4405579566955566,134.70001220703125,-155.70001220703125,-23.700000762939453
200423,-0.6071150898933411,9.5152587890625,-2.27473783493042,-0.19817200303077698,-1.4862899780273438,-0.8917739987373352,144.3000030517578,-170.10000610351562,-21.900001525878906
200453,-1.0114597082138062,9.532604217529297,-2.5445001125335693,0.015243999660015106,-1.8369019031524658,-0.46494197845458984,146.70001220703125,-167.70001220703125,-24.900001525878906
200473,-0.9857395887374878,9.249683380126953,-2.447601079940796,0.05335399881005287,-2.492393970489502,-0.8689079880714417,139.5,-158.10000610351562,-19.5
200513,-1.1699676513671875,8.94642448425293,-2.2406435012817383,0.1600620001554489,-2.7058098316192627,-1.4100699424743652,137.10000610351562,-162.90000915527344,-23.700000762939453
200537,-1.4816001653671265,9.050500869750977,-2.41111421585083,0.3582339882850647,-2.8277618885040283,-1.9740979671478271,141.90000915527344,-165.3000030517578,-21.900001525878906
200558,-1.5928547382354736,9.147998809814453,-2.4577693939208984,0.5487840175628662,-3.003067970275879,-2.2027578353881836,153.90000915527344,-158.10000610351562,-20.100000381469727
200578,-1.7932326793670654,9.06007194519043,-2.4248716831207275,0.44969800114631653,-2.8734939098358154,-2.431417942047119,144.3000030517578,-153.3000030517578,-26.700000762939453
200638,-2.24183988571167,8.981715202331543,-2.7819628715515137,0.914639949798584,-2.591480016708374,-2.080806016921997,151.5,-155.70001220703125,-26.700000762939453
200660,-2.283111810684204,8.987696647644043,-2.9320969581604004,0.967993974685669,-2.14178204536438,-1.4634239673614502,173.10000610351562,-153.3000030517578,-20.700000762939453
200680,-2.1383612155914307,9.100147247314453,-2.9105637073516846,0.7774440050125122,-2.027451992034912,-0.8689079880714417,158.70001220703125,-165.3000030517578,-21.900001525878906
200700,-2.1066596508026123,9.10194206237793,-2.831010580062866,0.33536797761917114,-1.6234859228134155,-0.5411620140075684,156.3000030517578,-160.5,-19.5
200720,-2.083332061767578,8.99906063079834,-2.9440596103668213,0.08384199440479279,-1.3490939140319824,-0.5640279650688171,151.5,-167.70001220703125,-28.500001907348633
200740,-1.9936105012893677,8.903358459472656,-2.9249191284179688,0.17530599236488342,-1.3109840154647827,-0.426831990480423,163.5,-155.70001220703125,-25.500001907348633
200760,-1.758540391921997,9.270617485046387,-2.807682991027832,0.23628199100494385,-1.1737879514694214,-0.44969800114631653,153.90000915527344,-162.90000915527344,-23.700000762939453
200783,-1.718464732170105,9.106128692626953,-2.7143728733062744,-0.05335399881005287,-0.8307979702949524,-0.8307979702949524,165.90000915527344,-160.5,-27.30000114440918
200803,-1.6580523252487183,8.936854362487793,-2.8124682903289795,0,-0.4344539940357208,-0.9451279640197754,158.70001220703125,-160.5,-21.900001525878906
200824,-1.729231357574463,8.852516174316406,-2.8657028675079346,0.18292799592018127,-0.19817200303077698,-0.967993974685669,165.90000915527344,-150.90000915527344,-28.500001907348633
200844,-1.63532292842865,8.887207984924316,-2.965592861175537,0.28201398253440857,-0.228659987449646,-0.685979962348938,158.70001220703125,-155.70001220703125,-24.30000114440918
200864,-1.5856770277023315,9.108521461486816,-2.9709761142730713,0.22103799879550934,-0.13719600439071655,-0.5792719721794128,153.90000915527344,-153.3000030517578,-17.100000381469727
200884,-1.60541570186615,9.186279296875,-2.962602138519287,-0.20579399168491364,0.060975998640060425,-0.685979962348938,158.70001220703125,-155.70001220703125,-20.700000762939453
200904,-1.4373375177383423,9.25626277923584,-2.9943037033081055,-0.28201398253440857,0.18292799592018127,-0.6783579587936401,165.90000915527344,-155.70001220703125,-26.700000762939453
200925,-1.5659383535385132,9.049304962158203,-2.9344894886016846,-0.457319974899292,0.3048799932003021,-0.739333987236023,168.3000030517578,-162.90000915527344,-19.5
200945,-1.5737141370773315,8.92249870300293,-2.953629970550537,-0.38109999895095825,0.33536797761917114,-0.6707359552383423,156.3000030517578,-160.5,-21.900001525878906
200967,-1.296773910522461,9.272412300109863,-2.811271905899048,-0.17530599236488342,0.36585599184036255,-0.5945159792900085,153.90000915527344,-150.90000915527344,-25.500001907348633
200987,-1.102975606918335,9.262842178344727,-2.7699999809265137,-0.3734779953956604,0.5868939757347107,-0.6478700041770935,161.10000610351562,-155.70001220703125,-20.100000381469727
201009,-1.2243986129760742,8.996668815612793,-2.851945638656616,-0.4878079891204834,0.8993960022926331,-0.41158798336982727,168.3000030517578,-155.70001220703125,-22.5
201029,-1.3715418577194214,8.762794494628906,-2.9996869564056396,-0.28201398253440857,0.8841519951820374,-0.114329993724823,168.3000030517578,-148.5,-20.100000381469727
201049,-1.24593186378479,9.229944229125977,-2.8980026245117188,0.08384199440479279,0.4420759975910187,0.060975998640060425,170.70001220703125,-143.70001220703125,-17.700000762939453
201071,-1.0946016311645508,9.435107231140137,-2.7975146770477295,-0.16768398880958557,0.49542999267578125,-0.46494197845458984,170.70001220703125,-148.5,-14.100000381469727
201091,-1.2561002969741821,8.994874000549316,-2.850151300430298,-0.457319974899292,0.571649968624115,-0.8307979702949524,161.10000610351562,-148.5,-24.30000114440918
201113,-1.3135219812393188,8.800477981567383,-2.894413948059082,-0.2591480016708374,0.457319974899292,-0.9375059604644775,161.10000610351562,-155.70001220703125,-23.100000381469727
201133,-1.2943813800811768,8.810646057128906,-2.9231247901916504,-0.08384199440479279,0.2743920087814331,-0.7164679765701294,165.90000915527344,-150.90000915527344,-22.5
201173,-1.411617398262024,9.025379180908203,-3.2186074256896973,0.26677000522613525,-0.10670799762010574,-0.685979962348938,168.3000030517578,-148.5,-23.100000381469727
201197,-1.406832218170166,9.139026641845703,-3.0391645431518555,0.13719600439071655,-0.5182960033416748,-0.7240899801254272,175.5,-153.3000030517578,-20.700000762939453
201217,-1.5013388395309448,9.1802978515625,-3.076847553253174,0.10670799762010574,-0.5487840175628662,-0.7545779943466187,177.90000915527344,-155.70001220703125,-29.100000381469727
201237,-1.622761845588684,9.137829780578613,-3.112137794494629,0.08384199440479279,-0.510673999786377,-0.967993974685669,165.90000915527344,-146.10000610351562,-26.100000381469727
201258,-1.8261305093765259,9.044519424438477,-3.127091407775879,0,-0.3734779953956604,-1.0442140102386475,177.90000915527344,-148.5,-27.30000114440918
201278,-2.0103585720062256,8.80586051940918,-3.1635782718658447,-0.030487999320030212,-0.25152599811553955,-1.2118979692459106,175.5,-150.90000915527344,-15.300000190734863
201298,-2.026508331298828,8.673072814941406,-3.1916909217834473,0.17530599236488342,-0.2591480016708374,-1.0518360137939453,165.90000915527344,-148.5,-25.500001907348633
201318,-1.9026927947998047,9.009827613830566,-3.0714640617370605,0.07621999830007553,-0.3277460038661957,-0.571649968624115,170.70001220703125,-138.90000915527344,-23.100000381469727
201358,-1.8339062929153442,8.842347145080566,-3.0068647861480713,-0.26677000522613525,0.09908600151538849,-0.39634400606155396,177.90000915527344,-143.70001220703125,-31.500001907348633
201379,-1.748371958732605,8.889002799987793,-2.914750814437866,-0.342989981174469,0.39634400606155396,-0.4344539940357208,173.10000610351562,-148.5,-24.900001525878906
201399,-1.7088944911956787,9.00025749206543,-2.9099655151367188,-0.4039659798145294,0.7012239694595337,-0.44969800114631653,170.70001220703125,-150.90000915527344,-21.30000114440918
201419,-1.7591384649276733,9.086389541625977,-2.981144666671753,-0.46494197845458984,0.9756159782409668,-0.5411620140075684,153.90000915527344,-126.9000015258789,-19.5
201439,-1.9505442380905151,8.873451232910156,-2.986527919769287,-0.5182960033416748,1.0975680351257324,-0.5487840175628662,163.5,-150.90000915527344,-23.100000381469727
201463,-2.086920738220215,8.911133766174316,-2.995500087738037,-0.28201398253440857,1.0594580173492432,-0.4420759975910187,175.5,-146.10000610351562,-20.100000381469727
201483,-2.1748478412628174,8.864479064941406,-3.025407075881958,-0.3201240003108978,1.0518360137939453,-0.4725639820098877,173.10000610351562,-150.90000915527344,-24.900001525878906
201503,-2.22688627243042,8.927284240722656,-3.103165626525879,-0.19817200303077698,1.0365920066833496,-0.35061198472976685,170.70001220703125,-153.3000030517578,-15.90000057220459
201523,-2.19996976852417,8.834571838378906,-3.0475385189056396,-0.2972579896450043,0.9756159782409668,-0.2896359860897064,180.3000030517578,-146.10000610351562,-20.700000762939453
201545,-2.170062780380249,8.66350269317627,-2.9440596103668213,-0.3734779953956604,0.967993974685669,-0.060975998640060425,182.70001220703125,-153.3000030517578,-18.900001525878906
201565,-2.2155215740203857,8.59471607208252,-3.0002851486206055,-0.2896359860897064,1.067080020904541,0.2972579896450043,170.70001220703125,-155.70001220703125,-27.900001525878906
201585,-2.2573916912078857,8.87285327911377,-3.070267915725708,-0.3201240003108978,1.0442140102386475,0.5030519962310791,165.90000915527344,-148.5,-22.5
201608,-2.3004579544067383,8.79808521270752,-2.9584150314331055,-0.342989981174469,0.9070180058479309,0.3887220025062561,175.5,-158.10000610351562,-20.100000381469727
201628,-2.2884950637817383,8.862086296081543,-2.9919111728668213,-0.2972579896450043,0.8841519951820374,0.2591480016708374,170.70001220703125,-148.5,-25.500001907348633
201649,-2.2544009685516357,9.04511833190918,-2.968583583831787,-0.2134159952402115,0.8917739987373352,0.2591480016708374,168.3000030517578,-150.90000915527344,-23.700000762939453
201669,-2.352496385574341,9.18747615814209,-3.058903217315674,-0.1600620001554489,0.9527499675750732,0.12195199728012085,156.3000030517578,-146.10000610351562,-26.700000762939453
201690,-2.500835657119751,9.054688453674316,-3.174942970275879,-0.08384199440479279,0.9070180058479309,0.02286599949002266,163.5,-138.90000915527344,-21.30000114440918
201711,-2.552276134490967,8.896778106689453,-3.1019694805145264,0.18292799592018127,0.5868939757347107,0.015243999660015106,187.5,-150.90000915527344,-25.500001907348633
201771,-2.44102144241333,8.818421363830566,-3.064286470413208,-0.015243999660015106,0.6554920077323914,0.5487840175628662,189.90000915527344,-160.5,-20.700000762939453
201829,-2.0576117038726807,8.71135425567627,-2.841179132461548,0.007621999830007553,0.5792719721794128,1.189031958580017,175.5,-160.5,-21.30000114440918
201849,-1.8488599061965942,9.00324821472168,-2.724541187286377,-0.19817200303077698,0.853663980960846,0.8841519951820374,156.3000030517578,-153.3000030517578,-12.300000190734863
201889,-1.5647419691085815,8.963770866394043,-2.839982748031616,-0.15243999660015106,1.2118979692459106,0.3125019967556,165.90000915527344,-150.90000915527344,-24.30000114440918
201909,-1.0096653699874878,9.358545303344727,-2.7735888957977295,-0.09908600151538849,1.3643379211425781,0.3734779953956604,163.5,-150.90000915527344,-20.100000381469727
201930,-0.7506694197654724,9.835265159606934,-2.9697799682617188,-0.18292799592018127,1.6920839548110962,0.09146399796009064,165.90000915527344,-148.5,-25.500001907348633
201950,-0.7733988761901855,9.505687713623047,-3.204252004623413,-0.2896359860897064,1.707327961921692,-0.5487840175628662,180.3000030517578,-158.10000610351562,-17.700000762939453
201970,-0.5132066607475281,9.591222763061523,-3.404031753540039,-0.09908600151538849,1.653973937034607,-0.3887220025062561,163.5,-153.3000030517578,-20.100000381469727
201993,-0.37862449884414673,9.179699897766113,-3.4447054862976074,-0.342989981174469,1.5015339851379395,-0.33536797761917114,168.3000030517578,-162.90000915527344,-26.100000381469727
202013,-0.43664437532424927,8.394338607788086,-3.3992464542388916,-0.426831990480423,1.5929979085922241,-0.12195199728012085,161.10000610351562,-148.5,-22.5
202033,-0.602928102016449,8.483461380004883,-3.6881494522094727,-0.2743920087814331,1.707327961921692,0.5487840175628662,180.3000030517578,-148.5,-20.100000381469727
202053,-1.137069821357727,8.560622215270996,-3.972865581512451,-0.685979962348938,1.9054999351501465,0.5945159792900085,165.90000915527344,-146.10000610351562,-22.5
202095,-1.5360311269760132,8.4415922164917,-3.8974995613098145,-1.4634239673614502,0.9603719711303711,-0.08384199440479279,158.70001220703125,-141.3000030517578,-23.700000762939453
202135,-1.4666465520858765,9.074426651000977,-4.369434356689453,-0.23628199100494385,1.1509219408035278,0.6097599864006042,170.70001220703125,-150.90000915527344,-16.5
202155,-1.833308219909668,8.921900749206543,-4.298853397369385,-0.5411620140075684,0.8231759667396545,-0.09908600151538849,168.3000030517578,-155.70001220703125,-14.100000381469727
202175,-2.048041582107544,8.85789966583252,-4.31440544128418,-0.2439039945602417,0.7926880121231079,-0.17530599236488342,161.10000610351562,-148.5,-14.700000762939453
202195,-2.3381409645080566,8.82380485534668,-4.3502936363220215,-0.2972579896450043,0.9984819889068604,-0.4039659798145294,168.3000030517578,-150.90000915527344,-21.900001525878906
202215,-2.3004579544067383,8.914124488830566,-4.394556522369385,-0.09908600151538849,0.8765299916267395,0.030487999320030212,165.90000915527344,-150.90000915527344,-18.30000114440918
202239,-1.8297193050384521,9.482958793640137,-3.7090845108032227,-0.8231759667396545,0.5182960033416748,0.7621999979019165,161.10000610351562,-153.3000030517578,-16.5
202259,-1.8111768960952759,9.124073028564453,-3.5816800594329834,-1.5396440029144287,1.1814099550247192,1.1661659479141235,158.70001220703125,-150.90000915527344,-18.900001525878906
202279,-1.7059037685394287,8.599501609802246,-3.2592811584472656,-2.1570260524749756,0.8765299916267395,1.9664759635925293,158.70001220703125,-134.10000610351562,-15.90000057220459
202300,-1.4391319751739502,8.612062454223633,-3.048734664916992,-2.187514066696167,1.1280559301376343,2.8125178813934326,163.5,-143.70001220703125,-24.30000114440918
202320,-1.1346771717071533,8.405104637145996,-3.0092573165893555,-2.2180018424987793,0.8384199738502502,3.1173980236053467,168.3000030517578,-143.70001220703125,-32.10000228881836
202340,-0.8164651393890381,7.917618274688721,-2.6659231185913086,-2.2180018424987793,0.18292799592018127,3.3231918811798096,149.10000610351562,-150.90000915527344,-22.5
202360,-0.6711164116859436,7.946329593658447,-2.6994192600250244,-1.6692179441452026,0.5564059615135193,3.704291820526123,149.10000610351562,-160.5,-21.30000114440918
202400,-0.706406831741333,8.382973670959473,-3.314310312271118,-0.8612859845161438,-0.19054999947547913,2.7286758422851562,141.90000915527344,-155.70001220703125,-17.700000762939453
202429,-0.7201641201972961,8.234036445617676,-3.5398101806640625,-0.48018598556518555,-0.5335400104522705,2.179892063140869,146.70001220703125,-158.10000610351562,-21.30000114440918
202449,-0.699827253818512,8.240615844726562,-3.762319326400757,-0.2591480016708374,-0.6936019659042358,2.1112940311431885,134.70001220703125,-160.5,-18.900001525878906
202489,-0.7775858640670776,7.883524417877197,-3.934584379196167,-0.18292799592018127,-1.3795819282531738,1.4634239673614502,125.10000610351562,-153.3000030517578,-20.700000762939453
202509,-0.6274519562721252,7.964871883392334,-4.133167743682861,0.04573199898004532,-1.4100699424743652,1.5548880100250244,122.70000457763672,-153.3000030517578,-26.100000381469727
202529,-0.3546987771987915,8.75202751159668,-4.209132194519043,0.114329993724823,-1.8140360116958618,1.577754020690918,134.70001220703125,-162.90000915527344,-18.900001525878906
202549,-0.15073202550411224,9.09775447845459,-4.112831115722656,-0.26677000522613525,-1.9588539600372314,1.1814099550247192,127.50000762939453,-167.70001220703125,-23.100000381469727
202569,0.015551717020571232,9.459033012390137,-3.8849387168884277,-0.510673999786377,-2.073184013366699,1.0061039924621582,125.10000610351562,-167.70001220703125,-24.30000114440918
202589,0.04665515199303627,9.605578422546387,-3.642690658569336,-0.8231759667396545,-1.7911700010299683,0.5335400104522705,144.3000030517578,-162.90000915527344,-15.90000057220459
202609,-0.050244010984897614,9.472789764404297,-3.3155064582824707,-0.914639949798584,-1.8673899173736572,0.457319974899292,122.70000457763672,-160.5,-27.900001525878906
202629,-0.18004103004932404,9.20721435546875,-2.7281301021575928,-1.1585439443588257,-2.088428020477295,0.7012239694595337,129.90000915527344,-153.3000030517578,-21.30000114440918
202649,-0.04785143584012985,9.578063011169434,-2.235260248184204,-1.0975680351257324,-1.7683039903640747,1.3643379211425781,122.70000457763672,-155.70001220703125,-18.900001525878906
202669,0.11245087534189224,10.378378868103027,-1.9828439950942993,-1.3033620119094849,-1.0975680351257324,1.417691946029663,129.90000915527344,-165.3000030517578,-20.700000762939453
202690,0.24404233694076538,10.253366470336914,-2.0456490516662598,-1.1051899194717407,-0.3582339882850647,1.1356779336929321,129.90000915527344,-160.5,-26.700000762939453
202710,0.3134269118309021,10.527316093444824,-2.065387725830078,-1.0061039924621582,-0.5868939757347107,1.4329359531402588,127.50000762939453,-153.3000030517578,-27.30000114440918
202731,0.27574390172958374,10.475875854492188,-1.6670244932174683,-1.1814099550247192,-1.013725996017456,1.295740008354187,129.90000915527344,-162.90000915527344,-25.500001907348633
202751,0.5455064177513123,11.039924621582031,-1.7776808738708496,-0.8307979702949524,-0.6478700041770935,1.417691946029663,129.90000915527344,-174.90000915527344,-26.700000762939453
202771,0.9761693477630615,11.757098197937012,-1.4851889610290527,-1.2271419763565063,-1.3567159175872803,0.9451279640197754,96.30000305175781,-162.90000915527344,-20.100000381469727
202791,0.6340315341949463,10.468698501586914,-1.3033535480499268,-0.9222619533538818,-0.5792719721794128,-0.15243999660015106,122.70000457763672,-172.5,-29.100000381469727
202811,0.42468151450157166,10.189963340759277,-1.2333707809448242,-0.6173819899559021,-0.5487840175628662,-0.09908600151538849,132.3000030517578,-165.3000030517578,-24.900001525878906
202834,0.14654502272605896,9.50808048248291,-0.9289160370826721,-0.9984819889068604,-0.2439039945602417,-0.3048799932003021,127.50000762939453,-160.5,-18.900001525878906
202875,-0.12680630385875702,9.05409049987793,-1.4875816106796265,-0.228659987449646,0.35061198472976685,0.2439039945602417,120.30000305175781,-148.5,-27.30000114440918
202915,0.03588857874274254,8.79210376739502,-1.2878018617630005,-0.4039659798145294,0.2134159952402115,1.5929979085922241,125.10000610351562,-170.10000610351562,-28.500001907348633
202936,0.2763420641422272,8.719130516052246,-1.433748722076416,-0.5335400104522705,0.4725639820098877,2.2713558673858643,120.30000305175781,-162.90000915527344,-27.900001525878906
202976,0.7817728519439697,9.21738338470459,-1.5192831754684448,-0.22103799879550934,0.20579399168491364,2.7058098316192627,105.9000015258789,-162.90000915527344,-22.5
202998,1.0383762121200562,9.429723739624023,-1.4917685985565186,-0.13719600439071655,0.05335399881005287,2.1722700595855713,98.70000457763672,-179.70001220703125,-24.30000114440918
203018,1.323690414428711,9.295740127563477,-1.3930749893188477,-0.20579399168491364,0.228659987449646,1.7606819868087769,105.9000015258789,-165.3000030517578,-29.100000381469727
203083,1.4152063131332397,9.363927841186523,-1.4989463090896606,0.06859800219535828,1.6158639192581177,1.3186060190200806,105.9000015258789,-174.90000915527344,-26.100000381469727
203103,1.335653305053711,9.185681343078613,-1.4720298051834106,0.007621999830007553,1.8140360116958618,1.1356779336929321,103.50000762939453,-174.90000915527344,-20.700000762939453
203123,1.3344569206237793,8.99307918548584,-1.3835047483444214,-0.08384199440479279,2.0045859813690186,1.1356779336929321,108.30000305175781,-153.3000030517578,-18.30000114440918
203143,1.3769251108169556,9.114502906799316,-1.429561734199524,-0.1448179930448532,2.2713558673858643,1.1280559301376343,93.9000015258789,-153.3000030517578,-30.900001525878906
203163,1.3613734245300293,9.13065242767334,-1.332662582397461,-0.3887220025062561,2.3551979064941406,0.8765299916267395,103.50000762939453,-167.70001220703125,-18.900001525878906
203187,1.6915483474731445,9.391443252563477,-1.4451134204864502,-0.36585599184036255,2.5076379776000977,0.6021379828453064,113.10000610351562,-165.3000030517578,-25.500001907348633
203207,1.9930124282836914,9.731785774230957,-1.5360311269760132,-0.38109999895095825,2.637212038040161,0.4420759975910187,101.10000610351562,-165.3000030517578,-23.100000381469727
203227,2.2609803676605225,10.055381774902344,-1.7100907564163208,-0.3125019967556,2.9268479347229004,0.510673999786377,93.9000015258789,-177.3000030517578,-24.900001525878906
203269,2.032489776611328,8.906349182128906,-2.0486397743225098,-0.426831990480423,2.835383892059326,0.36585599184036255,89.10000610351562,-170.10000610351562,-24.30000114440918
203289,1.6969316005706787,8.60189437866211,-2.21193265914917,-0.6631140112876892,3.109776020050049,0.5030519962310791,105.9000015258789,-162.90000915527344,-26.100000381469727
203309,1.637715458869934,8.676661491394043,-2.6222589015960693,-0.6250039935112,3.254593849182129,0.9298839569091797,103.50000762939453,-177.3000030517578,-19.5
203329,1.746577501296997,9.272412300109863,-2.7030081748962402,-0.7698220014572144,2.736297845840454,0.7088459730148315,98.70000457763672,-172.5,-24.30000114440918
203349,1.8751782178878784,9.385461807250977,-2.8567309379577637,-0.967993974685669,2.850627899169922,0.19054999947547913,81.9000015258789,-170.10000610351562,-24.30000114440918
203369,1.6957353353500366,9.111512184143066,-3.144437551498413,-1.0442140102386475,2.8277618885040283,-0.2134159952402115,72.30000305175781,-170.10000610351562,-28.500001907348633
203389,1.6401079893112183,8.99606990814209,-3.3065342903137207,-0.6326259970664978,2.789651870727539,-0.09146399796009064,101.10000610351562,-167.70001220703125,-26.100000381469727
203413,2.5821831226348877,10.426828384399414,-3.6103909015655518,-0.04573199898004532,1.9740979671478271,0.39634400606155396,91.5,-160.5,-20.700000762939453
203433,1.716670274734497,8.699989318847656,-3.1761391162872314,-0.7545779943466187,1.5396440029144287,-0.3277460038661957,81.9000015258789,-167.70001220703125,-26.700000762939453
203453,1.7711013555526733,9.237720489501953,-3.8819479942321777,0.7469559907913208,1.9512319564819336,0.7469559907913208,86.70000457763672,-170.10000610351562,-25.500001907348633
203473,1.4283654689788818,9.237720489501953,-4.15888786315918,1.0518360137939453,0.8079319596290588,0.3887220025062561,86.70000457763672,-170.10000610351562,-21.30000114440918
203493,1.2596890926361084,8.884217262268066,-3.9543232917785645,1.2804960012435913,-0.18292799592018127,0.02286599949002266,91.5,-177.3000030517578,-18.900001525878906
203513,1.2704557180404663,8.731691360473633,-3.9208271503448486,1.4862899780273438,-0.4039659798145294,-0.49542999267578125,91.5,-172.5,-26.700000762939453
203575,1.8566358089447021,8.792701721191406,-3.6325223445892334,-0.4420759975910187,0.5030519962310791,0.7545779943466187,79.5,-165.3000030517578,-23.700000762939453
203595,1.8680005073547363,8.584547996520996,-3.5308380126953125,-1.2042759656906128,1.1280559301376343,1.0747020244598389,74.70000457763672,-170.10000610351562,-20.700000762939453
203635,2.163483142852783,8.497817039489746,-3.368143081665039,-1.5548880100250244,1.3490939140319824,1.196653962135315,91.5,-172.5,-21.900001525878906
203658,2.369842529296875,8.491835594177246,-3.3519933223724365,-1.371959924697876,1.1737879514694214,1.196653962135315,77.10000610351562,-165.3000030517578,-24.900001525878906
203679,2.435638189315796,8.695802688598633,-3.3902742862701416,-1.1509219408035278,0.7698220014572144,1.0518360137939453,89.10000610351562,-167.70001220703125,-26.100000381469727
203699,2.4990413188934326,8.649147033691406,-3.3962557315826416,-1.0061039924621582,0.19054999947547913,0.7088459730148315,84.30000305175781,-165.3000030517578,-23.700000762939453
203719,2.480498790740967,8.30102825164795,-3.2407386302948,-0.8307979702949524,-0.3887220025062561,0.25152599811553955,91.5,-179.70001220703125,-26.700000762939453
203779,2.9069747924804688,8.30102825164795,-2.9853315353393555,-1.4100699424743652,-0.9070180058479309,0.8993960022926331,89.10000610351562,-172.5,-27.900001525878906
203873,2.802299737930298,9.218579292297363,-2.456573247909546,-1.2576299905776978,-0.5792719721794128,0.7240899801254272,81.9000015258789,-170.10000610351562,-27.30000114440918
203893,3.1402506828308105,10.666683197021484,-2.6431937217712402,-1.0823240280151367,-1.0594580173492432,0.9603719711303711,65.10000610351562,-167.70001220703125,-29.100000381469727
203933,1.83450448513031,8.875245094299316,-1.1777435541152954,-1.3567159175872803,-1.8902559280395508,0.457319974899292,62.70000076293945,-165.3000030517578,-26.100000381469727
203976,1.5761067867279053,8.79210376739502,-0.8463723063468933,-1.6082419157028198,-1.829279899597168,0.6250039935112,74.70000457763672,-170.10000610351562,-26.700000762939453
204071,1.6490801572799683,9.81193733215332,-0.3852040767669678,-0.9908599853515625,-1.1737879514694214,-0.22103799879550934,55.500003814697266,-174.90000915527344,-27.30000114440918
204106,1.2949795722961426,9.850218772888184,-0.721360445022583,-0.685979962348938,-1.0442140102386475,-1.067080020904541,62.70000076293945,-179.70001220703125,-28.500001907348633
204126,1.1053682565689087,9.721019744873047,-0.8385964632034302,-0.17530599236488342,-1.3033620119094849,-1.6158639192581177,60.30000305175781,-172.5,-27.900001525878906
204166,1.2830166816711426,9.297533988952637,-0.7554545998573303,0.2134159952402115,-1.3567159175872803,-1.4329359531402588,77.10000610351562,-177.3000030517578,-29.100000381469727
204187,1.4666465520858765,9.414770126342773,-0.8074930310249329,0.38109999895095825,-0.9603719711303711,-0.6554920077323914,79.5,-172.5,-29.100000381469727
204227,1.59943425655365,9.168335914611816,-0.8415871858596802,0.12195199728012085,-0.19054999947547913,0.33536797761917114,79.5,-174.90000915527344,-26.100000381469727
204247,1.7860549688339233,9.536791801452637,-1.0066746473312378,0.08384199440479279,0.23628199100494385,0.5030519962310791,74.70000457763672,-167.70001220703125,-32.10000228881836
204271,1.8709912300109863,9.664793968200684,-1.1496307849884033,-0.09146399796009064,0.5259180068969727,0.17530599236488342,74.70000457763672,-158.10000610351562,-24.30000114440918
204291,1.722651720046997,9.30710506439209,-1.0365817546844482,-0.2972579896450043,0.5182960033416748,-0.2743920087814331,79.5,-182.10000610351562,-23.100000381469727
204314,1.705305576324463,9.141419410705566,-1.004281997680664,-0.20579399168491364,0.6478700041770935,-0.4039659798145294,77.10000610351562,-174.90000915527344,-28.500001907348633
204334,1.520479440689087,8.927882194519043,-1.0987886190414429,-0.16768398880958557,0.8993960022926331,-0.5868939757347107,69.9000015258789,-167.70001220703125,-29.700000762939453
204354,1.524666428565979,9.239514350891113,-1.2806241512298584,0.05335399881005287,0.9908599853515625,-0.6326259970664978,67.5,-172.5,-21.30000114440918
204374,1.7106889486312866,9.581053733825684,-1.534834861755371,0.02286599949002266,0.9603719711303711,-0.8689079880714417,84.30000305175781,-174.90000915527344,-30.30000114440918
204394,1.6544634103775024,9.159961700439453,-1.4391319751739502,-0.1448179930448532,0.9908599853515625,-0.9222619533538818,72.30000305175781,-170.10000610351562,-26.100000381469727
204414,1.7854567766189575,9.111512184143066,-1.613789677619934,0.16768398880958557,1.0747020244598389,-0.38109999895095825,69.9000015258789,-170.10000610351562,-24.30000114440918
204474,2.1006782054901123,9.394433975219727,-1.9116649627685547,0.3125019967556,0.6936019659042358,0.5182960033416748,77.10000610351562,-172.5,-27.30000114440918
204514,1.9966012239456177,8.980518341064453,-2.0725653171539307,0.3201240003108978,0.6631140112876892,0.33536797761917114,81.9000015258789,-174.90000915527344,-29.700000762939453
204554,1.9397776126861572,9.09177303314209,-2.1796329021453857,0.48018598556518555,0.5030519962310791,0.06859800219535828,72.30000305175781,-174.90000915527344,-31.500001907348633
204589,1.8865429162979126,9.147998809814453,-2.324383497238159,0.4725639820098877,0.7164679765701294,-0.6250039935112,67.5,-172.5,-24.30000114440918
204650,1.9912179708480835,9.165345191955566,-2.5349299907684326,0.510673999786377,1.013725996017456,-0.46494197845458984,60.30000305175781,-170.10000610351562,-25.500001907348633
204670,1.8871411085128784,9.082202911376953,-2.723942995071411,0.2591480016708374,1.0975680351257324,-0.3887220025062561,77.10000610351562,-172.5,-22.5
204691,1.8991038799285889,9.195850372314453,-2.760429859161377,0.3277460038661957,0.685979962348938,-0.16768398880958557,86.70000457763672,-174.90000915527344,-36.30000305175781
204712,1.9086742401123047,9.22934627532959,-2.7000174522399902,0.18292799592018127,0.5182960033416748,-0.2134159952402115,60.30000305175781,-179.70001220703125,-29.700000762939453
204732,1.8560376167297363,9.161755561828613,-2.6671195030212402,0.06859800219535828,0.5792719721794128,-0.17530599236488342,74.70000457763672,-160.5,-27.30000114440918
204792,1.6801836490631104,9.00324821472168,-2.649773359298706,-0.007621999830007553,0.3887220025062561,-0.46494197845458984,67.5,-179.70001220703125,-22.5
205012,1.520479440689087,9.2879638671875,-2.2484195232391357,-0.05335399881005287,-0.09908600151538849,-0.2591480016708374,74.70000457763672,-172.5,-23.100000381469727
205032,1.5019370317459106,9.171924591064453,-2.2197086811065674,-0.10670799762010574,-0.26677000522613525,-0.25152599811553955,72.30000305175781,-165.3000030517578,-21.900001525878906
205072,1.624556303024292,9.141419410705566,-2.2364566326141357,-0.2972579896450043,-0.38109999895095825,0.05335399881005287,77.10000610351562,-172.5,-17.100000381469727
205129,1.715474009513855,9.174915313720703,-2.244232416152954,-0.3887220025062561,-0.19054999947547913,0.015243999660015106,79.5,-170.10000610351562,-22.5
205150,1.741194248199463,9.05887508392334,-2.241241693496704,-0.35061198472976685,-0.18292799592018127,-0.09146399796009064,72.30000305175781,-172.5,-27.900001525878906
205190,1.7699050903320312,9.07801628112793,-2.268158197402954,-0.342989981174469,-0.060975998640060425,-0.22103799879550934,74.70000457763672,-155.70001220703125,-21.900001525878906
205230,1.9355906248092651,9.354955673217773,-2.2735414505004883,-0.1448179930448532,-0.12195199728012085,-0.17530599236488342,86.70000457763672,-179.70001220703125,-24.30000114440918
205491,1.4421226978302002,9.156970977783203,-2.3626646995544434,0.038109999150037766,0.510673999786377,-0.38109999895095825,84.30000305175781,-177.3000030517578,-23.700000762939453
205511,1.4313560724258423,9.17252254486084,-2.348309278488159,0,0.4344539940357208,-0.38109999895095825,79.5,-182.10000610351562,-23.700000762939453
205553,1.4833946228027344,9.18328857421875,-2.3178040981292725,-0.08384199440479279,0.3582339882850647,-0.4344539940357208,89.10000610351562,-165.3000030517578,-19.5
205595,1.5593587160110474,9.20721435546875,-2.2693543434143066,-0.18292799592018127,0.48018598556518555,-0.10670799762010574,74.70000457763672,-170.10000610351562,-20.700000762939453
205669,1.5623494386672974,9.21439266204834,-2.2795228958129883,-0.342989981174469,0.4344539940357208,0.030487999320030212,86.70000457763672,-167.70001220703125,-25.500001907348633
205689,1.5731160640716553,9.219776153564453,-2.2514102458953857,-0.3277460038661957,0.3201240003108978,0.007621999830007553,89.10000610351562,-170.10000610351562,-24.900001525878906
205732,1.4672447443008423,9.186279296875,-2.26277494430542,-0.36585599184036255,-0.038109999150037766,0,86.70000457763672,-167.70001220703125,-30.900001525878906
205772,1.5091147422790527,9.234729766845703,-2.2520081996917725,-0.35061198472976685,-0.28201398253440857,0.05335399881005287,77.10000610351562,-184.5,-24.30000114440918
205812,1.538423776626587,9.230542182922363,-2.2454288005828857,-0.35061198472976685,-0.457319974899292,0.114329993724823,81.9000015258789,-172.5,-24.900001525878906
205851,1.6311359405517578,9.153980255126953,-2.235260248184204,-0.5487840175628662,-0.3582339882850647,0.20579399168491364,86.70000457763672,-170.10000610351562,-26.100000381469727
205871,1.6688188314437866,9.141419410705566,-2.23585844039917,-0.4420759975910187,-0.39634400606155396,0.3582339882850647,81.9000015258789,-167.70001220703125,-23.100000381469727
205913,1.8440747261047363,9.230542182922363,-2.1826236248016357,-0.4725639820098877,-0.342989981174469,0.3201240003108978,79.5,-170.10000610351562,-28.500001907348633
205933,1.9068797826766968,9.28617000579834,-2.152716636657715,-0.4344539940357208,-0.342989981174469,0.25152599811553955,81.9000015258789,-189.3000030517578,-27.30000114440918
205953,1.9989937543869019,9.198841094970703,-2.1323797702789307,-0.5182960033416748,-0.3734779953956604,0.15243999660015106,86.70000457763672,-162.90000915527344,-27.900001525878906
205973,2.158099889755249,9.16055965423584,-2.0528266429901123,-0.49542999267578125,-0.39634400606155396,0.19054999947547913,65.10000610351562,-167.70001220703125,-22.5
206036,2.47391939163208,9.232934951782227,-1.9696848392486572,-0.44969800114631653,-0.2439039945602417,0.09908600151538849,72.30000305175781,-179.70001220703125,-32.70000076293945
206056,2.6073052883148193,9.49432373046875,-2.0169382095336914,-0.20579399168491364,-0.3125019967556,-0.08384199440479279,67.5,-170.10000610351562,-25.500001907348633
206076,2.6270439624786377,9.347180366516113,-1.9702829122543335,-0.3125019967556,-0.38109999895095825,-0.39634400606155396,79.5,-167.70001220703125,-20.700000762939453
206099,2.7741870880126953,8.947022438049316,-1.7998121976852417,-0.15243999660015106,-0.4420759975910187,-0.457319974899292,74.70000457763672,-162.90000915527344,-21.900001525878906
206181,2.0701727867126465,7.936161041259766,-1.527657151222229,-0.20579399168491364,-0.1600620001554489,-1.2728739976882935,84.30000305175781,-174.90000915527344,-23.100000381469727
206269,-0.03708486258983612,4.903575897216797,-0.9109717607498169,-1.646351933479309,1.4405579566955566,3.452765941619873,72.30000305175781,-174.90000915527344,-25.500001907348633
206289,-0.5700302720069885,5.772677898406982,-1.2842129468917847,-1.9436099529266357,3.0792880058288574,4.8018598556518555,81.9000015258789,-172.5,-23.100000381469727
206329,1.5808918476104736,14.011499404907227,-3.6767847537994385,-2.6219680309295654,5.320156097412109,9.207375526428223,55.500003814697266,-170.10000610351562,-27.30000114440918
206352,2.5624444484710693,17.400577545166016,-4.443603992462158,-0.41158798336982727,5.876561641693115,7.78206205368042,48.30000305175781,-174.90000915527344,-27.30000114440918
206372,5.266050815582275,19.599349975585938,-6.120198726654053,1.8445239067077637,6.2729058265686035,6.471077919006348,48.30000305175781,-182.10000610351562,-26.100000381469727
206392,7.800382614135742,19.588584899902344,-6.89479398727417,2.3551979064941406,3.0792880058288574,5.129605770111084,33.900001525878906,-174.90000915527344,-22.5
206414,8.213699340820312,19.599349975585938,-6.4336256980896,-0.18292799592018127,-1.707327961921692,0.6173819899559021,24.30000114440918,-174.90000915527344,-23.700000762939453
206434,6.830194473266602,19.599349975585938,-5.215806484222412,0.4725639820098877,-3.0106899738311768,-5.7164998054504395,48.30000305175781,-172.5,-31.500001907348633
206454,4.564428806304932,17.90481185913086,-4.252198219299316,-1.0899460315704346,-2.995445966720581,-7.492425918579102,41.10000228881836,-177.3000030517578,-26.700000762939453
206514,-1.6490801572799683,0.2895011901855469,-0.7919412851333618,0.060975998640060425,-2.278977870941162,-8.445176124572754,84.30000305175781,-165.3000030517578,-23.100000381469727
206534,-1.5868732929229736,-0.9947117567062378,0.24404233694076538,-1.3262280225753784,-1.9740979671478271,-2.187514066696167,79.5,-167.70001220703125,-29.700000762939453
206557,-0.1178341656923294,-0.17047074437141418,0.37563377618789673,0.3201240003108978,-0.19054999947547913,2.9802019596099854,81.9000015258789,-165.3000030517578,-29.700000762939453
206577,0.5401231050491333,1.1867156028747559,0.12022674083709717,0.5182960033416748,1.067080020904541,4.9542999267578125,74.70000457763672,-167.70001220703125,-27.900001525878906
206639,-0.6412092447280884,-0.512608528137207,0.18781688809394836,-0.6173819899559021,1.2042759656906128,2.8582499027252197,55.500003814697266,-174.90000915527344,-24.30000114440918
206659,-0.6890606880187988,-0.2368646115064621,0.20037789642810822,-0.5564059615135193,1.0975680351257324,2.743919849395752,57.900001525878906,-172.5,-28.500001907348633
206683,-0.5760116577148438,-0.3355582058429718,0.26557546854019165,-0.7926880121231079,0.8612859845161438,1.9969639778137207,67.5,-186.90000915527344,-22.5
206705,-0.13577845692634583,-0.596946656703949,0.802707850933075,-1.196653962135315,0.426831990480423,2.530503988265991,41.10000228881836,-179.70001220703125,-28.500001907348633
206746,1.6694170236587524,3.800002336502075,-0.15252645313739777,-0.7698220014572144,2.4237959384918213,6.714982032775879,38.70000076293945,-167.70001220703125,-27.900001525878906
206766,2.7771778106689453,7.696903705596924,-0.41570937633514404,-0.5640279650688171,3.971061944961548,10.602201461791992,31.500001907348633,-167.70001220703125,-23.700000762939453
206806,7.982816219329834,19.599349975585938,-5.011241912841797,-0.9603719711303711,7.057971954345703,8.986337661743164,12.300000190734863,-165.3000030517578,-24.30000114440918
206866,15.845405578613281,19.599349975585938,-7.139434337615967,-1.1204339265823364,2.240867853164673,2.644834041595459,-2.1000001430511475,-167.70001220703125,-33.30000305175781
206886,15.1880464553833,19.599349975585938,-6.629218578338623,-1.013725996017456,-5.175337791442871,-5.137228012084961,-14.100000381469727,-167.70001220703125,-30.30000114440918
206910,10.585335731506348,19.599349975585938,-4.84316349029541,-2.03507399559021,-9.489389419555664,-9.024447441101074,5.100000381469727,-162.90000915527344,-29.100000381469727
206930,7.485759258270264,17.96821403503418,-3.4925568103790283,-2.1036720275878906,-9.07017993927002,-10.213479995727539,12.300000190734863,-170.10000610351562,-27.900001525878906
206950,5.359361171722412,12.715921401977539,-1.2824184894561768,-2.2180018424987793,-9.260729789733887,-13.841551780700684,14.700000762939453,-167.70001220703125,-33.30000305175781
206990,-0.8368020057678223,-1.3661586046218872,1.0533298254013062,-1.3186060190200806,-2.3018438816070557,-16.013822555541992,69.9000015258789,-165.3000030517578,-26.100000381469727
207014,-1.4008508920669556,-3.121109962463379,0.9767674803733826,-1.7759259939193726,0.2972579896450043,-1.4862899780273438,69.9000015258789,-174.90000915527344,-27.900001525878906
207074,0.14953574538230896,0.7602397203445435,-0.19977974891662598,-0.17530599236488342,-0.4192099869251251,-0.3277460038661957,60.30000305175781,-174.90000915527344,-26.100000381469727
207128,-0.4384388029575348,-0.2811271846294403,0.3445303440093994,0.38109999895095825,-1.8521459102630615,-0.36585599184036255,67.5,-177.3000030517578,-30.30000114440918
207230,1.5689289569854736,5.036962032318115,-0.8039041757583618,0.2439039945602417,1.021347999572754,6.227173805236816,72.30000305175781,-184.5,-27.900001525878906
207250,1.2578946352005005,6.92769193649292,-0.6190779805183411,0,3.1250200271606445,6.600651741027832,60.30000305175781,-172.5,-26.700000762939453
207290,5.700900554656982,17.128421783447266,-3.201261281967163,-3.1402640342712402,1.935987949371338,9.710428237915039,43.5,-174.90000915527344,-27.900001525878906
207346,13.387038230895996,19.59695816040039,-7.692716598510742,0,6.448211669921875,5.343021869659424,17.100000381469727,-172.5,-30.30000114440918
207366,12.820596694946289,19.598752975463867,-6.305025100708008,-0.25152599811553955,-3.704291820526123,-2.599102020263672,0.30000001192092896,-170.10000610351562,-25.500001907348633
207448,0.4103260636329651,4.861706256866455,-0.26856619119644165,-0.967993974685669,-5.327777862548828,-14.344603538513184,45.900001525878906,-182.10000610351562,-30.900001525878906
207493,-0.9929173588752747,-0.7010235786437988,-0.3194083571434021,-1.0899460315704346,1.8369019031524658,-0.4344539940357208,55.500003814697266,-184.5,-27.900001525878906
207529,0.1662837415933609,0.7853617072105408,-0.1058713048696518,0.2972579896450043,0.3125019967556,-0.2134159952402115,57.900001525878906,-174.90000915527344,-25.500001907348633
207549,0.3822133541107178,0.8320168852806091,-0.08852516114711761,0.3277460038661957,0.04573199898004532,-0.08384199440479279,43.5,-172.5,-27.900001525878906
207592,-0.09151587635278702,-0.21892032027244568,0.0041870009154081345,0.23628199100494385,-0.5411620140075684,-0.9908599853515625,67.5,-186.90000915527344,-29.100000381469727
207634,-0.4079335033893585,-0.7076031565666199,0.15551717579364777,-0.1295740008354187,-0.7164679765701294,-0.5945159792900085,57.900001525878906,-184.5,-25.500001907348633
207654,-0.2045648992061615,-0.6926495432853699,0.5132066607475281,-0.49542999267578125,-0.7317119836807251,0.060975998640060425,45.900001525878906,-177.3000030517578,-25.500001907348633
207674,0.030505292117595673,-0.515001118183136,0.7704081535339355,-0.853663980960846,-0.06859800219535828,0.9908599853515625,62.70000076293945,-177.3000030517578,-21.900001525878906
207714,1.949347972869873,5.151805400848389,-0.2990714907646179,-0.457319974899292,2.484771966934204,5.510705947875977,57.900001525878906,-179.70001220703125,-21.30000114440918
207757,4.292273998260498,13.0766019821167,-2.6940360069274902,0.6783579587936401,7.477181911468506,12.43148136138916,19.5,-182.10000610351562,-24.900001525878906
207777,4.761816024780273,17.813894271850586,-4.44180965423584,1.3414719104766846,7.019861698150635,9.733293533325195,26.700000762939453,-179.70001220703125,-23.100000381469727
207797,8.50619125366211,19.599349975585938,-6.859503746032715,4.588443756103516,9.115911483764648,9.931466102600098,2.700000047683716,-167.70001220703125,-31.500001907348633
207817,14.022863388061523,19.596359252929688,-8.018704414367676,2.0579400062561035,3.9329519271850586,4.626554012298584,-4.5,-184.5,-29.100000381469727
207881,7.892496585845947,19.34274673461914,-5.041747093200684,-1.5929979085922241,-5.045763969421387,-7.774439811706543,12.300000190734863,-165.3000030517578,-27.30000114440918
207903,4.86110782623291,14.158641815185547,-2.7311208248138428,-2.6295900344848633,-8.437553405761719,-12.012271881103516,26.700000762939453,-177.3000030517578,-22.5
207923,0.7458842992782593,3.606802225112915,0.33196935057640076,0.28201398253440857,-5.686011791229248,-18.849205017089844,53.10000228881836,-177.3000030517578,-21.30000114440918
207944,-0.7566508650779724,0.5568711161613464,0.4988512396812439,0.5182960033416748,-2.7667858600616455,-16.836997985839844,57.900001525878906,-172.5,-20.100000381469727
207964,-1.3470180034637451,-2.1060614585876465,-0.040075577795505524,-0.09908600151538849,0,-7.987855911254883,79.5,-174.90000915527344,-26.700000762939453
207986,0.009570287540555,-0.8882423043251038,0.27753832936286926,-0.9375059604644775,-0.7698220014572144,0.030487999320030212,72.30000305175781,-177.3000030517578,-24.900001525878906
208006,0.6400129795074463,0.4486072361469269,0.3678579330444336,0.3887220025062561,0.228659987449646,1.2652519941329956,81.9000015258789,-170.10000610351562,-25.500001907348633
208026,1.0975923538208008,1.5491902828216553,-0.4683459401130676,0.6631140112876892,1.0289700031280518,1.8902559280395508,79.5,-172.5,-20.100000381469727
208066,0.14534874260425568,-0.44980350136756897,-0.18781688809394836,0.04573199898004532,-0.35061198472976685,0.02286599949002266,69.9000015258789,-177.3000030517578,-23.100000381469727
208086,-0.015551717020571232,-0.4970568120479584,-0.15252645313739777,0.06859800219535828,-1.1661659479141235,0.5182960033416748,81.9000015258789,-174.90000915527344,-29.100000381469727
208106,-0.12680630385875702,-0.5197862386703491,0.30565106868743896,-0.39634400606155396,-1.2042759656906128,0.228659987449646,67.5,-167.70001220703125,-24.30000114440918
208126,-0.09869358688592911,-0.6262556910514832,0.3295767903327942,-0.7240899801254272,-0.9451279640197754,0.06859800219535828,60.30000305175781,-167.70001220703125,-23.700000762939453
208150,-0.20097604393959045,-0.8643165826797485,0.7626323103904724,-1.0975680351257324,-0.49542999267578125,1.4481799602508545,62.70000076293945,-174.90000915527344,-28.500001907348633
208170,0.5562729835510254,2.2406435012817383,0.31402507424354553,0.36585599184036255,1.577754020690918,5.228692054748535,62.70000076293945,-170.10000610351562,-33.900001525878906
208190,2.7251393795013428,8.688624382019043,-1.205856204032898,-0.4344539940357208,4.28356409072876,11.745501518249512,45.900001525878906,-172.5,-26.700000762939453
208210,3.3077306747436523,14.80344009399414,-2.086322784423828,-0.8993960022926331,7.957367897033691,11.615927696228027,33.900001525878906,-182.10000610351562,-23.100000381469727
208230,7.010235786437988,19.599349975585938,-5.141636848449707,-0.2134159952402115,10.678421974182129,12.157090187072754,31.500001907348633,-170.10000610351562,-24.30000114440918
208250,5.548374176025391,16.56317710876465,-5.764303684234619,0.342989981174469,-3.1173980236053467,-5.678390026092529,26.700000762939453,-177.3000030517578,-27.30000114440918
208314,7.317681312561035,19.598752975463867,-6.026888370513916,2.3018438816070557,2.5686140060424805,-3.559473991394043,24.30000114440918,-160.5,-27.30000114440918
208334,6.459944248199463,17.432279586791992,-4.547680854797363,-1.5091559886932373,-4.016793727874756,-3.917707920074463,21.900001525878906,-172.5,-23.700000762939453
208356,2.871086359024048,12.035234451293945,-1.5581624507904053,-0.9984819889068604,-1.6311079263687134,-2.3018438816070557,38.70000076293945,-172.5,-33.30000305175781
208376,2.652764081954956,10.220468521118164,-2.877067804336548,0.3887220025062561,0.8612859845161438,-1.4405579566955566,26.700000762939453,-177.3000030517578,-30.900001525878906
208436,0.5861800909042358,4.209132194519043,-0.9618139266967773,-0.3125019967556,0.17530599236488342,-2.042695999145508,50.70000076293945,-172.5,-25.500001907348633
208456,0.8272317051887512,4.435230255126953,-1.2441374063491821,-0.2134159952402115,-0.6478700041770935,-0.8079319596290588,38.70000076293945,-177.3000030517578,-24.900001525878906
208479,0.9342993497848511,4.298255443572998,-0.7650248408317566,0.25152599811553955,-1.478667974472046,-1.4329359531402588,53.10000228881836,-172.5,-30.30000114440918
208520,0.9073829054832458,4.098475456237793,-0.9588232040405273,0.8993960022926331,-0.9451279640197754,-0.9451279640197754,48.30000305175781,-177.3000030517578,-24.30000114440918
208546,1.3547937870025635,6.002963066101074,-1.0629000663757324,0.9603719711303711,-0.1600620001554489,-0.3125019967556,53.10000228881836,-172.5,-26.100000381469727
208566,1.7238479852676392,7.222576141357422,-1.3948694467544556,0.36585599184036255,0.9451279640197754,-0.1295740008354187,50.70000076293945,-182.10000610351562,-23.700000762939453
208606,3.037369966506958,10.526718139648438,-2.0725653171539307,-0.7317119836807251,1.8216580152511597,0.9451279640197754,53.10000228881836,-174.90000915527344,-25.500001907348633
208666,3.785048723220825,13.80155086517334,-3.5099029541015625,0.7850660085678101,3.201239824295044,3.0640439987182617,43.5,-184.5,-27.900001525878906
208688,3.8945088386535645,12.982094764709473,-2.9972944259643555,-0.2134159952402115,-1.0975680351257324,-0.7317119836807251,45.900001525878906,-167.70001220703125,-23.700000762939453
208708,2.029499053955078,9.62471866607666,-1.5079184770584106,0.07621999830007553,-2.6295900344848633,-2.0503180027008057,41.10000228881836,-177.3000030517578,-21.30000114440918
208728,2.304046630859375,10.203123092651367,-1.5802937746047974,0.426831990480423,0.12195199728012085,0.10670799762010574,38.70000076293945,-165.3000030517578,-29.700000762939453
208748,1.755549669265747,9.28916072845459,-1.9038890600204468,-0.26677000522613525,0.12195199728012085,-1.1509219408035278,50.70000076293945,-182.10000610351562,-18.900001525878906
208768,1.332662582397461,8.072537422180176,-1.5623494386672974,-0.41158798336982727,-0.36585599184036255,-1.3262280225753784,45.900001525878906,-170.10000610351562,-20.700000762939453
208788,1.4804039001464844,7.827897071838379,-1.5958454608917236,-0.23628199100494385,-0.08384199440479279,-0.2743920087814331,50.70000076293945,-172.5,-21.30000114440918
208808,1.5641438961029053,7.801578998565674,-1.4899741411209106,-0.20579399168491364,-0.2591480016708374,0.23628199100494385,57.900001525878906,-174.90000915527344,-25.500001907348633
208850,2.119818687438965,8.710158348083496,-1.6299395561218262,0.17530599236488342,-0.2591480016708374,0.07621999830007553,41.10000228881836,-167.70001220703125,-21.30000114440918
208870,2.3746275901794434,9.16355037689209,-1.85543954372406,0.457319974899292,-0.4039659798145294,-0.39634400606155396,31.500001907348633,-167.70001220703125,-32.10000228881836
208890,2.5911552906036377,9.65342903137207,-1.8769726753234863,0.7240899801254272,-0.8231759667396545,-0.6402480006217957,48.30000305175781,-186.90000915527344,-21.900001525878906
208912,2.9727704524993896,10.4513521194458,-1.9983956813812256,0.2439039945602417,-0.8689079880714417,-1.4405579566955566,53.10000228881836,-174.90000915527344,-23.100000381469727
208932,2.525359630584717,9.294543266296387,-1.6700152158737183,0.007621999830007553,-0.8231759667396545,-1.92836594581604,65.10000610351562,-174.90000915527344,-25.500001907348633
208954,2.4906673431396484,9.356152534484863,-1.7268387079238892,0.18292799592018127,-0.228659987449646,-2.042695999145508,55.500003814697266,-174.90000915527344,-26.100000381469727
208974,2.339935302734375,8.993678092956543,-1.7645217180252075,0,0.22103799879550934,-2.484771966934204,48.30000305175781,-174.90000915527344,-21.900001525878906
208994,2.2789247035980225,8.609071731567383,-1.7280350923538208,0.06859800219535828,0.342989981174469,-2.850627899169922,50.70000076293945,-179.70001220703125,-23.100000381469727
209014,2.0456490516662598,7.776456832885742,-1.7944289445877075,0.17530599236488342,0.8231759667396545,-3.109776020050049,57.900001525878906,-167.70001220703125,-24.30000114440918
209037,1.8034011125564575,7.479777812957764,-2.19099760055542,0.9298839569091797,1.9207439422607422,-2.4695279598236084,57.900001525878906,-165.3000030517578,-30.30000114440918
209099,2.572613000869751,8.69939136505127,-3.057706832885742,0.6021379828453064,1.1356779336929321,-1.9207439422607422,79.5,-172.5,-21.30000114440918
209121,3.010453462600708,9.4674072265625,-3.45487380027771,1.371959924697876,0.8993960022926331,-1.0061039924621582,67.5,-167.70001220703125,-23.700000762939453
209141,3.23774790763855,9.877135276794434,-3.875368356704712,0.9832379817962646,0.6326259970664978,-1.3186060190200806,67.5,-174.90000915527344,-12.300000190734863
209163,3.0630900859832764,9.484752655029297,-3.854433298110962,0.5945159792900085,-0.6250039935112,-1.7835479974746704,69.9000015258789,-165.3000030517578,-27.900001525878906
209183,3.2562904357910156,9.74434757232666,-3.6373074054718018,0.6783579587936401,-1.5472660064697266,-1.646351933479309,72.30000305175781,-160.5,-21.900001525878906
209203,3.0804362297058105,8.921302795410156,-3.1916909217834473,-0.342989981174469,-1.806414008140564,-2.088428020477295,81.9000015258789,-167.70001220703125,-23.700000762939453
209226,2.989518642425537,8.372207641601562,-2.826225519180298,-0.7240899801254272,-1.4634239673614502,-1.7378159761428833,81.9000015258789,-170.10000610351562,-23.100000381469727
209246,2.8932175636291504,8.39673137664795,-2.5821831226348877,-1.0975680351257324,-0.7240899801254272,-1.2042759656906128,77.10000610351562,-162.90000915527344,-23.700000762939453
209266,2.5851738452911377,8.40749740600586,-2.7490651607513428,-1.371959924697876,-0.12195199728012085,-1.1204339265823364,86.70000457763672,-167.70001220703125,-27.30000114440918
209286,2.4511899948120117,8.33691692352295,-2.759831666946411,-1.2576299905776978,-0.3887220025062561,-1.2652519941329956,79.5,-174.90000915527344,-17.700000762939453
209330,2.202362537384033,7.993582725524902,-2.5624444484710693,-0.8689079880714417,-0.5487840175628662,-0.7850660085678101,69.9000015258789,-174.90000915527344,-23.700000762939453
209390,2.313018798828125,8.63778305053711,-2.759831666946411,-0.510673999786377,-0.6402480006217957,-0.7469559907913208,81.9000015258789,-179.70001220703125,-19.5
209410,2.1592960357666016,8.427236557006836,-2.760429859161377,-0.41158798336982727,-0.6554920077323914,-0.8993960022926331,89.10000610351562,-170.10000610351562,-32.10000228881836
209430,2.3710386753082275,9.251477241516113,-2.854936361312866,0.19817200303077698,-0.8307979702949524,-0.6707359552383423,84.30000305175781,-177.3000030517578,-18.900001525878906
209450,3.082230806350708,10.58593463897705,-3.3519933223724365,0.2439039945602417,-0.6707359552383423,-0.3201240003108978,81.9000015258789,-165.3000030517578,-21.30000114440918
209470,2.2125308513641357,8.24121379852295,-2.5618462562561035,-0.7469559907913208,-2.2180018424987793,-2.599102020263672,86.70000457763672,-174.90000915527344,-17.100000381469727
209511,2.3471131324768066,9.179101943969727,-2.310028076171875,-0.2439039945602417,-1.3338500261306763,0.19817200303077698,86.70000457763672,-162.90000915527344,-21.30000114440918
209531,2.2669618129730225,8.926087379455566,-2.0677802562713623,-0.4878079891204834,-1.3643379211425781,-0.06859800219535828,81.9000015258789,-170.10000610351562,-21.30000114440918
209552,2.339337110519409,9.366918563842773,-2.113239049911499,-0.09146399796009064,-1.8216580152511597,0.228659987449646,93.9000015258789,-172.5,-26.700000762939453
209592,1.0264133214950562,9.41357421875,-1.4343467950820923,0.16768398880958557,-2.644834041595459,0.6707359552383423,77.10000610351562,-167.70001220703125,-33.30000305175781
209648,-0.500047504901886,8.957191467285156,-1.83151376247406,0.16768398880958557,-2.484771966934204,-0.3887220025062561,91.5,-174.90000915527344,-20.700000762939453
209753,-0.915158748626709,10.09067153930664,-1.699324131011963,-0.4039659798145294,-0.685979962348938,-2.3094658851623535,98.70000457763672,-170.10000610351562,-24.900001525878906
209773,-1.0682833194732666,9.84184455871582,-1.643696904182434,-0.3125019967556,-0.6097599864006042,-2.5762360095977783,77.10000610351562,-167.70001220703125,-26.700000762939453
209815,-0.9055884480476379,9.613951683044434,-1.727436900138855,0.09908600151538849,0.9527499675750732,-1.0365920066833496,86.70000457763672,-165.3000030517578,-25.500001907348633
209855,-0.8840553164482117,9.004444122314453,-1.9170482158660889,0.8917739987373352,1.3414719104766846,-0.07621999830007553,96.30000305175781,-167.70001220703125,-21.900001525878906
209875,-0.6729108691215515,9.107324600219727,-2.0109567642211914,0.9527499675750732,0.8079319596290588,0.5259180068969727,98.70000457763672,-167.70001220703125,-27.900001525878906
209919,-0.26976248621940613,9.2999267578125,-2.032489776611328,0.10670799762010574,0.3582339882850647,-0.05335399881005287,84.30000305175781,-162.90000915527344,-22.5
209939,-0.18482618033885956,9.368115425109863,-2.015143632888794,0,-0.06859800219535828,-0.4420759975910187,108.30000305175781,-177.3000030517578,-25.500001907348633
209959,0.179442897439003,9.72640323638916,-2.002582550048828,0.1448179930448532,-0.12195199728012085,-0.8079319596290588,91.5,-172.5,-24.30000114440918
209983,0.14475059509277344,9.414770126342773,-2.0127511024475098,-0.08384199440479279,0.10670799762010574,-1.5701320171356201,89.10000610351562,-165.3000030517578,-24.30000114440918
210003,0.22549989819526672,9.009827613830566,-1.9858347177505493,0.114329993724823,0.28201398253440857,-1.6615959405899048,101.10000610351562,-179.70001220703125,-29.700000762939453
210023,0.2739494740962982,8.883021354675293,-2.118622303009033,0.38109999895095825,0.7088459730148315,-1.4481799602508545,98.70000457763672,-162.90000915527344,-20.700000762939453
210043,0.3696523606777191,8.91950798034668,-2.339337110519409,0.3277460038661957,0.8841519951820374,-1.1814099550247192,101.10000610351562,-162.90000915527344,-23.100000381469727
210063,0.5377305150032043,9.014613151550293,-2.3022522926330566,0.28201398253440857,0.5945159792900085,-1.1204339265823364,101.10000610351562,-172.5,-21.900001525878906
210105,0.517991840839386,9.302319526672363,-2.6689138412475586,0.12195199728012085,1.2804960012435913,-2.0503180027008057,105.9000015258789,-165.3000030517578,-21.900001525878906
210293,1.818354606628418,9.207813262939453,-3.3723301887512207,-0.25152599811553955,1.4481799602508545,-1.92836594581604,115.50000762939453,-162.90000915527344,-29.700000762939453
210313,1.845271110534668,9.200037002563477,-3.46683669090271,0.4420759975910187,0.9298839569091797,-2.195136070251465,117.9000015258789,-170.10000610351562,-21.900001525878906
210355,1.0048801898956299,7.675968647003174,-3.0445477962493896,0.16768398880958557,-0.18292799592018127,-2.126538038253784,129.90000915527344,-160.5,-20.100000381469727
210375,0.5897689461708069,7.353569507598877,-2.993107318878174,-0.007621999830007553,-0.114329993724823,-1.0975680351257324,129.90000915527344,-158.10000610351562,-23.700000762939453
210395,0.7722025513648987,8.731093406677246,-3.5164825916290283,0.5564059615135193,0.13719600439071655,0.41158798336982727,137.10000610351562,-160.5,-18.30000114440918
210419,0.6950421333312988,9.07502555847168,-3.561343193054199,0.2134159952402115,-0.7850660085678101,0.18292799592018127,137.10000610351562,-165.3000030517578,-21.900001525878906
210439,0.8846534490585327,9.07801628112793,-3.1581947803497314,0.02286599949002266,-1.4329359531402588,0.5030519962310791,127.50000762939453,-172.5,-26.700000762939453
210459,1.3990564346313477,10.14151382446289,-3.3525912761688232,0.2439039945602417,-1.1585439443588257,1.1814099550247192,125.10000610351562,-167.70001220703125,-18.30000114440918
210479,1.2345670461654663,9.262842178344727,-2.9667892456054688,-0.4725639820098877,-1.4634239673614502,0.2743920087814331,134.70001220703125,-158.10000610351562,-21.900001525878906
210539,0.7799784541130066,9.478771209716797,-3.3101232051849365,0.007621999830007553,-0.15243999660015106,0.25152599811553955,117.9000015258789,-165.3000030517578,-20.700000762939453
210583,0.9223364591598511,8.61266040802002,-3.159391164779663,-0.967993974685669,-0.060975998640060425,-0.8993960022926331,120.30000305175781,-167.70001220703125,-26.100000381469727
210603,1.0228245258331299,8.953601837158203,-3.499136447906494,-1.3414719104766846,0.8765299916267395,-1.0061039924621582,120.30000305175781,-170.10000610351562,-20.700000762939453
210663,1.140060544013977,8.839356422424316,-4.597326755523682,-1.8978779315948486,1.4558019638061523,-2.957335948944092,132.3000030517578,-158.10000610351562,-25.500001907348633
210951,-3.67499041557312,6.070552825927734,-0.824241042137146,-3.513741970062256,17.423891067504883,-7.378095626831055,218.70001220703125,-110.10000610351562,-23.100000381469727
210971,-4.990904808044434,8.496023178100586,-0.6573591232299805,-3.0259339809417725,15.625099182128906,-6.509187698364258,197.10000610351562,-138.90000915527344,-20.100000381469727
211011,-6.2816972732543945,11.143404006958008,-0.2356683313846588,-2.637212038040161,12.332395553588867,-6.798823833465576,216.3000030517578,-114.9000015258789,-17.700000762939453
211051,-7.517460823059082,12.596891403198242,-0.04904772341251373,-1.92836594581604,9.14639949798584,-4.7027740478515625,221.10000610351562,-114.9000015258789,-11.700000762939453
211073,-8.43740463256836,13.829663276672363,-1.032992959022522,-0.9222619533538818,6.295772075653076,-2.3628199100494385,213.90000915527344,-112.50000762939453,-12.300000190734863
211113,-9.04093074798584,14.234606742858887,-1.399654507637024,-0.7850660085678101,-2.9725799560546875,-0.2896359860897064,204.3000030517578,-110.10000610351562,-11.700000762939453
211153,-5.438913822174072,15.272982597351074,0.20815375447273254,-2.4542839527130127,-9.123534202575684,2.378063917160034,221.10000610351562,-112.50000762939453,-11.100000381469727
211190,-6.013131141662598,12.8792142868042,-0.5760116577148438,0.39634400606155396,-11.730257987976074,5.221069812774658,218.70001220703125,-124.50000762939453,-19.5
211210,-4.740283012390137,12.686612129211426,0.5724228024482727,0.5259180068969727,-12.500080108642578,6.067111968994141,213.90000915527344,-126.9000015258789,-13.500000953674316
211250,-4.390369415283203,10.16364574432373,-0.09988987445831299,2.4237959384918213,-12.027515411376953,8.033587455749512,197.10000610351562,-131.70001220703125,-23.700000762939453
211290,-3.5990262031555176,8.58993148803711,0.060412440448999405,2.949713945388794,-10.304944038391113,7.179924011230469,187.5,-136.5,-29.100000381469727
211310,-3.3633580207824707,8.266335487365723,-0.8565407395362854,3.902463912963867,-9.230241775512695,7.583889961242676,182.70001220703125,-143.70001220703125,-25.500001907348633
211330,-2.327374219894409,8.81782341003418,-1.0443576574325562,3.307947874069214,-10.564091682434082,7.561023712158203,187.5,-138.90000915527344,-30.30000114440918
211372,-1.9882272481918335,7.40082311630249,-1.4744224548339844,3.7347798347473145,-8.498529434204102,5.472595691680908,163.5,-148.5,-28.500001907348633
211438,-1.4092248678207397,7.566508769989014,-2.4643490314483643,3.5899620056152344,-7.019861698150635,4.634175777435303,153.90000915527344,-146.10000610351562,-23.100000381469727
211459,-0.7763895988464355,7.490544319152832,-2.447601079940796,2.8048958778381348,-6.051867961883545,3.102154016494751,170.70001220703125,-148.5,-23.700000762939453
211500,-0.6083114147186279,6.108834266662598,-4.19477653503418,4.405515670776367,-3.6890478134155273,2.8734939098358154,153.90000915527344,-158.10000610351562,-18.900001525878906
211520,-0.024523861706256866,6.89479398727417,-3.260477304458618,2.9725799560546875,-7.522913932800293,4.405515670776367,141.90000915527344,-146.10000610351562,-31.500001907348633
211540,0.4043446481227875,7.444487571716309,-2.5474908351898193,2.446661949157715,-6.105221748352051,4.024415969848633,137.10000610351562,-162.90000915527344,-24.900001525878906
211560,0.5251695513725281,7.084405422210693,-2.897404670715332,2.294221878051758,-3.3917899131774902,2.6219680309295654,139.5,-155.70001220703125,-29.700000762939453
211583,0.6908551454544067,7.091583251953125,-3.4351351261138916,2.5000159740448,-2.8582499027252197,2.1722700595855713,125.10000610351562,-153.3000030517578,-18.900001525878906
211603,1.0838350057601929,7.445085525512695,-3.6767847537994385,2.7210538387298584,-3.5442299842834473,2.339953899383545,141.90000915527344,-165.3000030517578,-20.100000381469727
211623,1.2411466836929321,8.27710247039795,-3.3908724784851074,2.195136070251465,-4.2149658203125,2.690565824508667,127.50000762939453,-160.5,-23.100000381469727
211643,1.3721399307250977,9.115100860595703,-3.746169328689575,1.753059983253479,-2.599102020263672,2.0960500240325928,139.5,-155.70001220703125,-18.900001525878906
211663,1.0784517526626587,9.18927001953125,-4.342517852783203,2.2027578353881836,-1.0289700031280518,0.8384199738502502,122.70000457763672,-160.5,-20.700000762939453
211683,1.2812222242355347,9.890294075012207,-5.047130584716797,2.7591638565063477,-0.7698220014572144,0.9527499675750732,139.5,-160.5,-19.5
211706,1.3230922222137451,10.173215866088867,-5.273826599121094,1.8140360116958618,-1.4558019638061523,-0.12195199728012085,132.3000030517578,-162.90000915527344,-25.500001907348633
211726,0.8338112831115723,9.054688453674316,-5.022606372833252,1.4405579566955566,-1.9131219387054443,-1.5929979085922241,134.70001220703125,-162.90000915527344,-17.700000762939453
211746,0.7829691767692566,8.39074993133545,-4.883239269256592,1.3262280225753784,-1.8673899173736572,-1.242385983467102,117.9000015258789,-177.3000030517578,-29.700000762939453
211766,0.921140193939209,8.677260398864746,-4.560840129852295,0.28201398253440857,-1.3795819282531738,-0.5792719721794128,132.3000030517578,-150.90000915527344,-23.100000381469727
211789,0.9911229014396667,8.74604606628418,-4.655346870422363,0.05335399881005287,0.39634400606155396,-0.8993960022926331,132.3000030517578,-150.90000915527344,-17.700000762939453
211809,1.007272720336914,8.412880897521973,-4.53751277923584,-0.25152599811553955,0.3125019967556,-0.9984819889068604,127.50000762939453,-158.10000610351562,-15.90000057220459
211829,1.2710537910461426,8.751429557800293,-4.166065692901611,-0.4192099869251251,0.1600620001554489,-0.7088459730148315,137.10000610351562,-158.10000610351562,-18.900001525878906
211849,1.1920989751815796,8.745448112487793,-3.8939106464385986,-0.9527499675750732,1.3872039318084717,-1.2042759656906128,122.70000457763672,-150.90000915527344,-27.900001525878906
211869,1.1227144002914429,8.263344764709473,-4.23664665222168,-1.1661659479141235,2.903981924057007,-1.4862899780273438,144.3000030517578,-153.3000030517578,-21.30000114440918
211912,1.1777435541152954,9.385461807250977,-4.7486572265625,-1.6920839548110962,4.504601955413818,-1.478667974472046,137.10000610351562,-160.5,-26.700000762939453
211932,0.8882423043251038,8.876441955566406,-5.309715270996094,-1.2728739976882935,6.3719916343688965,-2.591480016708374,137.10000610351562,-155.70001220703125,-20.700000762939453
211952,1.0365817546844482,9.010425567626953,-6.209920406341553,-0.800309956073761,6.585407733917236,-2.5000159740448,139.5,-162.90000915527344,-21.30000114440918
211996,0.8816627264022827,8.37459945678711,-5.084813594818115,-3.2774598598480225,6.882665634155273,-2.9344699382781982,149.10000610351562,-150.90000915527344,-17.700000762939453
212046,0.9630101919174194,8.627016067504883,-5.595627307891846,-3.6814258098602295,5.7164998054504395,-3.506119966506958,153.90000915527344,-146.10000610351562,-25.500001907348633
212091,1.2495206594467163,7.676567077636719,-2.7945239543914795,-6.5320539474487305,7.431449890136719,-5.2134480476379395,151.5,-146.10000610351562,-15.90000057220459
212111,1.0742647647857666,6.620246410369873,-2.8686935901641846,-6.219552040100098,12.141845703125,-6.311016082763672,165.90000915527344,-146.10000610351562,-24.900001525878906
212153,-0.3283804953098297,4.828808307647705,-2.521770715713501,-5.373509883880615,12.347640037536621,-7.629621982574463,165.90000915527344,-138.90000915527344,-15.90000057220459
212173,-0.8900367617607117,4.539905071258545,-2.175446033477783,-4.718018054962158,12.286664009094238,-8.094563484191895,170.70001220703125,-134.10000610351562,-25.500001907348633
212194,-1.122116208076477,3.6259427070617676,-1.6161823272705078,-2.4085519313812256,9.99244213104248,-7.172301769256592,177.90000915527344,-136.5,-15.300000190734863
212214,-1.0467501878738403,5.169749736785889,0.06280501186847687,-4.024415969848633,8.025965690612793,-5.518327713012695,194.70001220703125,-155.70001220703125,-16.5
212274,-3.5254547595977783,7.119097709655762,-0.6537702679634094,-0.2134159952402115,15.243999481201172,-6.875043869018555,201.90000915527344,-124.50000762939453,-16.5
212314,-4.571606636047363,11.654217720031738,0.2607903480529785,-1.5548880100250244,12.118979454040527,-7.85828161239624,206.70001220703125,-124.50000762939453,-17.700000762939453
212334,-7.019207954406738,11.141609191894531,-1.3482142686843872,-0.18292799592018127,11.798855781555176,-7.911635875701904,211.50001525878906,-124.50000762939453,-23.100000381469727
212356,-6.890606880187988,12.358231544494629,-1.3171107769012451,-0.8689079880714417,6.288149833679199,-5.442107677459717,209.10000610351562,-112.50000762939453,-9.90000057220459
212396,-7.562919616699219,15.04748249053955,-1.0539278984069824,-0.9527499675750732,1.4100699424743652,-4.420759677886963,216.3000030517578,-98.10000610351562,-6.300000190734863
212417,-7.09696626663208,15.386630058288574,-0.9115698933601379,-1.1128119230270386,-2.225623846054077,-2.446661949157715,209.10000610351562,-95.70000457763672,-12.300000190734863
212437,-7.018609523773193,15.342367172241211,0.10347873717546463,-0.5182960033416748,-3.4832539558410645,-1.3338500261306763,218.70001220703125,-102.9000015258789,-10.5
212460,-8.430227279663086,15.010397911071777,-1.0383762121200562,1.371959924697876,-4.07014799118042,-0.17530599236488342,228.3000030517578,-93.30000305175781,-14.100000381469727
212480,-8.534303665161133,15.156344413757324,-1.5761067867279053,1.6920839548110962,-6.631139755249023,2.294221878051758,233.10000610351562,-102.9000015258789,-9.90000057220459
212501,-6.895391941070557,14.50078010559082,-1.0264133214950562,1.1585439443588257,-9.603719711303711,4.275941848754883,225.90000915527344,-117.30000305175781,-9.300000190734863
212564,-5.087804317474365,10.887398719787598,-1.8129713535308838,2.5228819847106934,-13.612892150878906,9.641829490661621,218.70001220703125,-122.10000610351562,-18.900001525878906
212584,-4.023707866668701,9.63967227935791,-1.3661586046218872,2.1722700595855713,-13.658623695373535,9.176887512207031,201.90000915527344,-122.10000610351562,-9.300000190734863
212607,-3.8293113708496094,8.238821029663086,-1.4271690845489502,2.4237959384918213,-12.06562614440918,8.414688110351562,199.50001525878906,-134.10000610351562,-17.100000381469727
212627,-3.5631377696990967,7.113714218139648,-2.1569035053253174,2.896359920501709,-10.343053817749023,8.018343925476074,189.90000915527344,-131.70001220703125,-17.100000381469727
212687,-1.8793652057647705,6.83198881149292,-2.196381092071533,3.1173980236053467,-11.89031982421875,7.408583641052246,182.70001220703125,-143.70001220703125,-25.500001907348633
212707,-1.4522911310195923,6.488655090332031,-1.82852303981781,2.9268479347229004,-10.838483810424805,6.631139755249023,173.10000610351562,-141.3000030517578,-23.100000381469727
212727,-0.8595314621925354,7.160369396209717,-2.48588228225708,3.1326420307159424,-8.589993476867676,6.478699684143066,163.5,-138.90000915527344,-21.30000114440918
212750,-0.9540380239486694,6.603498458862305,-2.4607601165771484,2.75154185295105,-8.452797889709473,4.771371841430664,163.5,-143.70001220703125,-20.100000381469727
212810,0.4426257908344269,6.7261176109313965,-2.3824033737182617,2.179892063140869,-4.908567905426025,2.6219680309295654,151.5,-158.10000610351562,-22.5
212830,0.62147057056427,6.514973163604736,-2.5349299907684326,2.4771499633789062,-4.5503339767456055,2.294221878051758,139.5,-153.3000030517578,-28.500001907348633
212850,0.9163550138473511,6.8068671226501465,-2.566033363342285,2.5228819847106934,-4.2149658203125,2.28659987449646,149.10000610351562,-158.10000610351562,-27.30000114440918
212871,0.6483869552612305,6.605292797088623,-3.150418996810913,2.7286758422851562,-1.7225719690322876,1.1585439443588257,139.5,-158.10000610351562,-25.500001907348633
212891,0.9689916372299194,7.16874361038208,-3.9692766666412354,2.896359920501709,-1.8597679138183594,2.3551979064941406,146.70001220703125,-160.5,-24.900001525878906
212911,1.1926970481872559,8.234634399414062,-3.844862937927246,1.3567159175872803,-2.736297845840454,2.8201398849487305,149.10000610351562,-153.3000030517578,-24.30000114440918
212931,1.140060544013977,8.605483055114746,-3.951930522918701,0.6936019659042358,-1.7911700010299683,1.9436099529266357,127.50000762939453,-155.70001220703125,-21.30000114440918
212995,1.1621917486190796,10.37060260772705,-4.974156856536865,0.46494197845458984,-1.1280559301376343,0.18292799592018127,127.50000762939453,-153.3000030517578,-23.700000762939453
213038,0.6136946678161621,8.88361930847168,-4.048231601715088,-0.2972579896450043,-1.6615959405899048,-1.8673899173736572,127.50000762939453,-158.10000610351562,-21.900001525878906
213058,0.21832218766212463,8.56181812286377,-4.256385326385498,0.17530599236488342,0,-1.5091559886932373,141.90000915527344,-158.10000610351562,-14.700000762939453
213078,0.2763420641422272,8.673072814941406,-4.640393257141113,0.8689079880714417,-0.2743920087814331,-0.800309956073761,144.3000030517578,-150.90000915527344,-24.30000114440918
213101,0.6741071343421936,9.07681941986084,-3.588857889175415,0.23628199100494385,-2.9649579524993896,-0.4878079891204834,141.90000915527344,-158.10000610351562,-27.30000114440918
213125,0.5443100929260254,8.541481971740723,-3.0361738204956055,0.09908600151538849,-0.7164679765701294,-0.9832379817962646,137.10000610351562,-150.90000915527344,-27.900001525878906
213145,0.24404233694076538,7.924198150634766,-3.4925568103790283,0.28201398253440857,1.5167779922485352,-1.1661659479141235,146.70001220703125,-148.5,-21.900001525878906
213208,0.4838976562023163,8.33871078491211,-4.378406524658203,-1.4634239673614502,1.806414008140564,-0.6326259970664978,149.10000610351562,-158.10000610351562,-21.900001525878906
213234,0.38759663701057434,8.631202697753906,-4.81624698638916,-1.8597679138183594,3.300325870513916,-0.09146399796009064,149.10000610351562,-158.10000610351562,-25.500001907348633
213254,0.503038227558136,9.116296768188477,-5.4592509269714355,-1.5929979085922241,3.7347798347473145,0.015243999660015106,144.3000030517578,-150.90000915527344,-21.900001525878906
213296,0.9193457365036011,9.414770126342773,-5.549570560455322,-1.5929979085922241,1.9207439422607422,-1.1814099550247192,141.90000915527344,-160.5,-21.900001525878906
213317,0.8960181474685669,9.155176162719727,-5.502915382385254,-2.0198299884796143,3.300325870513916,-1.829279899597168,156.3000030517578,-141.3000030517578,-26.100000381469727
213338,0.724351167678833,9.180896759033203,-6.196761131286621,-1.425313949584961,5.525949954986572,-1.3948259353637695,127.50000762939453,-158.10000610351562,-26.700000762939453
213358,0.7452861666679382,9.179699897766113,-5.9036712646484375,-2.6753220558166504,4.89332389831543,-2.439039945602417,146.70001220703125,-160.5,-23.100000381469727
213378,0.37862449884414673,8.106033325195312,-5.386277675628662,-2.789651870727539,5.6174139976501465,-4.009171962738037,149.10000610351562,-146.10000610351562,-20.100000381469727
213439,1.0605075359344482,7.082611083984375,-2.7795703411102295,-4.489357948303223,9.077801704406738,-6.196685791015625,151.5,-150.90000915527344,-21.900001525878906
213494,-0.4545886516571045,4.233057975769043,-1.9146556854248047,-5.564059734344482,14.50466537475586,-9.840002059936523,173.10000610351562,-143.70001220703125,-20.700000762939453
213534,-0.8284280300140381,4.658935546875,-1.4947593212127686,-4.260697841644287,12.675385475158691,-9.03207015991211,189.90000915527344,-136.5,-20.100000381469727
213555,0.43185922503471375,5.483774662017822,0.2900993525981903,-6.570163726806641,10.891838073730469,-8.757678031921387,206.70001220703125,-126.9000015258789,-18.30000114440918
213575,-0.21712589263916016,4.512390613555908,1.7992140054702759,-6.288149833679199,15.686075210571289,-9.352193832397461,197.10000610351562,-131.70001220703125,-14.100000381469727
213641,-6.322969436645508,9.72819709777832,-1.8943188190460205,-0.8765299916267395,14.893387794494629,-8.887251853942871,221.10000610351562,-100.50000762939453,-14.100000381469727
213661,-5.946737289428711,11.686517715454102,0.15312460064888,-2.3475759029388428,10.442139625549316,-8.46804141998291,230.70001220703125,-112.50000762939453,-5.700000286102295
213681,-7.007245063781738,10.713936805725098,-0.041870009154081345,-1.875011920928955,10.53360366821289,-9.390303611755371,221.10000610351562,-100.50000762939453,-15.300000190734863
213702,-8.141324043273926,11.673955917358398,-0.41271865367889404,-1.371959924697876,8.079319953918457,-6.204308032989502,223.50001525878906,-105.30000305175781,-7.500000476837158
213722,-7.896683692932129,13.576050758361816,-0.8110818862915039,-1.6920839548110962,4.504601955413818,-3.7805118560791016,230.70001220703125,-105.30000305175781,-5.700000286102295
213742,-8.34170150756836,13.682520866394043,-0.22430361807346344,-1.5167779922485352,0.4878079891204834,-3.75002384185791,233.10000610351562,-93.30000305175781,-7.500000476837158
213762,-8.62761402130127,14.400890350341797,-0.9749730229377747,0.015243999660015106,-0.5335400104522705,-1.2195199728012085,235.50001525878906,-107.70000457763672,-5.700000286102295
213782,-7.341606616973877,15.702448844909668,-1.123910665512085,-0.07621999830007553,-3.3765459060668945,0.7850660085678101,245.10000610351562,-95.70000457763672,-14.100000381469727
213802,-8.936256408691406,14.186755180358887,-1.2883999347686768,1.242385983467102,-4.634175777435303,1.0975680351257324,225.90000915527344,-93.30000305175781,-10.5
213825,-7.451066970825195,15.716804504394531,-1.931403636932373,0.6250039935112,-7.743951797485352,4.7027740478515625,233.10000610351562,-107.70000457763672,-14.100000381469727
213845,-8.059378623962402,14.537266731262207,-1.8099806308746338,0.426831990480423,-9.176887512207031,4.222588062286377,218.70001220703125,-100.50000762939453,-5.700000286102295
213865,-9.359143257141113,11.412568092346191,-2.6731009483337402,0.853663980960846,-11.311047554016113,5.8613176345825195,235.50001525878906,-110.10000610351562,-16.5
213885,-5.862997531890869,13.32243824005127,-1.1915007829666138,0.02286599949002266,-15.571745872497559,10.640312194824219,218.70001220703125,-112.50000762939453,-14.700000762939453
213909,-4.110438346862793,11.293537139892578,0.07416972517967224,0.5182960033416748,-13.818685531616211,10.190613746643066,218.70001220703125,-114.9000015258789,-13.500000953674316
213929,-4.035072326660156,9.85679817199707,-0.5461045503616333,1.4558019638061523,-11.265316009521484,8.978715896606445,201.90000915527344,-122.10000610351562,-20.700000762939453
213949,-4.576990127563477,8.199941635131836,-1.646687626838684,2.6600780487060547,-10.160125732421875,7.972611904144287,204.3000030517578,-122.10000610351562,-18.30000114440918
213969,-3.7360010147094727,8.480470657348633,-1.9236278533935547,3.3231918811798096,-11.669281959533691,8.559505462646484,201.90000915527344,-134.10000610351562,-27.30000114440918
213989,-3.2712438106536865,8.225662231445312,-1.6795854568481445,3.056421995162964,-12.012271881103516,8.018343925476074,185.10000610351562,-129.3000030517578,-18.900001525878906
214009,-2.5415093898773193,7.858402252197266,-2.008563995361328,3.0335559844970703,-10.983302116394043,7.583889961242676,189.90000915527344,-146.10000610351562,-18.30000114440918
214029,-2.2914857864379883,7.171135902404785,-1.8823559284210205,2.75154185295105,-11.181473731994629,7.096081733703613,180.3000030517578,-143.70001220703125,-26.700000762939453
214049,-2.112640857696533,6.766193389892578,-2.149127721786499,3.612828016281128,-10.426896095275879,7.538157939910889,170.70001220703125,-138.90000915527344,-22.5
214069,-1.8739819526672363,6.959393501281738,-2.492461681365967,3.658559799194336,-8.521395683288574,7.728707790374756,175.5,-146.10000610351562,-21.900001525878906
214091,-1.733418345451355,6.793109893798828,-2.784355640411377,3.361301898956299,-8.155539512634277,7.057971954345703,156.3000030517578,-148.5,-21.30000114440918
214111,-1.542610764503479,6.295454978942871,-2.6216607093811035,3.7347798347473145,-8.727190017700195,6.6844940185546875,156.3000030517578,-160.5,-29.100000381469727
214132,-0.6645368337631226,7.448674201965332,-2.6629323959350586,3.711913824081421,-8.635725975036621,7.538157939910889,144.3000030517578,-160.5,-29.100000381469727
214193,-0.23148132860660553,6.206331253051758,-2.6150810718536377,2.278977870941162,-4.268320083618164,2.637212038040161,146.70001220703125,-155.70001220703125,-23.700000762939453
214215,0.3959706425666809,6.823615074157715,-3.046342134475708,2.743919849395752,-5.419241905212402,3.3765459060668945,137.10000610351562,-158.10000610351562,-27.900001525878906
214255,1.030002236366272,7.207024574279785,-2.944657802581787,2.3170878887176514,-3.9481959342956543,1.8216580152511597,134.70001220703125,-155.70001220703125,-15.300000190734863
214275,1.4708335399627686,7.693315029144287,-3.285001277923584,2.4542839527130127,-3.239349842071533,2.1112940311431885,137.10000610351562,-155.70001220703125,-20.100000381469727
214295,1.531844139099121,8.44458293914795,-3.3759188652038574,1.8521459102630615,-2.637212038040161,2.0579400062561035,141.90000915527344,-158.10000610351562,-29.100000381469727
214315,1.4893759489059448,8.527724266052246,-3.6349148750305176,1.8369019031524658,-1.4558019638061523,1.2347639799118042,139.5,-177.3000030517578,-29.700000762939453
214375,1.2261930704116821,8.81303882598877,-4.002772808074951,0.7698220014572144,-1.196653962135315,-0.853663980960846,117.9000015258789,-167.70001220703125,-29.700000762939453
214395,1.0156468152999878,9.091175079345703,-4.306031227111816,0.5411620140075684,-0.2134159952402115,-0.5335400104522705,122.70000457763672,-155.70001220703125,-14.100000381469727
214415,0.7207622528076172,9.072632789611816,-4.728918552398682,0.8993960022926331,0.4878079891204834,-0.7545779943466187,129.90000915527344,-155.70001220703125,-18.30000114440918
214435,0.6262556910514832,9.05887508392334,-4.809667587280273,0.8841519951820374,-1.1661659479141235,-0.6707359552383423,127.50000762939453,-158.10000610351562,-20.700000762939453
214455,0.45817750692367554,9.153382301330566,-4.331153392791748,0.5945159792900085,-1.4862899780273438,-0.6554920077323914,129.90000915527344,-160.5,-20.700000762939453
214475,0.28890305757522583,8.64376449584961,-4.3562750816345215,0.5335400104522705,-0.9222619533538818,-1.013725996017456,132.3000030517578,-165.3000030517578,-24.30000114440918
214495,0.28052905201911926,8.3698148727417,-4.121803283691406,0.5259180068969727,-1.3262280225753784,-0.28201398253440857,129.90000915527344,-150.90000915527344,-17.100000381469727
214517,0.3313712179660797,8.891993522644043,-3.7718896865844727,0.07621999830007553,-1.0442140102386475,0.5030519962310791,137.10000610351562,-155.70001220703125,-23.700000762939453
214537,0.30624920129776,8.63060474395752,-3.538015604019165,-0.6097599864006042,-0.23628199100494385,0.4344539940357208,127.50000762939453,-155.70001220703125,-21.30000114440918
214577,0.5861800909042358,8.611464500427246,-3.1665689945220947,-0.8841519951820374,-0.19817200303077698,0.8079319596290588,127.50000762939453,-160.5,-22.5
214632,1.5623494386672974,8.874049186706543,-3.344217300415039,-0.8384199738502502,-0.7621999979019165,0.8079319596290588,139.5,-160.5,-21.30000114440918
214671,1.915253758430481,8.618043899536133,-3.5577542781829834,-1.3643379211425781,-0.510673999786377,0.46494197845458984,117.9000015258789,-165.3000030517578,-20.700000762939453
214732,1.425972819328308,8.911731719970703,-4.579382419586182,-2.1036720275878906,1.6920839548110962,-0.7164679765701294,120.30000305175781,-155.70001220703125,-24.30000114440918
214791,1.1597992181777954,9.420153617858887,-5.157786846160889,-1.9207439422607422,3.803377866744995,-0.7850660085678101,127.50000762939453,-150.90000915527344,-27.900001525878906
214811,1.6048176288604736,9.582250595092773,-5.698508262634277,-1.92836594581604,4.336917877197266,-1.5548880100250244,129.90000915527344,-158.10000610351562,-21.30000114440918
214851,1.9445627927780151,7.985806941986084,-5.112926006317139,-3.246971845626831,4.489357948303223,-2.1189160346984863,129.90000915527344,-160.5,-19.5
214875,2.2095401287078857,8.117398262023926,-4.575195789337158,-3.7728898525238037,5.449729919433594,-2.14178204536438,139.5,-160.5,-23.100000381469727
214935,1.5569661855697632,4.792919635772705,-2.2998597621917725,-4.024415969848633,10.548848152160645,-8.269869804382324,151.5,-150.90000915527344,-24.900001525878906
215115,-6.958197116851807,10.33591079711914,-1.81656014919281,-1.600619912147522,18.651033401489258,-9.481767654418945,199.50001525878906,-124.50000762939453,-12.300000190734863
215165,-7.185491561889648,12.96594524383545,-0.5849838256835938,-2.0960500240325928,6.760714054107666,-6.432967662811279,218.70001220703125,-93.30000305175781,-11.700000762939453
215213,-8.074332237243652,14.38115119934082,-0.43066293001174927,-1.3948259353637695,1.478667974472046,-3.9405739307403564,218.70001220703125,-102.9000015258789,-8.700000762939453
215233,-8.060574531555176,15.393209457397461,-2.0432562828063965,-0.1600620001554489,0.8460419774055481,-1.471045970916748,218.70001220703125,-100.50000762939453,-6.300000190734863
215276,-8.795692443847656,13.719605445861816,-1.5461995601654053,0.3201240003108978,-5.388753890991211,1.3948259353637695,221.10000610351562,-110.10000610351562,-11.700000762939453
215298,-7.230950355529785,13.892468452453613,-1.542610764503479,0.3734779953956604,-9.451279640197754,6.158576011657715,225.90000915527344,-100.50000762939453,-13.500000953674316
