time,sensor_accX[g],sensor_accY[g],sensor_accZ[g],sensor_gyroX[°/s],sensor_gyroY[°/s],sensor_gyroZ[°/s],sensor_magX[µT],sensor_magY[µT],sensor_magZ[µT]
422444,-2.840580940246582,8.453554153442383,-3.747365713119507,-0.22103799879550934,-0.06859800219535828,-0.3125019967556,228.3000030517578,-110.10000610351562,-12.90000057220459
422464,-2.864506721496582,8.346487045288086,-3.7252345085144043,-0.26677000522613525,0.1295740008354187,-0.25152599811553955,230.70001220703125,-112.50000762939453,-14.100000381469727
422484,-2.877067804336548,8.29504680633545,-3.7455713748931885,-0.2591480016708374,0.13719600439071655,-0.07621999830007553,223.50001525878906,-110.10000610351562,-10.5
422504,-2.862114191055298,8.4176664352417,-3.7814598083496094,-0.1295740008354187,0.19817200303077698,0.06859800219535828,211.50001525878906,-102.9000015258789,-24.30000114440918
422526,-2.771794557571411,8.539687156677246,-3.750356435775757,-0.1295740008354187,0.06859800219535828,-0.02286599949002266,230.70001220703125,-105.30000305175781,-12.90000057220459
422547,-2.825627326965332,8.37280559539795,-3.7013087272644043,-0.26677000522613525,0.20579399168491364,-0.15243999660015106,237.90000915527344,-122.10000610351562,-15.300000190734863
422567,-2.8597216606140137,8.373403549194336,-3.854433298110962,-0.19054999947547913,0.38109999895095825,-0.030487999320030212,230.70001220703125,-112.50000762939453,-18.900001525878906
422587,-2.7526538372039795,8.3757963180542,-3.8137595653533936,-0.09908600151538849,0.060975998640060425,0.12195199728012085,228.3000030517578,-110.10000610351562,-14.700000762939453
422607,-2.7024099826812744,8.451162338256836,-3.660634994506836,-0.2134159952402115,0.06859800219535828,0.20579399168491364,230.70001220703125,-117.30000305175781,-22.5
422627,-2.7161672115325928,8.414076805114746,-3.7515528202056885,-0.2134159952402115,0.4039659798145294,0.09146399796009064,213.90000915527344,-110.10000610351562,-17.700000762939453
422648,-2.7496633529663086,8.37459945678711,-3.853835105895996,-0.114329993724823,0.33536797761917114,0.07621999830007553,225.90000915527344,-107.70000457763672,-15.300000190734863
422669,-2.638408660888672,8.507387161254883,-3.7635154724121094,-0.030487999320030212,0.02286599949002266,0.1600620001554489,237.90000915527344,-105.30000305175781,-9.90000057220459
422689,-2.5821831226348877,8.486452102661133,-3.64508318901062,-0.15243999660015106,0.1600620001554489,0.007621999830007553,235.50001525878906,-114.9000015258789,-20.700000762939453
422709,-2.643791913986206,8.433218002319336,-3.746767520904541,-0.1295740008354187,0.35061198472976685,-0.17530599236488342,225.90000915527344,-126.9000015258789,-15.90000057220459
422729,-2.7077932357788086,8.421255111694336,-3.8071799278259277,-0.07621999830007553,0.426831990480423,-0.22103799879550934,223.50001525878906,-112.50000762939453,-12.300000190734863
422752,-2.6760916709899902,8.53011703491211,-3.717458486557007,-0.1600620001554489,0.17530599236488342,-0.08384199440479279,225.90000915527344,-102.9000015258789,-14.100000381469727
422772,-2.6994192600250244,8.337514877319336,-3.7904319763183594,-0.2972579896450043,0.3125019967556,-0.17530599236488342,225.90000915527344,-114.9000015258789,-14.100000381469727
422792,-2.5594537258148193,8.494826316833496,-3.731813907623291,-0.28201398253440857,0.05335399881005287,0.07621999830007553,216.3000030517578,-119.70000457763672,-15.90000057220459
422814,-2.7460744380950928,8.376394271850586,-3.7814598083496094,-0.457319974899292,0.16768398880958557,-0.16768398880958557,225.90000915527344,-117.30000305175781,-16.5
422834,-2.643791913986206,8.586342811584473,-3.945949077606201,0.060975998640060425,-0.10670799762010574,0.09146399796009064,233.10000610351562,-114.9000015258789,-23.100000381469727
422856,-2.4846858978271484,8.52413558959961,-3.6618313789367676,-0.09908600151538849,-0.4725639820098877,-0.19817200303077698,230.70001220703125,-122.10000610351562,-11.700000762939453
422876,-2.6479790210723877,8.519350051879883,-3.8729758262634277,0.060975998640060425,0.1295740008354187,-0.060975998640060425,245.10000610351562,-112.50000762939453,-10.5
422896,-2.5002377033233643,8.57677173614502,-3.9603044986724854,-0.07621999830007553,-0.08384199440479279,-0.1295740008354187,218.70001220703125,-117.30000305175781,-16.5
422916,-2.471526861190796,8.546266555786133,-3.7934226989746094,-0.1600620001554489,-0.19817200303077698,-0.114329993724823,233.10000610351562,-119.70000457763672,-18.900001525878906
422936,-2.4960505962371826,8.590529441833496,-3.9303975105285645,-0.10670799762010574,0.15243999660015106,-0.12195199728012085,228.3000030517578,-117.30000305175781,-11.700000762939453
422956,-2.4810969829559326,8.65752124786377,-4.048231601715088,0.015243999660015106,-0.007621999830007553,-0.09908600151538849,218.70001220703125,-107.70000457763672,-11.700000762939453
423000,-2.4517879486083984,8.650941848754883,-4.0105485916137695,-0.2439039945602417,0.06859800219535828,0.15243999660015106,221.10000610351562,-112.50000762939453,-12.300000190734863
423021,-2.3949644565582275,8.851319313049316,-4.044044494628906,-0.49542999267578125,0.38109999895095825,0.10670799762010574,235.50001525878906,-117.30000305175781,-11.700000762939453
423041,-2.537322521209717,8.742457389831543,-4.204347133636475,-0.41158798336982727,0.6326259970664978,-0.07621999830007553,233.10000610351562,-107.70000457763672,-18.30000114440918
423061,-2.7532520294189453,8.647353172302246,-4.18580436706543,-0.3734779953956604,0.1448179930448532,0.08384199440479279,225.90000915527344,-107.70000457763672,-13.500000953674316
423101,-3.2598791122436523,8.82799243927002,-4.0554094314575195,-0.35061198472976685,0.5335400104522705,0.4192099869251251,221.10000610351562,-117.30000305175781,-12.90000057220459
423121,-3.6654200553894043,8.94044303894043,-4.169056415557861,-0.571649968624115,0.6173819899559021,0.3582339882850647,228.3000030517578,-114.9000015258789,-11.700000762939453
423141,-4.16187858581543,8.870460510253906,-4.164271354675293,-0.6783579587936401,0.6631140112876892,0.2896359860897064,233.10000610351562,-112.50000762939453,-15.300000190734863
423161,-4.4430060386657715,8.883021354675293,-4.4101080894470215,-0.5868939757347107,0.6097599864006042,0.6554920077323914,221.10000610351562,-107.70000457763672,-17.100000381469727
423181,-5.155394077301025,8.659316062927246,-4.4848761558532715,-0.6478700041770935,0.8612859845161438,0.7469559907913208,223.50001525878906,-117.30000305175781,-21.900001525878906
423204,-5.062084197998047,9.080408096313477,-5.082420825958252,-0.13719600439071655,0.7621999979019165,1.5396440029144287,230.70001220703125,-122.10000610351562,-17.700000762939453
423225,-4.300049781799316,9.807750701904297,-4.898192882537842,-0.8460419774055481,-1.646351933479309,2.3628199100494385,223.50001525878906,-114.9000015258789,-16.5
423245,-4.246815204620361,9.580455780029297,-3.5451934337615967,-2.1494040489196777,-3.246971845626831,2.5076379776000977,228.3000030517578,-112.50000762939453,-16.5
423265,-4.28449821472168,9.129456520080566,-2.5020320415496826,-3.0259339809417725,-0.9984819889068604,2.987823963165283,223.50001525878906,-129.3000030517578,-15.90000057220459
423285,-4.066773891448975,8.903358459472656,-3.21382212638855,-2.843005895614624,1.9054999351501465,3.346057891845703,211.50001525878906,-138.90000915527344,-15.90000057220459
423305,-3.5392119884490967,9.140222549438477,-3.750356435775757,-2.324709892272949,0.5945159792900085,3.6814258098602295,216.3000030517578,-119.70000457763672,-11.700000762939453
423328,-3.1103434562683105,8.514565467834473,-2.9937055110931396,-1.829279899597168,-1.4329359531402588,3.5975840091705322,211.50001525878906,-134.10000610351562,-18.900001525878906
423348,-2.870488166809082,8.667689323425293,-2.911760091781616,-1.4862899780273438,-1.3109840154647827,3.8872199058532715,204.3000030517578,-119.70000457763672,-15.300000190734863
423412,-3.1928870677948,8.924293518066406,-3.026005268096924,-1.0747020244598389,0,3.871975898742676,185.10000610351562,-129.3000030517578,-23.100000381469727
423433,-3.3190953731536865,8.78313159942627,-2.9039840698242188,-1.0061039924621582,0.4192099869251251,3.9786839485168457,199.50001525878906,-134.10000610351562,-18.30000114440918
423453,-3.302945375442505,8.97932243347168,-2.6892507076263428,-1.1814099550247192,0.3734779953956604,4.17685604095459,185.10000610351562,-141.3000030517578,-16.5
423475,-3.6408963203430176,8.89857292175293,-2.6964285373687744,-1.3567159175872803,1.6158639192581177,4.047281742095947,185.10000610351562,-146.10000610351562,-18.30000114440918
423495,-4.012342929840088,8.667689323425293,-3.0158369541168213,-1.2347639799118042,2.073184013366699,4.062525749206543,182.70001220703125,-143.70001220703125,-21.30000114440918
423515,-4.033277988433838,8.495424270629883,-2.888432502746582,-1.1204339265823364,1.5015339851379395,4.39027214050293,197.10000610351562,-148.5,-18.30000114440918
423535,-3.9070699214935303,8.275307655334473,-2.659343719482422,-1.196653962135315,1.6311079263687134,4.565577983856201,177.90000915527344,-146.10000610351562,-21.900001525878906
423556,-3.585268974304199,8.467909812927246,-2.7089896202087402,-1.0289700031280518,1.875011920928955,4.89332389831543,175.5,-148.5,-18.900001525878906
423576,-3.4351351261138916,8.281289100646973,-2.613884687423706,-1.14329993724823,1.9512319564819336,4.53508996963501,158.70001220703125,-162.90000915527344,-18.30000114440918
423596,-3.278421640396118,8.2681303024292,-2.5534722805023193,-0.8307979702949524,1.8978779315948486,4.618931770324707,163.5,-158.10000610351562,-15.90000057220459
423619,-2.8543381690979004,8.355459213256836,-2.313616991043091,-0.9756159782409668,2.789651870727539,4.2988080978393555,153.90000915527344,-158.10000610351562,-21.30000114440918
423639,-2.6569511890411377,8.052200317382812,-2.4063291549682617,-1.021347999572754,3.307947874069214,3.917707920074463,156.3000030517578,-165.3000030517578,-20.100000381469727
423659,-2.289093255996704,7.960684776306152,-2.313018798828125,-0.7469559907913208,3.102154016494751,3.75002384185791,146.70001220703125,-160.5,-27.900001525878906
423679,-1.7190629243850708,8.689821243286133,-2.286102533340454,-0.5945159792900085,3.1173980236053467,3.5747179985046387,134.70001220703125,-160.5,-19.5
423699,-1.4164025783538818,8.34768295288086,-2.21492338180542,-0.5259180068969727,3.361301898956299,2.6067240238189697,137.10000610351562,-158.10000610351562,-23.100000381469727
423722,-1.0006932020187378,8.442788124084473,-2.2998597621917725,-0.2972579896450043,3.5442299842834473,2.7134318351745605,132.3000030517578,-160.5,-11.700000762939453
423743,-0.40554094314575195,8.752626419067383,-2.2310733795166016,-0.3048799932003021,3.452765941619873,2.797273874282837,132.3000030517578,-167.70001220703125,-23.100000381469727
423763,0.4653552174568176,9.28497314453125,-2.3028504848480225,-0.2439039945602417,3.8872199058532715,2.903981924057007,113.10000610351562,-167.70001220703125,-12.300000190734863
423783,0.7422954440116882,9.152185440063477,-2.670708417892456,0.08384199440479279,4.481735706329346,1.6844619512557983,132.3000030517578,-165.3000030517578,-14.700000762939453
423803,0.8625221848487854,9.035547256469727,-3.2299721240997314,0.6783579587936401,4.253076076507568,1.653973937034607,122.70000457763672,-155.70001220703125,-14.700000762939453
423823,1.4780112504959106,9.329236030578613,-3.3220860958099365,0.3734779953956604,3.3155698776245117,2.042695999145508,120.30000305175781,-165.3000030517578,-16.5
423846,1.7513625621795654,8.659316062927246,-3.186905860900879,-0.015243999660015106,3.0716660022735596,1.471045970916748,113.10000610351562,-165.3000030517578,-12.90000057220459
423886,2.2765321731567383,8.96018123626709,-3.592446804046631,-0.8307979702949524,3.757645845413208,1.8216580152511597,117.9000015258789,-162.90000915527344,-16.5
423909,2.137763023376465,8.430227279663086,-3.8580222129821777,-0.7469559907913208,3.8338658809661865,0.9603719711303711,113.10000610351562,-155.70001220703125,-14.100000381469727
423929,2.220306634902954,8.75023365020752,-4.173243522644043,-0.1600620001554489,3.6890478134155273,1.646351933479309,110.70000457763672,-162.90000915527344,-15.90000057220459
423949,3.5362212657928467,10.290452003479004,-4.529138565063477,-0.41158798336982727,2.850627899169922,3.307947874069214,108.30000305175781,-165.3000030517578,-8.700000762939453
423969,2.912358045578003,9.540380477905273,-3.9842302799224854,-1.2881180047988892,1.9436099529266357,1.1356779336929321,103.50000762939453,-155.70001220703125,-12.300000190734863
423993,2.0851263999938965,8.34170150756836,-4.611083984375,0,2.850627899169922,0.7012239694595337,91.5,-158.10000610351562,-9.300000190734863
424013,2.0917060375213623,8.445180892944336,-4.756433010101318,0.10670799762010574,0.6478700041770935,1.6387299299240112,86.70000457763672,-167.70001220703125,-15.90000057220459
424073,2.2514102458953857,8.72032642364502,-4.108046054840088,-1.3186060190200806,0.6326259970664978,1.0518360137939453,93.9000015258789,-160.5,-14.700000762939453
424096,1.7675124406814575,7.408598899841309,-3.7066919803619385,-1.7911700010299683,-0.038109999150037766,0.10670799762010574,91.5,-170.10000610351562,-15.90000057220459
424158,2.062995195388794,7.6448655128479,-3.473416328430176,-1.9436099529266357,-1.021347999572754,1.295740008354187,96.30000305175781,-165.3000030517578,-15.300000190734863
424315,2.7975146770477295,7.521647930145264,-2.868095636367798,-2.599102020263672,-2.736297845840454,1.1737879514694214,89.10000610351562,-179.70001220703125,-16.5
424356,3.070267915725708,8.333328247070312,-2.7526538372039795,-2.698187828063965,-2.0045859813690186,0.5564059615135193,91.5,-172.5,-16.5
424396,2.9703779220581055,7.971451282501221,-2.5415093898773193,-2.4695279598236084,-2.324709892272949,-0.6631140112876892,77.10000610351562,-177.3000030517578,-23.700000762939453
424555,1.555769920349121,10.981307029724121,0.015551717020571232,-2.2180018424987793,-5.2134480476379395,-0.739333987236023,81.9000015258789,-182.10000610351562,-34.5
424575,1.9170482158660889,11.851604461669922,0.10646945238113403,-2.088428020477295,-2.652456045150757,-0.5792719721794128,96.30000305175781,-177.3000030517578,-32.70000076293945
424615,1.5767048597335815,12.784110069274902,-0.32419347763061523,-1.875011920928955,-0.6631140112876892,-2.278977870941162,96.30000305175781,-170.10000610351562,-29.100000381469727
424638,0.2883049249649048,11.284564971923828,-0.4958605170249939,-1.5701320171356201,-0.16768398880958557,-3.7728898525238037,93.9000015258789,-165.3000030517578,-24.900001525878906
424658,-0.9755712151527405,10.161252975463867,-0.5467026829719543,-0.9375059604644775,-0.6326259970664978,-4.474113941192627,98.70000457763672,-177.3000030517578,-26.700000762939453
424680,-1.0844331979751587,9.250879287719727,-0.915158748626709,0.1600620001554489,-0.7926880121231079,-3.6356940269470215,84.30000305175781,-174.90000915527344,-28.500001907348633
424720,-0.17047074437141418,8.947022438049316,-0.9671971797943115,0.3048799932003021,-1.242385983467102,1.2347639799118042,101.10000610351562,-162.90000915527344,-32.70000076293945
424744,0.42468151450157166,8.87285327911377,-1.1765471696853638,0.5868939757347107,-1.7454379796981812,2.1189160346984863,93.9000015258789,-167.70001220703125,-32.70000076293945
424764,0.8015115857124329,8.748438835144043,-1.1215180158615112,0.3582339882850647,-1.8445239067077637,2.4695279598236084,103.50000762939453,-162.90000915527344,-30.30000114440918
424785,1.4522911310195923,8.585145950317383,-1.217819094657898,0.4878079891204834,-1.8978779315948486,2.6677000522613525,98.70000457763672,-165.3000030517578,-28.500001907348633
424805,2.059406280517578,9.180896759033203,-0.7207622528076172,0.17530599236488342,-1.9740979671478271,3.2622158527374268,96.30000305175781,-162.90000915527344,-24.30000114440918
424825,1.9834420680999756,9.08100700378418,-0.8230447173118591,-0.2439039945602417,-0.342989981174469,2.644834041595459,98.70000457763672,-165.3000030517578,-28.500001907348633
424847,2.0348823070526123,9.062463760375977,-0.9803563356399536,-0.030487999320030212,0.07621999830007553,2.5152599811553955,79.5,-177.3000030517578,-28.500001907348633
424867,2.1898014545440674,9.951902389526367,-0.6555647253990173,-0.007621999830007553,0.5335400104522705,2.4542839527130127,91.5,-165.3000030517578,-30.900001525878906
424887,1.3607752323150635,9.745543479919434,-1.1113495826721191,-0.038109999150037766,2.0655620098114014,0.7012239694595337,91.5,-172.5,-31.500001907348633
424911,0.7973245978355408,9.485949516296387,-1.3141200542449951,0.7164679765701294,1.6768399477005005,-0.4039659798145294,96.30000305175781,-174.90000915527344,-27.30000114440918
424931,1.021030068397522,9.663000106811523,-0.812876284122467,0.35061198472976685,1.8521459102630615,-0.46494197845458984,79.5,-170.10000610351562,-30.30000114440918
424951,0.3828114867210388,9.462023735046387,-1.22499680519104,0.4192099869251251,2.942091941833496,-0.228659987449646,74.70000457763672,-174.90000915527344,-21.900001525878906
424971,0.1178341656923294,9.334020614624023,-1.2848111391067505,0.4878079891204834,2.339953899383545,0.26677000522613525,74.70000457763672,-184.5,-29.700000762939453
425036,0.3792226314544678,9.04691219329834,-1.2525113821029663,0.19054999947547913,1.524399995803833,1.4100699424743652,77.10000610351562,-174.90000915527344,-24.900001525878906
425056,0.7046124339103699,8.88960075378418,-1.0204318761825562,0.2743920087814331,0.4725639820098877,1.6692179441452026,69.9000015258789,-172.5,-20.100000381469727
425076,1.2716519832611084,8.94343376159668,-0.8882423043251038,0.2743920087814331,-0.1600620001554489,1.9740979671478271,77.10000610351562,-167.70001220703125,-24.30000114440918
425096,1.9026927947998047,8.60189437866211,-0.3941762149333954,-0.3048799932003021,-0.5030519962310791,2.042695999145508,69.9000015258789,-172.5,-19.5
425139,2.3417296409606934,9.00205135345459,-0.3750356435775757,-0.6631140112876892,0.7926880121231079,1.653973937034607,72.30000305175781,-174.90000915527344,-25.500001907348633
425161,2.7197561264038086,9.008631706237793,-0.3696523606777191,-0.5487840175628662,1.14329993724823,1.5625100135803223,74.70000457763672,-170.10000610351562,-24.30000114440918
425181,2.984135389328003,8.891395568847656,-0.5203843712806702,-0.33536797761917114,1.7225719690322876,1.577754020690918,65.10000610351562,-170.10000610351562,-22.5
425201,2.4158995151519775,8.311196327209473,-1.3272792100906372,0.3887220025062561,2.9725799560546875,1.2118979692459106,60.30000305175781,-174.90000915527344,-25.500001907348633
425225,2.4757137298583984,8.4415922164917,-1.7609329223632812,1.2728739976882935,2.3094658851623535,1.7149499654769897,62.70000076293945,-167.70001220703125,-25.500001907348633
425305,3.708486318588257,10.50219440460205,-4.24262809753418,2.2027578353881836,6.036623954772949,1.7759259939193726,53.10000228881836,-172.5,-29.100000381469727
425350,3.6283352375030518,10.319162368774414,-3.8640036582946777,0.8307979702949524,2.446661949157715,-0.7774440050125122,50.70000076293945,-167.70001220703125,-26.100000381469727
425390,2.6754934787750244,8.580361366271973,-4.732507228851318,2.5152599811553955,0.038109999150037766,-0.8307979702949524,50.70000076293945,-172.5,-32.10000228881836
425410,2.851945638656616,8.525331497192383,-3.6917383670806885,1.5091559886932373,-1.753059983253479,0,60.30000305175781,-179.70001220703125,-18.30000114440918
425450,2.9488449096679688,7.630509853363037,-3.6379055976867676,1.2042759656906128,-0.15243999660015106,0.6097599864006042,55.500003814697266,-170.10000610351562,-18.900001525878906
425613,4.32935905456543,8.238821029663086,-3.2287757396698,-0.8231759667396545,0.2972579896450043,1.1128119230270386,36.30000305175781,-182.10000610351562,-21.30000114440918
425633,4.353882789611816,8.231045722961426,-3.2443275451660156,-0.8155539631843567,0.17530599236488342,1.3033620119094849,43.5,-167.70001220703125,-23.100000381469727
425653,4.146327018737793,8.120986938476562,-3.3783113956451416,-1.2576299905776978,-0.2134159952402115,1.1280559301376343,31.500001907348633,-162.90000915527344,-21.900001525878906
425693,4.033876419067383,8.113809585571289,-3.1516153812408447,-1.5091559886932373,-0.5487840175628662,0.8993960022926331,31.500001907348633,-179.70001220703125,-29.100000381469727
425715,3.827516794204712,7.937955379486084,-3.121109962463379,-1.806414008140564,-0.6326259970664978,0.426831990480423,33.900001525878906,-158.10000610351562,-17.700000762939453
425735,3.6379055976867676,7.547368049621582,-2.975163221359253,-1.8673899173736572,-0.8231759667396545,-0.060975998640060425,41.10000228881836,-174.90000915527344,-28.500001907348633
425757,3.8681905269622803,7.989993572235107,-2.825029134750366,-1.699705958366394,-0.7317119836807251,-0.02286599949002266,26.700000762939453,-162.90000915527344,-22.5
425797,3.919631004333496,7.952908992767334,-2.4733211994171143,-1.753059983253479,-0.4420759975910187,0.07621999830007553,43.5,-165.3000030517578,-24.900001525878906
425817,3.830507516860962,8.059976577758789,-2.4218809604644775,-1.5320219993591309,-0.1600620001554489,0.2972579896450043,50.70000076293945,-174.90000915527344,-24.30000114440918
425837,3.7192530632019043,8.1843900680542,-2.286700487136841,-1.3033620119094849,-0.4344539940357208,0.6173819899559021,31.500001907348633,-172.5,-29.700000762939453
425857,3.744374990463257,8.30282211303711,-2.012152910232544,-1.2728739976882935,-0.5564059615135193,0.9527499675750732,43.5,-174.90000915527344,-21.900001525878906
425877,4.012941360473633,9.07083797454834,-2.1114447116851807,-0.9984819889068604,-0.41158798336982727,1.6311079263687134,38.70000076293945,-177.3000030517578,-32.70000076293945
425897,4.8599114418029785,10.841341018676758,-2.545098304748535,-0.9603719711303711,-0.571649968624115,3.346057891845703,38.70000076293945,-179.70001220703125,-24.30000114440918
425918,3.7868430614471436,9.05409049987793,-1.4301598072052002,-2.743919849395752,-2.3628199100494385,0.7926880121231079,21.900001525878906,-172.5,-19.5
425938,2.289093255996704,7.067657470703125,-0.7680155634880066,-2.0122079849243164,-2.027451992034912,0.8460419774055481,24.30000114440918,-174.90000915527344,-23.100000381469727
425959,2.5259578227996826,8.848328590393066,-0.9253271818161011,-1.4329359531402588,-1.4558019638061523,2.949713945388794,26.700000762939453,-177.3000030517578,-18.30000114440918
425979,2.6958303451538086,10.505783081054688,-0.5831893682479858,-2.5000159740448,-2.3628199100494385,2.2561118602752686,33.900001525878906,-177.3000030517578,-27.30000114440918
425999,2.7137746810913086,10.557223320007324,0.12979702651500702,-2.743919849395752,-1.7225719690322876,0.15243999660015106,29.100000381469727,-189.3000030517578,-25.500001907348633
426019,2.48887300491333,9.572081565856934,-0.1632930338382721,-2.378063917160034,-0.7164679765701294,-0.9451279640197754,21.900001525878906,-177.3000030517578,-24.30000114440918
426059,2.342327833175659,9.87653636932373,-0.2506219148635864,-0.7774440050125122,-0.7545779943466187,-1.1356779336929321,19.5,-160.5,-19.5
426122,1.9810495376586914,9.563109397888184,-0.4647570848464966,0.2896359860897064,-0.7926880121231079,-1.1128119230270386,26.700000762939453,-174.90000915527344,-27.30000114440918
426255,2.548687219619751,8.38955307006836,-0.912168025970459,-0.2972579896450043,0.28201398253440857,-1.8369019031524658,43.5,-177.3000030517578,-27.30000114440918
426295,2.628838300704956,8.403310775756836,-1.430757999420166,0.3201240003108978,0.46494197845458984,-1.3109840154647827,41.10000228881836,-174.90000915527344,-25.500001907348633
426315,2.856132745742798,8.893189430236816,-1.640706181526184,0.49542999267578125,0.228659987449646,-1.2271419763565063,43.5,-174.90000915527344,-28.500001907348633
426355,2.9793500900268555,9.444677352905273,-2.130585193634033,0.853663980960846,0.3277460038661957,-1.806414008140564,45.900001525878906,-174.90000915527344,-23.100000381469727
426378,3.451284885406494,10.364023208618164,-2.635417938232422,1.3872039318084717,0.20579399168491364,-1.5548880100250244,48.30000305175781,-162.90000915527344,-29.100000381469727
426398,3.782058000564575,10.674459457397461,-2.7059988975524902,0.800309956073761,-0.7164679765701294,-1.9740979671478271,43.5,-177.3000030517578,-27.30000114440918
426418,3.1546061038970947,9.59182071685791,-2.083332061767578,-0.08384199440479279,-0.9756159782409668,-2.5076379776000977,43.5,-170.10000610351562,-27.900001525878906
426478,2.5767998695373535,8.601295471191406,-2.2484195232391357,0.10670799762010574,0.17530599236488342,-0.4344539940357208,60.30000305175781,-172.5,-29.100000381469727
426498,2.512798547744751,8.528322219848633,-2.232269525527954,0.35061198472976685,0.18292799592018127,-0.5182960033416748,55.500003814697266,-172.5,-26.700000762939453
426520,2.5971367359161377,8.75023365020752,-2.1359684467315674,0.5868939757347107,0.10670799762010574,-0.6478700041770935,45.900001525878906,-179.70001220703125,-21.30000114440918
426540,2.6270439624786377,8.75202751159668,-2.0312936305999756,0.5030519962310791,0.426831990480423,-0.9908599853515625,48.30000305175781,-182.10000610351562,-26.700000762939453
426560,2.5863702297210693,8.84174919128418,-2.0037789344787598,0.5030519962310791,0.7621999979019165,-1.2271419763565063,50.70000076293945,-184.5,-26.100000381469727
426580,2.566631555557251,8.98530387878418,-2.1120429039001465,0.5182960033416748,0.9984819889068604,-1.2347639799118042,55.500003814697266,-179.70001220703125,-27.900001525878906
426602,2.2759339809417725,8.686232566833496,-2.2585878372192383,0.5792719721794128,1.1356779336929321,-1.2500079870224,55.500003814697266,-167.70001220703125,-26.100000381469727
426623,2.2549989223480225,9.170727729797363,-2.2944765090942383,0.7012239694595337,0.9908599853515625,-1.1737879514694214,50.70000076293945,-182.10000610351562,-23.100000381469727
426644,2.131781578063965,8.78612232208252,-2.4637508392333984,0.2134159952402115,0.9908599853515625,-1.3795819282531738,53.10000228881836,-177.3000030517578,-30.900001525878906
426664,2.119220495223999,9.082202911376953,-2.6850638389587402,0.800309956073761,0.8460419774055481,-1.0365920066833496,62.70000076293945,-172.5,-36.900001525878906
426684,2.112640857696533,9.575671195983887,-2.7257375717163086,0.739333987236023,0.5182960033416748,-1.1509219408035278,65.10000610351562,-162.90000915527344,-32.70000076293945
426704,1.9870309829711914,9.62651252746582,-2.5110042095184326,0.3125019967556,0.3048799932003021,-1.5015339851379395,62.70000076293945,-170.10000610351562,-26.700000762939453
426784,2.0318915843963623,9.247888565063477,-2.0881171226501465,-0.3887220025062561,-0.2743920087814331,-0.3582339882850647,67.5,-172.5,-25.500001907348633
426893,1.9798532724380493,9.28317928314209,-2.131183385848999,-0.02286599949002266,-0.07621999830007553,-0.28201398253440857,65.10000610351562,-182.10000610351562,-27.30000114440918
426914,1.9457590579986572,8.967957496643066,-1.9690866470336914,-0.228659987449646,0.038109999150037766,-0.4878079891204834,67.5,-167.70001220703125,-29.100000381469727
426955,2.008563995361328,8.79987907409668,-2.1389591693878174,-0.015243999660015106,0.26677000522613525,-0.2439039945602417,67.5,-174.90000915527344,-23.100000381469727
426975,2.0528266429901123,9.134839057922363,-2.2705507278442383,0.20579399168491364,0.19817200303077698,0.19817200303077698,55.500003814697266,-182.10000610351562,-27.30000114440918
426995,2.0791449546813965,9.096558570861816,-2.1927921772003174,0.030487999320030212,0.16768398880958557,0.2439039945602417,74.70000457763672,-170.10000610351562,-22.5
427015,2.1323797702789307,9.289758682250977,-2.2484195232391357,0.015243999660015106,0.23628199100494385,0.2134159952402115,45.900001525878906,-174.90000915527344,-30.900001525878906
427038,2.1066596508026123,9.036744117736816,-2.2226991653442383,-0.19817200303077698,0.1448179930448532,0.060975998640060425,77.10000610351562,-172.5,-18.900001525878906
427099,1.9971994161605835,9.063660621643066,-2.1652774810791016,-0.2896359860897064,-0.13719600439071655,-0.015243999660015106,72.30000305175781,-172.5,-21.30000114440918
427195,1.916450023651123,9.251477241516113,-2.193390369415283,-0.10670799762010574,-0.4192099869251251,0.09146399796009064,60.30000305175781,-182.10000610351562,-21.30000114440918
427216,1.9559274911880493,9.12766170501709,-2.140155553817749,-0.39634400606155396,-0.2896359860897064,0.05335399881005287,72.30000305175781,-172.5,-27.30000114440918
427256,1.9206371307373047,9.18747615814209,-2.26576566696167,-0.2743920087814331,-0.16768398880958557,-0.09908600151538849,62.70000076293945,-174.90000915527344,-22.5
427278,1.8781689405441284,9.047510147094727,-2.202362537384033,-0.23628199100494385,-0.09908600151538849,0.060975998640060425,72.30000305175781,-172.5,-24.900001525878906
427298,1.937385082244873,9.106128692626953,-2.151520252227783,-0.2134159952402115,-0.08384199440479279,0.19817200303077698,60.30000305175781,-162.90000915527344,-25.500001907348633
427322,1.8781689405441284,9.099549293518066,-2.2400453090667725,-0.17530599236488342,-0.015243999660015106,0.18292799592018127,67.5,-177.3000030517578,-17.700000762939453
427343,1.9559274911880493,9.20721435546875,-2.1718571186065674,-0.09908600151538849,0.015243999660015106,0.1448179930448532,60.30000305175781,-179.70001220703125,-24.900001525878906
427363,1.9631052017211914,9.206018447875977,-2.253204584121704,-0.09908600151538849,0.12195199728012085,-0.07621999830007553,62.70000076293945,-184.5,-23.100000381469727
427383,1.9505442380905151,8.993678092956543,-2.23585844039917,-0.12195199728012085,0.17530599236488342,-0.15243999660015106,69.9000015258789,-184.5,-21.30000114440918
427403,1.9876290559768677,9.072632789611816,-2.232269525527954,0.007621999830007553,0.22103799879550934,-0.015243999660015106,60.30000305175781,-170.10000610351562,-26.700000762939453
427423,2.062397003173828,9.21140193939209,-2.2310733795166016,-0.13719600439071655,0.426831990480423,-0.038109999150037766,60.30000305175781,-184.5,-24.30000114440918
427443,2.054023027420044,9.101343154907227,-2.21193265914917,-0.20579399168491364,0.49542999267578125,-0.10670799762010574,62.70000076293945,-165.3000030517578,-22.5
427463,2.140753746032715,9.108521461486816,-2.19996976852417,-0.1448179930448532,0.510673999786377,-0.114329993724823,62.70000076293945,-174.90000915527344,-21.30000114440918
427483,2.1892032623291016,9.053491592407227,-2.226288080215454,-0.18292799592018127,0.6554920077323914,-0.015243999660015106,62.70000076293945,-182.10000610351562,-21.30000114440918
427507,2.1742496490478516,9.05887508392334,-2.2496156692504883,-0.19054999947547913,0.7240899801254272,0.2439039945602417,62.70000076293945,-174.90000915527344,-30.30000114440918
427527,2.2430360317230225,9.05588436126709,-2.25380277633667,-0.2743920087814331,0.571649968624115,0.2896359860897064,67.5,-174.90000915527344,-24.900001525878906
427547,2.307037353515625,9.05409049987793,-2.2244937419891357,-0.26677000522613525,0.4878079891204834,0.2896359860897064,65.10000610351562,-162.90000915527344,-26.100000381469727
427567,2.334552049636841,9.02896785736084,-2.1898014545440674,-0.3201240003108978,0.39634400606155396,0.22103799879550934,72.30000305175781,-182.10000610351562,-21.900001525878906
427607,2.40513277053833,9.077417373657227,-2.143744468688965,-0.3277460038661957,0.3125019967556,0.2591480016708374,57.900001525878906,-177.3000030517578,-18.900001525878906
427627,2.3770201206207275,9.006836891174316,-2.163483142852783,-0.38109999895095825,0.2896359860897064,0.15243999660015106,53.10000228881836,-167.70001220703125,-27.30000114440918
427647,2.4691340923309326,9.02896785736084,-2.0845282077789307,-0.2896359860897064,0.15243999660015106,0.19817200303077698,57.900001525878906,-177.3000030517578,-23.100000381469727
427667,2.5235652923583984,9.04392147064209,-2.086322784423828,-0.3582339882850647,0.19817200303077698,0.114329993724823,72.30000305175781,-165.3000030517578,-26.100000381469727
427689,2.536126136779785,8.774757385253906,-2.1120429039001465,-0.4039659798145294,0.16768398880958557,0.23628199100494385,74.70000457763672,-172.5,-20.700000762939453
427709,2.6001274585723877,9.250879287719727,-2.1856143474578857,0.060975998640060425,0.02286599949002266,0.5411620140075684,55.500003814697266,-177.3000030517578,-26.700000762939453
427729,2.6252493858337402,9.2401123046875,-2.1144354343414307,-0.228659987449646,-0.05335399881005287,0.46494197845458984,57.900001525878906,-179.70001220703125,-26.700000762939453
427749,2.635417938232422,9.260449409484863,-2.1569035053253174,-0.13719600439071655,-0.12195199728012085,0.3734779953956604,43.5,-160.5,-26.700000762939453
427773,2.7000174522399902,9.23712158203125,-2.0247139930725098,-0.28201398253440857,-0.2439039945602417,0.3048799932003021,60.30000305175781,-167.70001220703125,-20.700000762939453
427793,2.820244073867798,9.155774116516113,-2.0259101390838623,-0.5030519962310791,-0.09146399796009064,0.20579399168491364,60.30000305175781,-177.3000030517578,-20.100000381469727
427817,2.885441780090332,8.87464714050293,-1.928412914276123,-0.6478700041770935,-0.030487999320030212,0.17530599236488342,50.70000076293945,-170.10000610351562,-18.900001525878906
427837,2.859123468399048,8.64376449584961,-1.815363883972168,-0.685979962348938,0.1448179930448532,0.23628199100494385,60.30000305175781,-165.3000030517578,-27.900001525878906
427857,2.875871419906616,8.568398475646973,-1.7794753313064575,-0.5487840175628662,0.20579399168491364,0.3125019967556,53.10000228881836,-167.70001220703125,-26.100000381469727
427919,2.861515998840332,8.289663314819336,-1.6401079893112183,-0.3887220025062561,-0.15243999660015106,0.3125019967556,57.900001525878906,-177.3000030517578,-29.700000762939453
427961,2.552276134490967,7.6981000900268555,-1.4989463090896606,-0.5868939757347107,0.030487999320030212,-0.02286599949002266,60.30000305175781,-184.5,-19.5
427981,1.8662060499191284,6.511982440948486,-1.3894860744476318,-0.7621999979019165,-0.39634400606155396,-1.0823240280151367,57.900001525878906,-167.70001220703125,-20.700000762939453
428001,1.0365817546844482,4.678076267242432,-1.0832369327545166,-0.8307979702949524,-0.6554920077323914,-2.179892063140869,48.30000305175781,-177.3000030517578,-17.700000762939453
428024,-0.3397451937198639,2.3297669887542725,-1.0539278984069824,-0.038109999150037766,0.4344539940357208,-0.5182960033416748,69.9000015258789,-167.70001220703125,-26.100000381469727
428044,0.09031958878040314,4.292273998260498,-1.8674023151397705,-0.228659987449646,1.417691946029663,4.504601955413818,36.30000305175781,-172.5,-30.900001525878906
428064,-0.20396675169467926,6.565217018127441,-2.0635931491851807,-0.6707359552383423,1.5472660064697266,5.899427890777588,55.500003814697266,-172.5,-31.500001907348633
428084,-0.1955927461385727,9.078614234924316,-3.192289113998413,0.5792719721794128,4.009171962738037,7.522913932800293,45.900001525878906,-179.70001220703125,-27.30000114440918
428104,1.4762169122695923,13.30449390411377,-4.52854061126709,-0.3201240003108978,2.39330792427063,9.176887512207031,48.30000305175781,-177.3000030517578,-20.700000762939453
428126,2.8011035919189453,17.73733139038086,-4.45975399017334,-1.2804960012435913,1.3872039318084717,7.957367897033691,26.700000762939453,-184.5,-29.100000381469727
428146,5.370725631713867,18.382129669189453,-5.4293437004089355,1.0823240280151367,3.658559799194336,3.3155698776245117,19.5,-184.5,-28.500001907348633
428208,10.513559341430664,19.599349975585938,-6.156087398529053,-0.4878079891204834,0.06859800219535828,-2.5000159740448,2.700000047683716,-177.3000030517578,-33.900001525878906
428230,7.151397228240967,18.60284423828125,-4.726525783538818,-3.246971845626831,-4.6951518058776855,-5.282045841217041,5.100000381469727,-162.90000915527344,-26.700000762939453
428250,4.578186511993408,14.363805770874023,-2.054023027420044,-4.131124019622803,-5.663146018981934,-4.992409706115723,9.90000057220459,-177.3000030517578,-27.900001525878906
428270,2.762822389602661,9.686925888061523,-0.724949300289154,-2.2637338638305664,-3.910085916519165,-8.033587455749512,12.300000190734863,-170.10000610351562,-18.900001525878906
428353,0.4486072361469269,0.3798207938671112,0.5772079825401306,0.6707359552383423,0.015243999660015106,0.5030519962310791,65.10000610351562,-184.5,-25.500001907348633
428398,0.352904349565506,0.45279422402381897,0.21533146500587463,0.19817200303077698,1.6768399477005005,-0.6097599864006042,57.900001525878906,-177.3000030517578,-26.700000762939453
428418,-0.0705808699131012,-0.43963509798049927,0.23507018387317657,-0.05335399881005287,1.3262280225753784,-0.22103799879550934,53.10000228881836,-177.3000030517578,-28.500001907348633
428438,-0.28351977467536926,-0.602928102016449,0.24344418942928314,-0.19817200303077698,1.1661659479141235,-0.05335399881005287,45.900001525878906,-174.90000915527344,-23.700000762939453
428502,0.10467501729726791,-0.5443100929260254,0.32479164004325867,-0.38109999895095825,0.5335400104522705,1.6311079263687134,53.10000228881836,-184.5,-25.500001907348633
428542,1.4959555864334106,4.471118927001953,-0.7907450199127197,2.073184013366699,2.6067240238189697,8.239381790161133,41.10000228881836,-177.3000030517578,-28.500001907348633
428572,4.939464569091797,14.627586364746094,-2.0552191734313965,0.46494197845458984,5.426863670349121,16.227237701416016,24.30000114440918,-177.3000030517578,-20.100000381469727
428633,10.146299362182617,19.311046600341797,-5.8767547607421875,6.333881855010986,3.910085916519165,7.347607612609863,9.90000057220459,-165.3000030517578,-24.900001525878906
428654,18.308557510375977,19.560470581054688,-7.170537948608398,-1.1737879514694214,10.594579696655273,16.143396377563477,-6.900000095367432,-155.70001220703125,-24.900001525878906
428674,16.2976016998291,19.599349975585938,-8.412282943725586,1.7606819868087769,-0.4344539940357208,-0.7469559907913208,-9.300000190734863,-172.5,-25.500001907348633
428696,12.933645248413086,19.598752975463867,-6.992889404296875,-2.0960500240325928,-9.489389419555664,-6.059489727020264,-4.5,-170.10000610351562,-28.500001907348633
428717,9.06784725189209,18.20149040222168,-3.4153964519500732,-3.8262438774108887,-13.155571937561035,-7.774439811706543,-9.300000190734863,-162.90000915527344,-18.900001525878906
428778,-0.2117426097393036,1.338644027709961,-0.39656877517700195,-0.48018598556518555,-5.0000319480896,-16.45589828491211,41.10000228881836,-174.90000915527344,-24.900001525878906
428873,0.2147333323955536,0.19977974891662598,-0.2326776087284088,-0.6554920077323914,-0.6021379828453064,-0.4344539940357208,48.30000305175781,-182.10000610351562,-26.700000762939453
428893,0.07117900997400284,-0.31282877922058105,0.033496007323265076,-0.9908599853515625,-1.1814099550247192,0.02286599949002266,57.900001525878906,-174.90000915527344,-26.100000381469727
428936,-0.022729432210326195,-0.34094148874282837,0.36905422806739807,-1.2728739976882935,-0.7926880121231079,1.6692179441452026,48.30000305175781,-179.70001220703125,-23.100000381469727
428956,-0.40972793102264404,-0.37862449884414673,0.28770676255226135,-1.7835479974746704,0.04573199898004532,0.9527499675750732,50.70000076293945,-170.10000610351562,-27.30000114440918
428976,-0.7542582750320435,-0.7847635746002197,0.16269488632678986,-1.7987920045852661,0.2896359860897064,0.2972579896450043,50.70000076293945,-167.70001220703125,-32.70000076293945
428997,-0.6800885796546936,-0.5108140707015991,0.06699201464653015,-1.0594580173492432,0.114329993724823,0.7698220014572144,48.30000305175781,-182.10000610351562,-21.30000114440918
429017,0.12202116847038269,1.8596265316009521,-0.0927121639251709,0.1448179930448532,0.3201240003108978,3.0792880058288574,33.900001525878906,-182.10000610351562,-21.900001525878906
429037,0.3206046223640442,4.652356147766113,-0.44501838088035583,0.5182960033416748,2.4619059562683105,5.304912090301514,38.70000076293945,-155.70001220703125,-29.100000381469727
429097,8.75322437286377,19.599349975585938,-5.4209699630737305,-1.0442140102386475,5.0533857345581055,9.86286735534668,7.500000476837158,-179.70001220703125,-23.700000762939453
429117,11.184675216674805,19.599349975585938,-5.703293323516846,1.8673899173736572,3.094532012939453,6.7835798263549805,9.90000057220459,-165.3000030517578,-23.700000762939453
429141,19.46237564086914,19.599349975585938,-6.82002592086792,-2.126538038253784,11.364401817321777,15.495525360107422,-21.30000114440918,-165.3000030517578,-15.300000190734863
429182,13.22075366973877,19.599349975585938,-7.157378673553467,-3.5213639736175537,-10.007685661315918,-5.960403919219971,-21.30000114440918,-165.3000030517578,-24.900001525878906
429224,4.394556522369385,11.697283744812012,0.2117426097393036,-4.0396599769592285,-8.10218620300293,-10.96043586730957,2.700000047683716,-170.10000610351562,-30.30000114440918
429244,2.1981754302978516,6.3211750984191895,-0.1943964660167694,0.28201398253440857,-2.042695999145508,-18.55194664001465,24.30000114440918,-186.90000915527344,-26.100000381469727
429264,-0.8021097183227539,-1.3673548698425293,0.29069748520851135,-0.5487840175628662,-2.28659987449646,-19.100730895996094,41.10000228881836,-182.10000610351562,-24.30000114440918
429284,-2.250213861465454,-3.672597885131836,1.4654502868652344,-1.2804960012435913,-1.0518360137939453,-8.338467597961426,41.10000228881836,-172.5,-24.900001525878906
429367,0.10407687723636627,0.040673721581697464,0.23507018387317657,0.739333987236023,-0.4725639820098877,-0.7164679765701294,53.10000228881836,-170.10000610351562,-21.30000114440918
429436,-0.06818830221891403,-0.4181019365787506,0.2135370373725891,-0.7926880121231079,-0.33536797761917114,-1.1280559301376343,38.70000076293945,-179.70001220703125,-27.900001525878906
429476,-0.1058713048696518,-1.015048623085022,0.37443751096725464,-1.0289700031280518,0.10670799762010574,-0.228659987449646,38.70000076293945,-182.10000610351562,-29.100000381469727
429496,0.7363139986991882,1.8069899082183838,-0.3367545008659363,1.2881180047988892,1.806414008140564,3.4908759593963623,43.5,-184.5,-24.900001525878906
429536,0.7722025513648987,5.481980323791504,-0.3917836546897888,0.3201240003108978,2.324709892272949,3.1783738136291504,36.30000305175781,-170.10000610351562,-29.100000381469727
429556,3.911256790161133,12.282267570495605,-3.2832067012786865,2.957335948944092,9.03207015991211,15.419305801391602,31.500001907348633,-184.5,-20.700000762939453
429576,6.467720031738281,19.569442749023438,-4.611083984375,-0.7545779943466187,9.832379341125488,14.085455894470215,17.100000381469727,-184.5,-25.500001907348633
429596,8.53789234161377,19.55807876586914,-6.843353748321533,2.8048958778381348,9.352193832397461,5.350644111633301,5.100000381469727,-158.10000610351562,-25.500001907348633
429618,12.824783325195312,19.599349975585938,-7.673576354980469,2.3475759029388428,3.2241058349609375,4.67990779876709,-9.300000190734863,-170.10000610351562,-28.500001907348633
429638,16.618804931640625,19.599349975585938,-6.51437520980835,-2.652456045150757,2.5609920024871826,8.300357818603516,2.700000047683716,-165.3000030517578,-26.100000381469727
429658,14.96493911743164,19.599349975585938,-7.2776055335998535,1.0823240280151367,-1.1356779336929321,-1.0594580173492432,-16.5,-174.90000915527344,-26.700000762939453
429678,13.249464988708496,19.599349975585938,-6.554450511932373,-2.088428020477295,-4.5503339767456055,-2.0655620098114014,-26.100000381469727,-172.5,-23.100000381469727
429698,9.122876167297363,18.808605194091797,-4.63201904296875,-3.048799991607666,-8.673835754394531,-4.89332389831543,-18.900001525878906,-153.3000030517578,-29.100000381469727
429718,5.401829242706299,12.642350196838379,-2.7293264865875244,-3.551851987838745,-9.57323169708252,-8.628104209899902,9.90000057220459,-170.10000610351562,-18.30000114440918
429738,2.5319392681121826,7.680753707885742,-0.2763420641422272,-2.3475759029388428,-8.186027526855469,-13.269901275634766,5.100000381469727,-167.70001220703125,-20.100000381469727
429758,-0.362474650144577,0.8529518842697144,0.3445303440093994,0.5335400104522705,-2.637212038040161,-17.439136505126953,21.900001525878906,-162.90000915527344,-23.100000381469727
429780,-2.235260248184204,-2.595940589904785,-0.3206046223640442,0.02286599949002266,1.5472660064697266,-10.548848152160645,31.500001907348633,-177.3000030517578,-30.30000114440918
429800,-1.1897063255310059,-1.4630577564239502,-1.0581148862838745,-0.5487840175628662,0.48018598556518555,-1.7606819868087769,43.5,-170.10000610351562,-23.100000381469727
429820,0.20516303181648254,0.9271215796470642,-0.46714967489242554,1.3338500261306763,-1.8445239067077637,-0.4039659798145294,41.10000228881836,-174.90000915527344,-27.30000114440918
429840,0.46894410252571106,0.7632304430007935,-0.5407212376594543,1.8369019031524658,-1.5472660064697266,-1.471045970916748,48.30000305175781,-179.70001220703125,-30.30000114440918
429880,0.36127835512161255,0.041271865367889404,0.10766573250293732,0.6173819899559021,-2.1570260524749756,-1.2576299905776978,50.70000076293945,-170.10000610351562,-26.700000762939453
429944,-0.35230621695518494,-0.9665990471839905,0.3852040767669678,-2.2180018424987793,0.41158798336982727,0.6478700041770935,48.30000305175781,-177.3000030517578,-26.700000762939453
429984,0.43664437532424927,2.071967363357544,-0.28292161226272583,-0.3734779953956604,1.0823240280151367,4.8018598556518555,50.70000076293945,-170.10000610351562,-27.900001525878906
430018,1.545601487159729,6.52035665512085,-1.3547937870025635,1.1509219408035278,3.1326420307159424,9.39792537689209,36.30000305175781,-177.3000030517578,-28.500001907348633
430038,4.297059059143066,12.845120429992676,-2.2998597621917725,-0.1295740008354187,5.083873748779297,15.625099182128906,21.900001525878906,-167.70001220703125,-21.30000114440918
430080,9.396227836608887,19.563461303710938,-6.092086315155029,1.6387299299240112,8.048831939697266,5.129605770111084,0.30000001192092896,-172.5,-26.700000762939453
430122,16.861051559448242,19.599349975585938,-6.064571380615234,-0.9756159782409668,7.423827648162842,6.234796047210693,-4.5,-174.90000915527344,-26.700000762939453
430194,4.121204853057861,12.171611785888672,-0.503038227558136,-4.184477806091309,-7.484803676605225,-8.437553405761719,-2.1000001430511475,-177.3000030517578,-28.500001907348633
430255,-1.7914382219314575,-3.738393545150757,0.39537250995635986,-0.7774440050125122,1.9207439422607422,-7.904013633728027,41.10000228881836,-174.90000915527344,-31.500001907348633
430295,1.0551241636276245,1.9840402603149414,-0.46894410252571106,2.2713558673858643,-0.007621999830007553,2.8734939098358154,41.10000228881836,-179.70001220703125,-28.500001907348633
430372,-0.17405959963798523,-0.6836774349212646,0.14475059509277344,0.2134159952402115,-1.7378159761428833,-1.2271419763565063,36.30000305175781,-167.70001220703125,-23.700000762939453
430435,-0.49645867943763733,-0.7865580320358276,0.24224790930747986,-1.524399995803833,0.5945159792900085,0.3582339882850647,41.10000228881836,-172.5,-25.500001907348633
430455,-0.07536601275205612,0.9851414561271667,-0.1955927461385727,0.10670799762010574,1.5015339851379395,2.7134318351745605,36.30000305175781,-170.10000610351562,-26.700000762939453
430497,2.489470958709717,8.445180892944336,-1.3009610176086426,1.3872039318084717,3.3231918811798096,9.28359603881836,19.5,-179.70001220703125,-28.500001907348633
430554,6.91871976852417,17.896438598632812,-4.29945182800293,3.551851987838745,2.782029867172241,-0.02286599949002266,-2.1000001430511475,-167.70001220703125,-23.700000762939453
430593,16.68041229248047,19.59695816040039,-7.722623825073242,0.007621999830007553,8.64334774017334,6.3719916343688965,-14.100000381469727,-170.10000610351562,-26.700000762939453
430638,11.123664855957031,19.599349975585938,-4.778563976287842,-4.344540119171143,-10.70890998840332,-5.411619663238525,-9.300000190734863,-167.70001220703125,-27.900001525878906
430677,4.270142555236816,10.753414154052734,-1.506722092628479,-1.6768399477005005,-3.5289859771728516,-10.221101760864258,2.700000047683716,-172.5,-29.100000381469727
430698,1.5838825702667236,5.14103889465332,-0.8732887506484985,0.7469559907913208,-2.652456045150757,-15.487903594970703,21.900001525878906,-174.90000915527344,-29.100000381469727
430738,-2.2274844646453857,-2.7030081748962402,-0.2972770631313324,-0.114329993724823,2.2484898567199707,-4.961921691894531,36.30000305175781,-184.5,-24.30000114440918
430758,-0.509019672870636,-0.4653552174568176,-0.8421853184700012,0.19054999947547913,0.8917739987373352,1.478667974472046,36.30000305175781,-179.70001220703125,-30.30000114440918
430781,0.9073829054832458,1.4576743841171265,-0.8972144722938538,1.2804960012435913,-0.9298839569091797,1.5548880100250244,33.900001525878906,-170.10000610351562,-26.700000762939453
430801,0.6884625554084778,0.2954826354980469,-0.5329453945159912,0.5335400104522705,-1.5701320171356201,1.1128119230270386,43.5,-174.90000915527344,-14.100000381469727
430825,0.45937380194664,-0.43784064054489136,-0.2799309194087982,0.19817200303077698,-1.9664759635925293,1.4634239673614502,38.70000076293945,-177.3000030517578,-25.500001907348633
430846,0.24822933971881866,-0.36905422806739807,0.11962859332561493,-0.22103799879550934,-2.0503180027008057,1.6920839548110962,29.100000381469727,-177.3000030517578,-19.5
430866,0.09331030398607254,-0.2930900454521179,0.39955949783325195,-0.9908599853515625,-1.4634239673614502,1.0823240280151367,31.500001907348633,-177.3000030517578,-24.900001525878906
430886,-0.0352904349565506,-0.7590434551239014,0.5395249724388123,-1.5853760242462158,-0.6021379828453064,0.3734779953956604,29.100000381469727,-172.5,-18.900001525878906
430906,0.349913626909256,0.20336860418319702,0.4838976562023163,-1.0594580173492432,0.3887220025062561,1.707327961921692,26.700000762939453,-174.90000915527344,-20.100000381469727
430926,1.7573440074920654,5.0214104652404785,-0.8583351373672485,1.577754020690918,4.085391998291016,8.361333847045898,29.100000381469727,-179.70001220703125,-15.300000190734863
430949,6.721930503845215,15.197616577148438,-3.1940834522247314,-0.8079319596290588,7.400961875915527,13.239413261413574,5.100000381469727,-184.5,-26.700000762939453
430969,8.984705924987793,18.700342178344727,-4.83120059967041,0.6250039935112,4.024415969848633,5.381131649017334,-4.5,-179.70001220703125,-20.100000381469727
431031,7.925394535064697,18.805614471435547,-3.6474759578704834,0.2972579896450043,7.67535400390625,10.404029846191406,-6.900000095367432,-165.3000030517578,-26.100000381469727
431051,11.620123863220215,19.553892135620117,-5.854025363922119,0.007621999830007553,11.204339981079102,5.6097917556762695,2.700000047683716,-160.5,-21.30000114440918
431071,9.084595680236816,18.049562454223633,-7.805765628814697,1.478667974472046,-0.6173819899559021,-9.81713581085205,-2.1000001430511475,-162.90000915527344,-23.100000381469727
431091,4.98970890045166,10.05298900604248,-4.047035217285156,-3.506119966506958,-15.335463523864746,-12.454347610473633,7.500000476837158,-170.10000610351562,-24.900001525878906
431111,1.514497995376587,5.518466949462891,1.2243986129760742,-3.208861827850342,-12.240931510925293,-7.736330032348633,17.100000381469727,-179.70001220703125,-27.30000114440918
431131,1.7734938859939575,7.613163948059082,-1.1472382545471191,0.48018598556518555,5.777475833892822,2.446661949157715,19.5,-167.70001220703125,-26.100000381469727
431151,2.605510711669922,9.150391578674316,-3.809572696685791,-1.196653962135315,4.626554012298584,1.4862899780273438,12.300000190734863,-167.70001220703125,-19.5
431171,2.002582550048828,6.3714189529418945,-1.8715893030166626,-2.378063917160034,-3.4298999309539795,-3.0792880058288574,21.900001525878906,-165.3000030517578,-34.5
431191,1.4403282403945923,4.524951457977295,-0.4294666647911072,-1.1661659479141235,-1.7987920045852661,-2.179892063140869,24.30000114440918,-167.70001220703125,-29.700000762939453
431213,2.2526063919067383,5.326463222503662,-1.5677326917648315,-0.9375059604644775,1.699705958366394,1.1356779336929321,12.300000190734863,-184.5,-24.30000114440918
431233,2.322589159011841,5.473606109619141,-1.4875816106796265,-1.14329993724823,-0.09146399796009064,1.0899460315704346,26.700000762939453,-165.3000030517578,-30.900001525878906
431273,2.7317190170288086,6.100460052490234,-1.6508746147155762,-0.25152599811553955,-0.05335399881005287,1.4024479389190674,21.900001525878906,-170.10000610351562,-30.30000114440918
431293,3.529043436050415,8.22326946258545,-1.9260203838348389,0.12195199728012085,0.06859800219535828,1.5167779922485352,7.500000476837158,-174.90000915527344,-29.700000762939453
431314,3.723439931869507,8.81303882598877,-2.172455310821533,0.26677000522613525,0.4344539940357208,1.0899460315704346,17.100000381469727,-179.70001220703125,-29.700000762939453
431335,4.245020866394043,9.374096870422363,-2.7436819076538086,0.6631140112876892,-0.13719600439071655,-0.4725639820098877,14.700000762939453,-179.70001220703125,-22.5
431355,4.258179664611816,9.18448543548584,-2.5026302337646484,0.7240899801254272,-1.8140360116958618,-1.4405579566955566,12.300000190734863,-174.90000915527344,-23.700000762939453
431375,4.444202423095703,9.759899139404297,-2.5020320415496826,0.8612859845161438,-1.021347999572754,-0.5030519962310791,26.700000762939453,-177.3000030517578,-27.30000114440918
431395,5.4502787590026855,11.456830024719238,-3.124100685119629,-0.17530599236488342,-0.6250039935112,0.9756159782409668,9.90000057220459,-170.10000610351562,-29.700000762939453
431418,4.357471466064453,9.41835880279541,-2.525359630584717,-0.7545779943466187,-2.339953899383545,-1.882633924484253,12.300000190734863,-182.10000610351562,-20.700000762939453
431438,3.1695597171783447,7.7393717765808105,-1.8841503858566284,-0.6631140112876892,-2.492393970489502,-1.8140360116958618,14.700000762939453,-167.70001220703125,-21.30000114440918
431462,3.263468027114868,8.57378101348877,-1.7220536470413208,-0.6631140112876892,-1.3872039318084717,-0.1448179930448532,24.30000114440918,-174.90000915527344,-26.100000381469727
431483,2.978153944015503,8.58694076538086,-1.83450448513031,-0.685979962348938,-1.2500079870224,-1.2500079870224,26.700000762939453,-174.90000915527344,-25.500001907348633
431503,2.6689138412475586,8.2083158493042,-1.6712114810943604,-0.4344539940357208,-1.6387299299240112,-1.829279899597168,5.100000381469727,-172.5,-29.700000762939453
431523,2.3913755416870117,8.920703887939453,-1.7041093111038208,0.19054999947547913,-1.478667974472046,-1.5091559886932373,24.30000114440918,-172.5,-24.30000114440918
431586,1.8751782178878784,9.345983505249023,-2.057013750076294,0.5335400104522705,-1.371959924697876,-0.8307979702949524,26.700000762939453,-167.70001220703125,-25.500001907348633
431632,2.130585193634033,10.344285011291504,-2.637810468673706,0.7850660085678101,-2.0579400062561035,0.22103799879550934,29.100000381469727,-177.3000030517578,-29.100000381469727
431652,1.9983956813812256,10.203721046447754,-2.2005679607391357,0.1448179930448532,-2.599102020263672,-0.2439039945602417,21.900001525878906,-170.10000610351562,-23.100000381469727
431692,1.9206371307373047,9.68034553527832,-2.1234076023101807,-0.5030519962310791,-1.3414719104766846,0.16768398880958557,29.100000381469727,-174.90000915527344,-25.500001907348633
431712,1.9110667705535889,8.920703887939453,-1.9337961673736572,-1.1280559301376343,-1.295740008354187,0.1295740008354187,29.100000381469727,-174.90000915527344,-23.700000762939453
431752,2.4577693939208984,8.96915340423584,-1.2752407789230347,-1.0899460315704346,0.04573199898004532,0.7545779943466187,29.100000381469727,-174.90000915527344,-29.100000381469727
431772,2.554070472717285,8.99307918548584,-1.2889981269836426,-1.1204339265823364,0.17530599236488342,0.48018598556518555,38.70000076293945,-172.5,-21.900001525878906
431812,2.861515998840332,8.788515090942383,-0.6298445463180542,-0.8307979702949524,1.14329993724823,-0.6326259970664978,38.70000076293945,-174.90000915527344,-27.900001525878906
431873,2.836992025375366,8.893189430236816,-0.8385964632034302,0.07621999830007553,1.425313949584961,-2.652456045150757,29.100000381469727,-174.90000915527344,-25.500001907348633
431893,3.0828287601470947,9.404004096984863,-1.0802462100982666,0.7240899801254272,1.7301939725875854,-2.378063917160034,31.500001907348633,-179.70001220703125,-23.100000381469727
431916,3.1438393592834473,9.290356636047363,-1.116134762763977,0.6707359552383423,1.7987920045852661,-2.545747995376587,36.30000305175781,-179.70001220703125,-27.900001525878906
431937,3.2419350147247314,9.140820503234863,-1.2142301797866821,0.8231759667396545,1.882633924484253,-2.591480016708374,29.100000381469727,-177.3000030517578,-25.500001907348633
431999,2.8238329887390137,7.36493444442749,-0.9163550138473511,0.7240899801254272,1.829279899597168,-2.4771499633789062,41.10000228881836,-184.5,-24.900001525878906
432019,3.0660808086395264,8.038443565368652,-1.6161823272705078,1.013725996017456,2.987823963165283,-2.126538038253784,48.30000305175781,-170.10000610351562,-28.500001907348633
432039,3.374722719192505,8.55284595489502,-1.8105788230895996,1.3795819282531738,3.2241058349609375,-1.7378159761428833,55.500003814697266,-165.3000030517578,-25.500001907348633
432059,3.6761868000030518,9.587634086608887,-2.506817102432251,1.242385983467102,3.8262438774108887,-1.577754020690918,43.5,-189.3000030517578,-26.100000381469727
432079,2.3740293979644775,7.915823936462402,-2.9201340675354004,0.9756159782409668,3.5823400020599365,-3.6433160305023193,50.70000076293945,-174.90000915527344,-26.100000381469727
432099,2.241241693496704,7.854215145111084,-3.3364415168762207,1.8216580152511597,3.7805118560791016,-3.4908759593963623,53.10000228881836,-170.10000610351562,-13.500000953674316
432119,2.6479790210723877,8.933863639831543,-3.904677391052246,2.3704419136047363,2.995445966720581,-2.652456045150757,57.900001525878906,-170.10000610351562,-27.30000114440918
432139,2.869889974594116,9.424939155578613,-4.093690395355225,2.179892063140869,2.1646480560302734,-3.955817937850952,53.10000228881836,-170.10000610351562,-21.900001525878906
432159,2.923722743988037,9.39862060546875,-4.218104362487793,2.6143460273742676,2.2713558673858643,-3.910085916519165,43.5,-165.3000030517578,-25.500001907348633
432182,3.48179030418396,10.579354286193848,-4.938268184661865,2.2713558673858643,1.9512319564819336,-2.5076379776000977,72.30000305175781,-172.5,-21.900001525878906
432202,2.9171433448791504,9.354955673217773,-4.696618556976318,1.2347639799118042,0.07621999830007553,-3.910085916519165,65.10000610351562,-165.3000030517578,-27.900001525878906
432222,2.598931312561035,8.54686450958252,-4.182215690612793,0.8384199738502502,-1.6158639192581177,-3.147886037826538,62.70000076293945,-174.90000915527344,-18.30000114440918
432246,2.6491751670837402,8.539687156677246,-3.380704164505005,-0.36585599184036255,-1.417691946029663,-2.2637338638305664,72.30000305175781,-158.10000610351562,-21.30000114440918
432266,2.509807825088501,7.966068267822266,-3.2652623653411865,-0.2972579896450043,-0.114329993724823,-2.8582499027252197,62.70000076293945,-172.5,-20.700000762939453
432286,2.3207948207855225,7.5671067237854,-3.2269814014434814,0.07621999830007553,-0.4039659798145294,-2.8734939098358154,81.9000015258789,-167.70001220703125,-18.900001525878906
432306,2.414703130722046,7.582658290863037,-2.9590132236480713,0.04573199898004532,-0.7469559907913208,-2.6143460273742676,79.5,-167.70001220703125,-18.900001525878906
432326,2.6635305881500244,7.777054786682129,-2.7975146770477295,0.17530599236488342,-0.8231759667396545,-2.4695279598236084,81.9000015258789,-162.90000915527344,-20.700000762939453
432350,2.6186699867248535,7.699296474456787,-2.6521658897399902,-0.46494197845458984,0.060975998640060425,-2.797273874282837,91.5,-162.90000915527344,-17.700000762939453
432370,2.6599419116973877,7.704679489135742,-2.877067804336548,-0.2134159952402115,0.36585599184036255,-2.637212038040161,91.5,-158.10000610351562,-20.700000762939453
432393,2.853142023086548,8.30102825164795,-3.148026466369629,0.007621999830007553,0.28201398253440857,-1.882633924484253,84.30000305175781,-158.10000610351562,-20.100000381469727
432413,2.772392749786377,8.59292221069336,-3.1725502014160156,-0.5259180068969727,-0.02286599949002266,-1.5091559886932373,93.9000015258789,-158.10000610351562,-17.700000762939453
432495,2.6276421546936035,9.10493278503418,-2.778374195098877,-1.2271419763565063,-1.189031958580017,-1.7149499654769897,93.9000015258789,-160.5,-21.30000114440918
432531,3.7479639053344727,11.667974472045898,-3.290384531021118,-2.0503180027008057,-3.3841679096221924,-0.8460419774055481,108.30000305175781,-160.5,-26.100000381469727
432551,1.6532671451568604,7.963077545166016,-1.4564781188964844,-1.1661659479141235,-4.824726104736328,-5.800342082977295,103.50000762939453,-167.70001220703125,-26.700000762939453
432599,1.517488718032837,9.842442512512207,-1.8739819526672363,-1.2118979692459106,-1.9893419742584229,-1.189031958580017,103.50000762939453,-158.10000610351562,-16.5
432682,-0.1369747370481491,9.42733097076416,-1.3015590906143188,-1.7759259939193726,-2.7058098316192627,0.4420759975910187,110.70000457763672,-162.90000915527344,-24.30000114440918
432712,-1.0425631999969482,9.786815643310547,-1.726240634918213,-1.2804960012435913,-0.853663980960846,0.7774440050125122,110.70000457763672,-160.5,-21.900001525878906
432732,-1.7591384649276733,9.95130443572998,-2.1748478412628174,-0.6936019659042358,-1.0899460315704346,0.48018598556518555,120.30000305175781,-158.10000610351562,-29.100000381469727
432774,-2.44700288772583,8.958985328674316,-2.238250970840454,-0.3125019967556,-1.935987949371338,-0.1448179930448532,113.10000610351562,-160.5,-19.5
432814,-2.277130365371704,9.796385765075684,-2.7849535942077637,0.8460419774055481,-2.3704419136047363,1.189031958580017,96.30000305175781,-165.3000030517578,-25.500001907348633
432899,-1.8476636409759521,9.652233123779297,-2.866899251937866,1.0594580173492432,-0.510673999786377,0.26677000522613525,108.30000305175781,-162.90000915527344,-27.900001525878906
432940,-1.6724077463150024,9.110315322875977,-2.474517583847046,0.7012239694595337,-1.0289700031280518,0.8460419774055481,98.70000457763672,-167.70001220703125,-18.30000114440918
433034,-0.3648672103881836,9.024781227111816,-2.24183988571167,-0.4344539940357208,-0.7926880121231079,0.8841519951820374,101.10000610351562,-167.70001220703125,-27.30000114440918
433074,-0.25839775800704956,8.2442045211792,-2.543303966522217,0.46494197845458984,-0.17530599236488342,0.8917739987373352,96.30000305175781,-177.3000030517578,-33.30000305175781
433093,0.02691643312573433,8.409292221069336,-2.46494722366333,0.5640279650688171,-0.8765299916267395,0.8384199738502502,103.50000762939453,-165.3000030517578,-20.100000381469727
433136,0.13876916468143463,8.353066444396973,-2.253204584121704,0.457319974899292,0,-1.3490939140319824,98.70000457763672,-170.10000610351562,-26.700000762939453
433156,0.2237054705619812,9.092370986938477,-2.7317190170288086,0.8460419774055481,0.17530599236488342,-1.2118979692459106,96.30000305175781,-165.3000030517578,-14.700000762939453
433177,0.012561002746224403,8.82799243927002,-2.521172523498535,0.28201398253440857,-0.04573199898004532,-2.378063917160034,101.10000610351562,-155.70001220703125,-23.700000762939453
433197,0.15312460064888,9.04990291595459,-2.530742883682251,0.3734779953956604,0.3048799932003021,-2.187514066696167,103.50000762939453,-165.3000030517578,-21.30000114440918
433218,0.5048326849937439,9.447668075561523,-2.4787044525146484,0.08384199440479279,0.6402480006217957,-2.446661949157715,98.70000457763672,-167.70001220703125,-26.100000381469727
433238,0.2781364917755127,9.09476375579834,-2.6067070960998535,-0.17530599236488342,1.1661659479141235,-2.545747995376587,108.30000305175781,-158.10000610351562,-22.5
433258,0.32778236269950867,8.637184143066406,-2.625847578048706,-0.08384199440479279,1.1280559301376343,-2.2103798389434814,110.70000457763672,-160.5,-22.5
433278,0.4432239532470703,8.57976245880127,-2.486480236053467,0.1600620001554489,0.9375059604644775,-1.7301939725875854,108.30000305175781,-158.10000610351562,-17.700000762939453
433298,0.39058735966682434,8.360244750976562,-2.6545584201812744,0.23628199100494385,1.478667974472046,-1.5320219993591309,105.9000015258789,-155.70001220703125,-23.700000762939453
433322,0.6310408115386963,8.647353172302246,-2.847160577774048,0.571649968624115,1.3490939140319824,-1.2576299905776978,108.30000305175781,-170.10000610351562,-22.5
433342,0.9540380239486694,9.020594596862793,-3.0182294845581055,0.6402480006217957,1.3262280225753784,-1.196653962135315,110.70000457763672,-160.5,-18.900001525878906
433362,1.0652925968170166,9.531408309936523,-3.8526389598846436,1.5167779922485352,2.1646480560302734,-0.9298839569091797,105.9000015258789,-165.3000030517578,-21.30000114440918
433382,1.326681137084961,10.031455993652344,-4.138551235198975,1.5929979085922241,2.1112940311431885,-0.6326259970664978,110.70000457763672,-158.10000610351562,-19.5
433402,2.173053503036499,11.144001960754395,-4.452576160430908,1.3567159175872803,1.0365920066833496,-0.6250039935112,105.9000015258789,-177.3000030517578,-19.5
433462,1.317708969116211,8.938648223876953,-4.339527130126953,0.5792719721794128,0.7545779943466187,-1.8673899173736572,110.70000457763672,-160.5,-14.100000381469727
433635,1.812373161315918,8.509779930114746,-2.826225519180298,-1.3490939140319824,0.4344539940357208,-0.19054999947547913,127.50000762939453,-158.10000610351562,-25.500001907348633
433670,1.8596265316009521,8.703577995300293,-2.572014808654785,-0.8841519951820374,0.2972579896450043,-0.44969800114631653,120.30000305175781,-160.5,-21.30000114440918
433690,1.7974196672439575,8.435011863708496,-2.6043145656585693,-0.4725639820098877,0.33536797761917114,-0.7774440050125122,125.10000610351562,-158.10000610351562,-23.100000381469727
433733,1.8751782178878784,8.969752311706543,-2.718559741973877,-0.2743920087814331,0.4192099869251251,-0.7469559907913208,129.90000915527344,-165.3000030517578,-19.5
433753,2.608501434326172,10.469894409179688,-3.1647744178771973,0.15243999660015106,0.7469559907913208,0.6478700041770935,115.50000762939453,-162.90000915527344,-17.100000381469727
433773,2.0336861610412598,9.149792671203613,-2.6270439624786377,-1.3490939140319824,-0.8917739987373352,-2.4619059562683105,110.70000457763672,-167.70001220703125,-21.30000114440918
433793,1.6736040115356445,8.039639472961426,-2.509807825088501,0.07621999830007553,-0.457319974899292,-1.5015339851379395,129.90000915527344,-155.70001220703125,-24.30000114440918
433857,0.8415871858596802,9.07681941986084,-2.4667415618896484,0.09146399796009064,-1.0594580173492432,-1.2881180047988892,134.70001220703125,-153.3000030517578,-20.100000381469727
433877,0.6693220138549805,9.94831371307373,-2.3536925315856934,-0.49542999267578125,-1.1661659479141235,-0.9908599853515625,125.10000610351562,-158.10000610351562,-22.5
433897,0.13159145414829254,10.155869483947754,-2.534331798553467,-0.48018598556518555,-0.3582339882850647,-1.417691946029663,127.50000762939453,-160.5,-12.300000190734863
433917,-0.5209825038909912,9.805357933044434,-2.8208422660827637,-0.457319974899292,-0.7240899801254272,-1.8521459102630615,137.10000610351562,-153.3000030517578,-24.900001525878906
433977,-1.0987886190414429,10.209702491760254,-2.8477587699890137,-0.060975998640060425,-0.5030519962310791,-1.806414008140564,141.90000915527344,-158.10000610351562,-24.30000114440918
434033,-2.324981689453125,8.62881088256836,-2.7311208248138428,0.8231759667396545,-1.4329359531402588,-1.7454379796981812,144.3000030517578,-153.3000030517578,-20.100000381469727
434053,-2.6431937217712402,8.228055000305176,-3.0301923751831055,1.3414719104766846,-0.8841519951820374,-1.5396440029144287,141.90000915527344,-153.3000030517578,-26.100000381469727
434096,-2.805290460586548,8.1485013961792,-2.942265272140503,0.8917739987373352,-2.1646480560302734,-0.2896359860897064,137.10000610351562,-155.70001220703125,-27.30000114440918
434116,-2.8657028675079346,8.515761375427246,-3.0331830978393555,1.0823240280151367,-1.7759259939193726,0.114329993724823,141.90000915527344,-148.5,-18.900001525878906
434138,-2.614482879638672,9.249683380126953,-3.445303440093994,1.0442140102386475,-1.3109840154647827,0.12195199728012085,144.3000030517578,-141.3000030517578,-20.100000381469727
434158,-2.6306328773498535,9.254467964172363,-3.6253445148468018,0.9832379817962646,-1.5015339851379395,-0.41158798336982727,149.10000610351562,-146.10000610351562,-21.900001525878906
434178,-2.3776183128356934,9.206616401672363,-3.275430917739868,0.6173819899559021,-2.0579400062561035,-0.5487840175628662,156.3000030517578,-153.3000030517578,-19.5
434198,-2.361468553543091,9.418957710266113,-3.1904945373535156,0.5030519962310791,-1.8216580152511597,-0.41158798336982727,146.70001220703125,-148.5,-14.100000381469727
434218,-2.6754934787750244,9.47637939453125,-3.1605875492095947,-0.02286599949002266,-0.914639949798584,-0.685979962348938,146.70001220703125,-153.3000030517578,-25.500001907348633
434278,-2.1862125396728516,9.29095458984375,-2.723942995071411,-0.39634400606155396,-1.1051899194717407,-0.06859800219535828,137.10000610351562,-155.70001220703125,-14.100000381469727
434452,-1.2321745157241821,8.888404846191406,-2.960209608078003,0.6783579587936401,1.7225719690322876,0.28201398253440857,137.10000610351562,-143.70001220703125,-21.900001525878906
434472,-1.0503391027450562,8.798683166503906,-3.0002851486206055,0.6554920077323914,1.4558019638061523,-0.030487999320030212,134.70001220703125,-155.70001220703125,-21.30000114440918
434512,-0.9043921828269958,8.80885124206543,-3.1851112842559814,0.5640279650688171,1.882633924484253,-0.2743920087814331,151.5,-155.70001220703125,-25.500001907348633
434552,-0.8756812810897827,8.671876907348633,-3.7575340270996094,1.021347999572754,1.7987920045852661,-0.5945159792900085,141.90000915527344,-153.3000030517578,-22.5
434809,1.5647419691085815,8.373403549194336,-3.535623073577881,-1.4634239673614502,0.5564059615135193,-0.9603719711303711,156.3000030517578,-148.5,-17.100000381469727
434829,1.5808918476104736,8.3638334274292,-3.290384531021118,-1.1814099550247192,0.3887220025062561,-0.6173819899559021,156.3000030517578,-158.10000610351562,-15.90000057220459
434870,1.3960657119750977,7.961282730102539,-3.0068647861480713,-1.196653962135315,0.8079319596290588,-1.2881180047988892,149.10000610351562,-153.3000030517578,-21.900001525878906
434890,1.423580288887024,8.32495403289795,-3.21382212638855,-0.6783579587936401,0.8307979702949524,-0.967993974685669,146.70001220703125,-138.90000915527344,-21.30000114440918
434910,1.4672447443008423,8.886012077331543,-3.335843324661255,-0.4039659798145294,0.38109999895095825,-0.7621999979019165,146.70001220703125,-158.10000610351562,-21.30000114440918
434933,1.411617398262024,8.58095932006836,-3.088212251663208,-0.6707359552383423,-0.4344539940357208,-1.0899460315704346,151.5,-155.70001220703125,-13.500000953674316
435016,-1.420589566230774,8.280691146850586,-3.0624918937683105,-0.3582339882850647,0.6936019659042358,-1.0823240280151367,158.70001220703125,-158.10000610351562,-18.900001525878906
435135,-2.0528266429901123,9.286767959594727,-3.049332857131958,-0.5868939757347107,0.7545779943466187,-1.0289700031280518,156.3000030517578,-148.5,-18.900001525878906
435173,-2.1975772380828857,9.380078315734863,-3.6235501766204834,-0.39634400606155396,1.6158639192581177,-1.1814099550247192,156.3000030517578,-141.3000030517578,-17.100000381469727
435193,-2.167072057723999,9.05409049987793,-3.805983781814575,-0.342989981174469,0.49542999267578125,-1.021347999572754,151.5,-148.5,-16.5
435236,-1.8105788230895996,9.282580375671387,-3.1976723670959473,-0.6554920077323914,-0.3887220025062561,-0.1600620001554489,156.3000030517578,-146.10000610351562,-21.900001525878906
435256,-1.7471755743026733,9.028369903564453,-3.3184971809387207,-0.8384199738502502,-0.015243999660015106,-0.7088459730148315,168.3000030517578,-143.70001220703125,-16.5
435276,-1.6658282279968262,8.821412086486816,-3.3011510372161865,-0.5792719721794128,-0.4039659798145294,-0.5030519962310791,158.70001220703125,-143.70001220703125,-23.100000381469727
435297,-1.5671346187591553,8.807655334472656,-2.885441780090332,-0.7164679765701294,-0.7469559907913208,-0.342989981174469,153.90000915527344,-146.10000610351562,-24.900001525878906
435317,-1.4582725763320923,9.18149471282959,-2.747868776321411,-0.5335400104522705,0.09908600151538849,-0.2896359860897064,153.90000915527344,-141.3000030517578,-21.900001525878906
435337,-1.409822940826416,9.35076904296875,-3.0565106868743896,-0.5411620140075684,1.1280559301376343,-0.7774440050125122,156.3000030517578,-141.3000030517578,-19.5
435357,-1.427767276763916,8.953601837158203,-3.0008833408355713,-0.36585599184036255,0.8993960022926331,-1.0747020244598389,161.10000610351562,-155.70001220703125,-19.5
435378,-1.432552456855774,8.932068824768066,-2.7586352825164795,-0.1600620001554489,0.8231759667396545,-0.8155539631843567,175.5,-138.90000915527344,-18.900001525878906
435398,-1.5073202848434448,9.147998809814453,-2.7490651607513428,-0.2439039945602417,1.4558019638061523,-0.8460419774055481,168.3000030517578,-146.10000610351562,-14.100000381469727
435418,-1.633528470993042,8.80406665802002,-2.909367322921753,-0.07621999830007553,1.7301939725875854,-1.067080020904541,156.3000030517578,-143.70001220703125,-19.5
435480,-2.0665838718414307,9.04691219329834,-2.9105637073516846,0.13719600439071655,1.2728739976882935,-0.8612859845161438,158.70001220703125,-143.70001220703125,-18.900001525878906
435500,-2.2466249465942383,8.98530387878418,-3.061295747756958,0.5411620140075684,0.739333987236023,-0.6402480006217957,165.90000915527344,-131.70001220703125,-20.100000381469727
435520,-2.331561326980591,9.112110137939453,-2.996098041534424,0.3734779953956604,0.015243999660015106,-0.015243999660015106,161.10000610351562,-141.3000030517578,-15.300000190734863
435592,-3.4536774158477783,10.287461280822754,-2.6904470920562744,0.05335399881005287,-1.6234859228134155,0.9984819889068604,156.3000030517578,-138.90000915527344,-18.900001525878906
435612,-3.832900047302246,10.60387897491455,-2.5684258937835693,-0.41158798336982727,-3.4222779273986816,1.3948259353637695,153.90000915527344,-150.90000915527344,-21.900001525878906
435655,-4.029090881347656,8.284878730773926,-0.7955301403999329,-1.14329993724823,-6.661627769470215,2.4619059562683105,158.70001220703125,-155.70001220703125,-20.700000762939453
435676,-2.9398727416992188,9.098352432250977,-1.417598843574524,-0.2134159952402115,-5.594547748565674,2.9802019596099854,151.5,-143.70001220703125,-17.100000381469727
435696,-2.9488449096679688,7.61196756362915,-2.0289008617401123,1.4862899780273438,-6.478699684143066,1.3643379211425781,151.5,-150.90000915527344,-23.700000762939453
435717,-2.5977349281311035,6.013131141662598,-2.674297332763672,4.1387457847595215,-9.588476181030273,1.92836594581604,156.3000030517578,-150.90000915527344,-22.5
435781,-0.724351167678833,6.61486291885376,-1.3272792100906372,3.902463912963867,-10.952814102172852,2.3704419136047363,151.5,-165.3000030517578,-21.30000114440918
435801,-0.025122005492448807,7.18369722366333,-2.0881171226501465,2.7058098316192627,-9.878111839294434,2.1570260524749756,146.70001220703125,-153.3000030517578,-24.900001525878906
435821,0.17047074437141418,6.503608703613281,-2.667717695236206,2.2180018424987793,-6.150953769683838,0.8231759667396545,146.70001220703125,-153.3000030517578,-25.500001907348633
435841,1.517488718032837,6.190779685974121,-5.398838520050049,5.160093784332275,-4.809482097625732,4.207344055175781,141.90000915527344,-148.5,-17.700000762939453
435902,2.656352996826172,10.435202598571777,-6.334932327270508,3.7728898525238037,2.9116039276123047,4.123501777648926,120.30000305175781,-153.3000030517578,-22.5
435952,1.3416346311569214,9.652831077575684,-9.5391845703125,2.126538038253784,4.085391998291016,-4.024415969848633,134.70001220703125,-153.3000030517578,-24.30000114440918
435972,0.7632304430007935,10.16244888305664,-9.77903938293457,0.25152599811553955,1.9054999351501465,-1.1280559301376343,137.10000610351562,-155.70001220703125,-21.900001525878906
436015,0.4551868140697479,11.359930992126465,-8.57198715209961,-0.9070180058479309,4.969543933868408,-3.460387945175171,134.70001220703125,-148.5,-22.5
436075,-1.2626798152923584,9.581053733825684,-8.611464500427246,-3.0183119773864746,9.275973320007324,-3.0106899738311768,144.3000030517578,-148.5,-20.700000762939453
436095,-1.448702335357666,9.080408096313477,-8.187978744506836,-4.199721813201904,6.135709762573242,-2.278977870941162,139.5,-143.70001220703125,-20.700000762939453
436135,-1.505525827407837,8.665297508239746,-5.0034661293029785,-5.929915904998779,1.806414008140564,-1.5929979085922241,144.3000030517578,-146.10000610351562,-22.5
436158,-1.3565882444381714,8.083902359008789,-4.139747619628906,-5.6097917556762695,3.003067970275879,-2.2561118602752686,149.10000610351562,-141.3000030517578,-16.5
436178,-1.137069821357727,7.402617454528809,-3.64209246635437,-4.9466776847839355,3.155508041381836,-2.439039945602417,151.5,-146.10000610351562,-16.5
436198,-0.8870460391044617,6.906158924102783,-2.656352996826172,-4.10825777053833,1.6768399477005005,-2.28659987449646,158.70001220703125,-150.90000915527344,-20.100000381469727
436260,0.26677176356315613,7.538395881652832,-0.718967854976654,-2.042695999145508,2.187514066696167,-0.8917739987373352,156.3000030517578,-141.3000030517578,-18.30000114440918
436300,0.1824336051940918,8.514565467834473,-1.1167329549789429,-1.646351933479309,5.327777862548828,-1.0899460315704346,153.90000915527344,-160.5,-29.100000381469727
436340,-0.7584452629089355,8.252578735351562,-0.6513776779174805,-2.9802019596099854,7.134191989898682,-2.1036720275878906,168.3000030517578,-148.5,-23.100000381469727
436434,-2.3034486770629883,9.23233699798584,-1.422982096672058,-1.7759259939193726,4.57319974899292,-0.6631140112876892,163.5,-150.90000915527344,-27.900001525878906
436454,-2.602519989013672,9.527819633483887,-2.023517608642578,-1.8673899173736572,4.664663791656494,-1.3948259353637695,168.3000030517578,-153.3000030517578,-20.100000381469727
436494,-2.6061089038848877,9.622325897216797,-2.122211217880249,-0.7545779943466187,2.4695279598236084,-0.35061198472976685,170.70001220703125,-141.3000030517578,-18.900001525878906
436518,-2.1054632663726807,10.213889122009277,-2.638408660888672,-0.1600620001554489,2.690565824508667,-0.228659987449646,175.5,-143.70001220703125,-26.100000381469727
436539,-1.8488599061965942,10.125364303588867,-2.3710386753082275,-0.3887220025062561,1.3643379211425781,-0.3201240003108978,156.3000030517578,-134.10000610351562,-19.5
436559,-1.9601144790649414,9.52303409576416,-2.2675600051879883,-0.1448179930448532,1.9512319564819336,-0.6173819899559021,165.90000915527344,-141.3000030517578,-22.5
436581,-2.1622867584228516,9.170727729797363,-2.561248302459717,0.35061198472976685,2.1112940311431885,-0.36585599184036255,153.90000915527344,-143.70001220703125,-22.5
436601,-1.716670274734497,9.66539192199707,-2.884843587875366,0.6631140112876892,1.1204339265823364,0.20579399168491364,153.90000915527344,-155.70001220703125,-25.500001907348633
436621,-1.442720890045166,9.944127082824707,-2.4368345737457275,0.426831990480423,-0.2896359860897064,-0.28201398253440857,146.70001220703125,-143.70001220703125,-22.5
436641,-1.5874714851379395,9.244897842407227,-2.3501036167144775,0.342989981174469,0.5640279650688171,-0.9984819889068604,158.70001220703125,-148.5,-13.500000953674316
436662,-1.5121054649353027,8.728102684020996,-2.6061089038848877,0.4725639820098877,0.7088459730148315,-1.067080020904541,163.5,-143.70001220703125,-21.30000114440918
436682,-1.3679529428482056,8.504396438598633,-2.43503999710083,0.4344539940357208,-0.114329993724823,-0.5792719721794128,158.70001220703125,-129.3000030517578,-23.100000381469727
436702,-1.2064543962478638,9.27899169921875,-2.3297669887542725,0.3048799932003021,0.015243999660015106,-0.038109999150037766,156.3000030517578,-138.90000915527344,-15.90000057220459
436722,-1.3577845096588135,8.91352653503418,-2.4697322845458984,0.19054999947547913,0.8155539631843567,-0.7164679765701294,175.5,-138.90000915527344,-15.300000190734863
436742,-1.217819094657898,8.649147033691406,-2.5092098712921143,0.3582339882850647,0.28201398253440857,-0.6173819899559021,156.3000030517578,-146.10000610351562,-18.900001525878906
436762,-1.1771453619003296,8.727503776550293,-2.1772403717041016,0.3582339882850647,0.015243999660015106,-0.28201398253440857,158.70001220703125,-150.90000915527344,-17.700000762939453
436783,-1.4953573942184448,8.719130516052246,-2.331561326980591,0.510673999786377,1.189031958580017,-0.228659987449646,165.90000915527344,-143.70001220703125,-12.300000190734863
436803,-1.5856770277023315,9.377087593078613,-2.727531909942627,0.8384199738502502,0.6554920077323914,0.1295740008354187,173.10000610351562,-143.70001220703125,-10.5
436823,-1.5587605237960815,9.701878547668457,-2.4063291549682617,0.6326259970664978,-0.8460419774055481,-0.06859800219535828,165.90000915527344,-143.70001220703125,-17.100000381469727
436843,-1.9888253211975098,9.826292991638184,-2.0139474868774414,0.4039659798145294,-0.5259180068969727,-0.22103799879550934,161.10000610351562,-141.3000030517578,-15.90000057220459
436863,-2.506817102432251,10.085289001464844,-2.315411329269409,0.571649968624115,-0.3201240003108978,-0.015243999660015106,180.3000030517578,-146.10000610351562,-19.5
436885,-3.0660808086395264,10.17859935760498,-1.8512524366378784,0.228659987449646,-1.646351933479309,0.19054999947547913,163.5,-136.5,-14.700000762939453
436906,-4.140944004058838,9.462023735046387,-1.7035112380981445,0.25152599811553955,-1.2576299905776978,1.295740008354187,161.10000610351562,-141.3000030517578,-17.700000762939453
436928,-4.382593631744385,10.020689010620117,-1.9128612279891968,0.4039659798145294,-2.1494040489196777,3.048799991607666,168.3000030517578,-141.3000030517578,-22.5
436948,-4.084120273590088,10.262937545776367,-1.743586778640747,0.10670799762010574,-3.96343994140625,3.3231918811798096,161.10000610351562,-141.3000030517578,-27.30000114440918
436968,-3.824526071548462,9.368115425109863,-1.1915007829666138,-0.2591480016708374,-6.311016082763672,2.949713945388794,156.3000030517578,-146.10000610351562,-15.90000057220459
437031,-2.41410493850708,6.513776779174805,-1.5802937746047974,3.559473991394043,-11.03665542602539,3.155508041381836,156.3000030517578,-150.90000915527344,-20.700000762939453
437091,-1.23097825050354,6.250594139099121,0.5825912356376648,5.160093784332275,-9.253108024597168,3.0869100093841553,153.90000915527344,-155.70001220703125,-20.100000381469727
437134,-0.5903671383857727,5.297153949737549,-2.885441780090332,4.984787940979004,-4.268320083618164,2.195136070251465,137.10000610351562,-148.5,-21.30000114440918
437174,0.9408788681030273,5.380894184112549,-5.4831767082214355,8.35371208190918,-4.42838191986084,5.39637565612793,139.5,-150.90000915527344,-18.900001525878906
437275,2.820244073867798,10.826986312866211,-10.993867874145508,3.041177988052368,-0.5030519962310791,1.478667974472046,125.10000610351562,-148.5,-15.90000057220459
437296,2.6641287803649902,11.390436172485352,-11.641058921813965,2.0960500240325928,1.1356779336929321,-0.17530599236488342,120.30000305175781,-143.70001220703125,-19.5
437337,1.4839926958084106,9.74434757232666,-10.36581802368164,-1.5853760242462158,-0.18292799592018127,-4.565577983856201,122.70000457763672,-146.10000610351562,-11.700000762939453
437358,0.38939106464385986,10.369406700134277,-10.042222023010254,-1.471045970916748,3.3841679096221924,-2.843005895614624,125.10000610351562,-150.90000915527344,-8.700000762939453
437418,-0.9671971797943115,9.366918563842773,-9.51406192779541,-5.022897720336914,2.385685920715332,-3.460387945175171,129.90000915527344,-146.10000610351562,-17.100000381469727
437455,-0.7434917092323303,8.221475601196289,-4.745068073272705,-8.673835754394531,-1.8369019031524658,-2.2027578353881836,122.70000457763672,-148.5,-14.100000381469727
437475,-0.8481667041778564,7.287774085998535,-3.9118549823760986,-7.0884599685668945,3.9786839485168457,-1.9969639778137207,134.70001220703125,-150.90000915527344,-12.300000190734863
437519,-0.24464046955108643,7.05509614944458,-3.6761868000030518,-5.403997898101807,2.8125178813934326,-0.739333987236023,141.90000915527344,-148.5,-20.100000381469727
437539,-0.4755236506462097,6.6992011070251465,-2.3231873512268066,-4.908567905426025,2.8734939098358154,-1.9664759635925293,137.10000610351562,-160.5,-18.30000114440918
437560,-0.31881019473075867,6.348689556121826,-2.581585168838501,-2.2713558673858643,7.256144046783447,-2.3475759029388428,132.3000030517578,-150.90000915527344,-21.30000114440918
437582,-0.17405959963798523,7.38586950302124,-3.359170913696289,-1.4634239673614502,5.922293663024902,-1.189031958580017,137.10000610351562,-150.90000915527344,-20.700000762939453
437602,-0.20217232406139374,8.40450668334961,-2.905778646469116,-2.233245849609375,5.518327713012695,-0.967993974685669,141.90000915527344,-150.90000915527344,-22.5
437622,-0.6794903874397278,8.25915813446045,-3.0008833408355713,-2.682943820953369,7.881147861480713,-2.3094658851623535,149.10000610351562,-158.10000610351562,-20.100000381469727
437642,-0.92771977186203,7.6442670822143555,-3.645681381225586,-2.3704419136047363,8.041210174560547,-2.903981924057007,134.70001220703125,-162.90000915527344,-16.5
437684,-0.37025049328804016,8.486452102661133,-2.113837242126465,-3.147886037826538,2.378063917160034,-2.5609920024871826,127.50000762939453,-141.3000030517578,-15.90000057220459
437704,-1.128097653388977,6.777557849884033,-1.518684983253479,-2.6753220558166504,3.7347798347473145,-3.292703866958618,151.5,-150.90000915527344,-25.500001907348633
437724,-1.3882898092269897,6.569404125213623,-1.5569661855697632,-1.4939119815826416,3.7195358276367188,-1.8521459102630615,144.3000030517578,-146.10000610351562,-10.5
437745,-0.5801987051963806,8.274709701538086,-0.8571388721466064,-1.7454379796981812,0.9222619533538818,-0.8841519951820374,141.90000915527344,-153.3000030517578,-18.30000114440918
437769,-0.0352904349565506,10.791097640991211,-0.20217232406139374,-2.2484898567199707,3.650938034057617,-0.5411620140075684,139.5,-162.90000915527344,-14.100000381469727
437789,-0.9283179044723511,10.462717056274414,-1.405635952949524,-2.583858013153076,8.292736053466797,-3.254593849182129,149.10000610351562,-150.90000915527344,-17.700000762939453
437810,-2.0342843532562256,6.84096097946167,-2.2693543434143066,-1.0442140102386475,7.004617691040039,-4.474113941192627,144.3000030517578,-150.90000915527344,-11.700000762939453
437831,-1.9517405033111572,10.137327194213867,-1.6879594326019287,-1.0518360137939453,1.3643379211425781,1.0061039924621582,139.5,-148.5,-20.700000762939453
437851,-2.3088319301605225,10.746236801147461,-1.8739819526672363,-1.1128119230270386,4.588443756103516,-1.600619912147522,153.90000915527344,-143.70001220703125,-21.900001525878906
437871,-2.5116024017333984,8.764589309692383,-3.3035435676574707,0.1295740008354187,5.472595691680908,-2.8811159133911133,153.90000915527344,-153.3000030517578,-16.5
437891,-2.43803071975708,8.27112102508545,-3.791030168533325,0.3201240003108978,1.4481799602508545,-0.7317119836807251,151.5,-148.5,-8.700000762939453
437911,-1.4642540216445923,9.96625804901123,-3.016434907913208,0.030487999320030212,-2.4085519313812256,1.371959924697876,156.3000030517578,-148.5,-24.30000114440918
437933,-0.9408788681030273,10.540475845336914,-2.331561326980591,-0.25152599811553955,-1.7149499654769897,0.5640279650688171,168.3000030517578,-148.5,-16.5
437953,-0.8326150178909302,9.877135276794434,-2.7030081748962402,-0.6936019659042358,0.7317119836807251,-0.5487840175628662,139.5,-162.90000915527344,-13.500000953674316
438033,-0.5843856930732727,8.607276916503906,-2.366851806640625,-1.1509219408035278,0.7012239694595337,-0.7774440050125122,158.70001220703125,-141.3000030517578,-26.100000381469727
438073,-0.4222889244556427,8.815430641174316,-2.277728319168091,-0.3734779953956604,0.9527499675750732,-1.3033620119094849,158.70001220703125,-155.70001220703125,-21.30000114440918
438109,-0.6226668357849121,8.650343894958496,-2.607903242111206,0.05335399881005287,2.1036720275878906,-1.1051899194717407,156.3000030517578,-126.9000015258789,-18.900001525878906
438169,-1.1603974103927612,8.618043899536133,-2.745476245880127,-0.22103799879550934,1.3262280225753784,-1.0061039924621582,161.10000610351562,-143.70001220703125,-12.90000057220459
438235,-1.4564781188964844,9.371106147766113,-2.9488449096679688,-0.19817200303077698,0.571649968624115,-0.7545779943466187,161.10000610351562,-136.5,-19.5
438255,-1.6341265439987183,9.18747615814209,-2.524163246154785,-0.4039659798145294,-0.02286599949002266,-0.28201398253440857,168.3000030517578,-134.10000610351562,-19.5
438295,-2.5349299907684326,9.578661918640137,-2.2663636207580566,-0.3201240003108978,-0.23628199100494385,0.16768398880958557,161.10000610351562,-138.90000915527344,-16.5
438315,-3.496145725250244,9.698887825012207,-1.9918160438537598,-0.1448179930448532,-1.021347999572754,0.6097599864006042,175.5,-150.90000915527344,-21.900001525878906
438335,-3.928602933883667,10.622421264648438,-1.85244882106781,-0.038109999150037766,-1.92836594581604,1.577754020690918,158.70001220703125,-146.10000610351562,-17.100000381469727
438355,-4.208533763885498,10.969942092895508,-1.5964435338974,0.13719600439071655,-3.452765941619873,2.431417942047119,158.70001220703125,-148.5,-18.900001525878906
438378,-4.4071173667907715,9.71922492980957,-0.9432714581489563,0.2134159952402115,-5.137228012084961,3.567095994949341,161.10000610351562,-146.10000610351562,-24.30000114440918
438398,-4.047633647918701,8.77894401550293,-0.5855819582939148,0.8079319596290588,-6.623517990112305,4.5427117347717285,146.70001220703125,-150.90000915527344,-15.300000190734863
438438,-3.165970802307129,7.35297155380249,-0.9636083245277405,3.3765459060668945,-7.256144046783447,3.3841679096221924,146.70001220703125,-155.70001220703125,-14.100000381469727
438476,-2.0576117038726807,6.783539295196533,-1.4947593212127686,4.847591876983643,-11.570196151733398,3.666181802749634,151.5,-158.10000610351562,-20.700000762939453
438516,-1.315914511680603,5.721237659454346,-1.1143403053283691,4.0396599769592285,-12.690629959106445,4.306429862976074,144.3000030517578,-153.3000030517578,-19.5
438536,-0.8798683285713196,5.706881999969482,-1.7178666591644287,3.193617820739746,-10.5717134475708,3.5747179985046387,132.3000030517578,-146.10000610351562,-18.900001525878906
438556,-0.8487648963928223,3.6582424640655518,-2.8094775676727295,4.230209827423096,-5.632658004760742,1.0747020244598389,137.10000610351562,-155.70001220703125,-19.5
438596,2.3895812034606934,7.6951093673706055,-5.832491874694824,5.076251983642578,-9.763781547546387,7.39333963394165,115.50000762939453,-158.10000610351562,-15.90000057220459
438616,2.512798547744751,8.19336223602295,-5.754135608673096,5.343021869659424,-8.041210174560547,5.838451862335205,127.50000762939453,-158.10000610351562,-18.30000114440918
438637,2.531341075897217,9.21319580078125,-8.408095359802246,6.951263904571533,-0.3048799932003021,3.399411916732788,129.90000915527344,-150.90000915527344,-12.300000190734863
438657,2.46494722366333,10.846126556396484,-10.02009105682373,5.083873748779297,1.1051899194717407,3.1402640342712402,108.30000305175781,-150.90000915527344,-16.5
438718,2.5385186672210693,11.048896789550781,-9.721019744873047,-1.524399995803833,-5.8689398765563965,0.9603719711303711,115.50000762939453,-146.10000610351562,-18.30000114440918
438769,1.3799158334732056,9.771263122558594,-9.476977348327637,-1.4100699424743652,2.8048958778381348,-1.6234859228134155,110.70000457763672,-150.90000915527344,-14.700000762939453
438789,1.6855669021606445,10.925081253051758,-8.82679557800293,-2.995445966720581,1.3033620119094849,-0.8307979702949524,105.9000015258789,-155.70001220703125,-18.30000114440918
438831,0.349913626909256,9.994969367980957,-7.885916709899902,-3.7347798347473145,6.593029975891113,-3.7805118560791016,120.30000305175781,-162.90000915527344,-14.100000381469727
438851,0.051440294831991196,9.532604217529297,-7.598210334777832,-4.870458126068115,5.152472019195557,-2.995445966720581,122.70000457763672,-155.70001220703125,-14.700000762939453
438911,-1.1388641595840454,8.059976577758789,-5.06627082824707,-5.1067399978637695,5.434485912322998,-2.1494040489196777,125.10000610351562,-153.3000030517578,-15.90000057220459
438973,-1.5432088375091553,6.811054229736328,-4.015932083129883,-3.0183119773864746,5.243936061859131,-1.2804960012435913,134.70001220703125,-153.3000030517578,-23.700000762939453
439037,-1.0353854894638062,7.381682395935059,-2.062995195388794,-3.955817937850952,7.347607612609863,-1.4558019638061523,134.70001220703125,-158.10000610351562,-15.90000057220459
439371,0.6525740027427673,8.605483055114746,-2.0097603797912598,-1.5548880100250244,2.1570260524749756,-0.5868939757347107,141.90000915527344,-143.70001220703125,-20.100000381469727
439391,0.47612181305885315,8.079116821289062,-2.5953423976898193,-1.14329993724823,1.6387299299240112,-0.02286599949002266,141.90000915527344,-158.10000610351562,-26.700000762939453
439431,0.9390844702720642,9.75631046295166,-2.3178040981292725,-0.06859800219535828,-1.0442140102386475,1.4558019638061523,144.3000030517578,-155.70001220703125,-18.900001525878906
439454,0.6753033995628357,8.650343894958496,-2.0546212196350098,-0.5945159792900085,-0.6936019659042358,0.030487999320030212,132.3000030517578,-165.3000030517578,-23.100000381469727
439474,0.5484970808029175,8.789710998535156,-1.848261833190918,-0.39634400606155396,-1.600619912147522,0.8307979702949524,146.70001220703125,-160.5,-28.500001907348633
439494,0.5790023803710938,9.786815643310547,-1.6855669021606445,-0.17530599236488342,-1.3033620119094849,1.1128119230270386,134.70001220703125,-150.90000915527344,-25.500001907348633
439514,0.179442897439003,10.541671752929688,-1.946357250213623,-0.35061198472976685,0.007621999830007553,0.38109999895095825,129.90000915527344,-146.10000610351562,-25.500001907348633
439536,0.08015115559101105,10.495615005493164,-2.387786626815796,0.2439039945602417,0.5335400104522705,-0.6478700041770935,137.10000610351562,-165.3000030517578,-24.30000114440918
439556,-0.37862449884414673,9.89448070526123,-2.5092098712921143,0.6326259970664978,-0.426831990480423,-1.0061039924621582,127.50000762939453,-138.90000915527344,-20.700000762939453
439616,-1.6765947341918945,8.665297508239746,-2.393768072128296,0.8917739987373352,-0.8841519951820374,-0.7317119836807251,144.3000030517578,-150.90000915527344,-26.100000381469727
439637,-1.8901318311691284,8.294448852539062,-2.501433849334717,0.33536797761917114,-0.35061198472976685,-0.35061198472976685,149.10000610351562,-165.3000030517578,-21.30000114440918
439657,-1.7776808738708496,8.463723182678223,-2.9823408126831055,0.5182960033416748,0.18292799592018127,0.05335399881005287,137.10000610351562,-160.5,-21.30000114440918
439677,-1.5958454608917236,8.865077018737793,-2.9320969581604004,0.457319974899292,-1.067080020904541,0.19054999947547913,129.90000915527344,-165.3000030517578,-24.30000114440918
439697,-1.442720890045166,9.325048446655273,-2.5833795070648193,0.22103799879550934,-1.3186060190200806,0.04573199898004532,134.70001220703125,-148.5,-20.700000762939453
439717,-1.5653401613235474,8.806459426879883,-2.616875410079956,-0.07621999830007553,-0.25152599811553955,-0.6097599864006042,149.10000610351562,-141.3000030517578,-29.100000381469727
439739,-1.634724736213684,8.207717895507812,-2.6850638389587402,-0.1600620001554489,-0.457319974899292,-0.3734779953956604,151.5,-158.10000610351562,-16.5
439760,-1.720259189605713,8.306411743164062,-2.2735414505004883,-0.3734779953956604,-0.3048799932003021,0.5411620140075684,134.70001220703125,-150.90000915527344,-20.100000381469727
439781,-1.8069899082183838,8.81602954864502,-2.826225519180298,-0.228659987449646,1.1280559301376343,0.3582339882850647,144.3000030517578,-153.3000030517578,-17.700000762939453
439801,-1.9409739971160889,8.53789234161377,-3.3376376628875732,0.22103799879550934,1.2500079870224,-0.22103799879550934,151.5,-155.70001220703125,-20.700000762939453
439823,-1.628743290901184,8.547463417053223,-3.4351351261138916,0.48018598556518555,-0.04573199898004532,0.015243999660015106,139.5,-170.10000610351562,-26.700000762939453
439844,-1.3434290885925293,9.048707008361816,-3.0983805656433105,0.5259180068969727,-0.571649968624115,0.25152599811553955,151.5,-150.90000915527344,-14.100000381469727
439864,-1.4666465520858765,9.206018447875977,-3.2592811584472656,0.426831990480423,0.7545779943466187,-0.10670799762010574,132.3000030517578,-158.10000610351562,-22.5
439924,-0.6812848448753357,9.072632789611816,-3.3645541667938232,-0.15243999660015106,-0.6250039935112,-0.5945159792900085,139.5,-150.90000915527344,-27.30000114440918
439944,-0.26138848066329956,9.28317928314209,-3.1492228507995605,-0.2743920087814331,0.3048799932003021,-0.48018598556518555,137.10000610351562,-150.90000915527344,-21.30000114440918
439967,0.12740445137023926,9.804759979248047,-3.2186074256896973,-0.5335400104522705,1.3033620119094849,-0.7164679765701294,139.5,-153.3000030517578,-21.30000114440918
439987,0.3122306168079376,9.93336009979248,-3.4799957275390625,-0.2972579896450043,2.4619059562683105,-1.1128119230270386,139.5,-141.3000030517578,-24.900001525878906
440010,-0.031103434041142464,8.93745231628418,-3.449490547180176,-0.3277460038661957,2.0045859813690186,-1.5091559886932373,137.10000610351562,-155.70001220703125,-16.5
440030,-0.11544159054756165,8.67546558380127,-3.3813021183013916,-0.114329993724823,2.1570260524749756,-1.067080020904541,139.5,-153.3000030517578,-26.700000762939453
440052,-0.18482618033885956,8.888404846191406,-3.4506866931915283,-0.06859800219535828,2.14178204536438,-0.9222619533538818,141.90000915527344,-155.70001220703125,-23.100000381469727
440072,-0.22011661529541016,9.01222038269043,-3.4034335613250732,-0.19817200303077698,1.829279899597168,-0.967993974685669,149.10000610351562,-150.90000915527344,-12.90000057220459
440094,-0.3475210666656494,8.947022438049316,-3.21980357170105,-0.39634400606155396,1.806414008140564,-1.1585439443588257,144.3000030517578,-153.3000030517578,-20.100000381469727
440154,-0.7201641201972961,9.210205078125,-2.6396050453186035,-0.44969800114631653,2.1722700595855713,-1.1280559301376343,146.70001220703125,-150.90000915527344,-13.500000953674316
440174,-0.9199438691139221,8.92249870300293,-2.634819746017456,-0.38109999895095825,2.324709892272949,-1.2576299905776978,146.70001220703125,-146.10000610351562,-16.5
440194,-1.1837249994277954,8.561220169067383,-2.7233450412750244,0.1600620001554489,1.5701320171356201,-0.7621999979019165,151.5,-146.10000610351562,-21.30000114440918
440216,-1.317708969116211,9.080408096313477,-2.22688627243042,0.7317119836807251,-0.510673999786377,0.18292799592018127,137.10000610351562,-148.5,-15.90000057220459
440236,-1.4008508920669556,10.593111991882324,-1.4672447443008423,0.28201398253440857,-1.295740008354187,0.5259180068969727,151.5,-150.90000915527344,-18.900001525878906
440256,-2.7030081748962402,9.91242504119873,-1.2854092121124268,-0.3125019967556,1.189031958580017,-1.0061039924621582,151.5,-141.3000030517578,-21.30000114440918
440276,-3.850844383239746,9.003846168518066,-1.8721874952316284,-0.4420759975910187,1.2195199728012085,-0.48018598556518555,158.70001220703125,-167.70001220703125,-18.30000114440918
440341,-4.472314834594727,9.285571098327637,-1.5976399183273315,0.38109999895095825,-6.265284061431885,2.080806016921997,146.70001220703125,-148.5,-18.30000114440918
440361,-4.243226051330566,8.595314025878906,-1.6873613595962524,1.2347639799118042,-10.175370216369629,2.0960500240325928,144.3000030517578,-158.10000610351562,-22.5
440381,-3.016434907913208,8.77894401550293,-1.8650097846984863,2.888737916946411,-13.056486129760742,3.0259339809417725,149.10000610351562,-143.70001220703125,-14.700000762939453
440402,-2.715569019317627,8.376992225646973,-1.7866530418395996,3.6356940269470215,-15.457415580749512,2.8277618885040283,149.10000610351562,-153.3000030517578,-15.90000057220459
440422,-2.295672655105591,6.952215671539307,-1.842280387878418,3.96343994140625,-16.829376220703125,2.431417942047119,149.10000610351562,-141.3000030517578,-24.900001525878906
440482,-0.34931549429893494,3.770693302154541,-2.896806478500366,4.984787940979004,-12.743983268737793,3.8262438774108887,132.3000030517578,-150.90000915527344,-20.700000762939453
440518,1.4666465520858765,5.740377902984619,-2.1652774810791016,5.221069812774658,-9.900978088378906,5.746987819671631,127.50000762939453,-158.10000610351562,-19.5
440538,0.7955301403999329,6.256575584411621,-4.472314834594727,6.516809940338135,-0.6326259970664978,4.42838191986084,127.50000762939453,-153.3000030517578,-17.700000762939453
440575,1.9654978513717651,9.559520721435547,-8.048611640930176,5.297289848327637,-1.8673899173736572,3.155508041381836,120.30000305175781,-155.70001220703125,-19.5
440596,1.520479440689087,9.535594940185547,-6.926495552062988,2.599102020263672,-5.937537670135498,1.4100699424743652,125.10000610351562,-148.5,-16.5
440636,2.328570604324341,12.301408767700195,-9.77604866027832,3.239349842071533,2.782029867172241,1.6692179441452026,117.9000015258789,-162.90000915527344,-15.90000057220459
440656,2.661736249923706,11.425726890563965,-10.040428161621094,1.2576299905776978,-1.189031958580017,-0.3734779953956604,113.10000610351562,-160.5,-15.300000190734863
440678,2.420684576034546,11.483746528625488,-8.88182544708252,0.06859800219535828,-2.5762360095977783,0.35061198472976685,110.70000457763672,-158.10000610351562,-20.100000381469727
440698,2.1443426609039307,11.950298309326172,-8.739466667175293,-0.015243999660015106,0.9603719711303711,-0.2972579896450043,91.5,-153.3000030517578,-15.90000057220459
440758,0.8643165826797485,10.07990550994873,-8.726905822753906,-2.5000159740448,6.219552040100098,-3.2698378562927246,105.9000015258789,-148.5,-17.700000762939453
440778,0.6830793023109436,10.21628189086914,-8.131155967712402,-3.5899620056152344,6.600651741027832,-3.3917899131774902,105.9000015258789,-158.10000610351562,-11.100000381469727
440798,0.07775858789682388,10.15766429901123,-7.360149383544922,-5.015275955200195,8.658592224121094,-3.955817937850952,108.30000305175781,-162.90000915527344,-18.30000114440918
440818,-0.48629024624824524,9.037342071533203,-7.2566704750061035,-5.487839698791504,10.5031156539917,-4.093013763427734,132.3000030517578,-165.3000030517578,-23.700000762939453
440838,-1.2255949974060059,7.815934181213379,-6.8248114585876465,-6.311016082763672,8.247003555297852,-3.2164838314056396,122.70000457763672,-162.90000915527344,-21.900001525878906
440858,-1.007272720336914,7.1938652992248535,-5.3605570793151855,-6.905531883239746,3.666181802749634,-1.7301939725875854,120.30000305175781,-160.5,-17.700000762939453
440878,0.09689915925264359,7.571891784667969,-3.073856830596924,-7.522913932800293,0.8612859845161438,-0.7926880121231079,125.10000610351562,-158.10000610351562,-22.5
440939,0.013159145601093769,6.450972080230713,-3.5248565673828125,-3.3689239025115967,10.99854564666748,-0.8917739987373352,117.9000015258789,-153.3000030517578,-18.900001525878906
440959,0.5598618388175964,7.170537948608398,-2.5265560150146484,-2.28659987449646,6.326260089874268,-0.7545779943466187,103.50000762939453,-155.70001220703125,-22.5
440979,0.8074930310249329,7.3254570960998535,-1.1472382545471191,-2.75154185295105,6.570163726806641,-1.7378159761428833,129.90000915527344,-148.5,-16.5
440999,0.605918824672699,7.204033851623535,-1.8799633979797363,-2.3475759029388428,11.859831809997559,-2.5686140060424805,132.3000030517578,-155.70001220703125,-21.900001525878906
441060,0.9642064571380615,8.652137756347656,-2.3883848190307617,-0.6631140112876892,3.7728898525238037,-2.9802019596099854,132.3000030517578,-155.70001220703125,-23.700000762939453
441082,0.7399028539657593,7.900272369384766,-1.4050378799438477,-1.6311079263687134,4.596065998077393,-4.352161884307861,132.3000030517578,-155.70001220703125,-14.100000381469727
441102,-0.025720147415995598,7.166949272155762,-1.9397776126861572,-1.5853760242462158,7.759195804595947,-4.161612033843994,137.10000610351562,-148.5,-18.900001525878906
441123,-1.2566983699798584,7.468413352966309,-2.6629323959350586,-1.021347999572754,5.640279769897461,-3.1783738136291504,149.10000610351562,-148.5,-16.5
441163,-1.6251544952392578,8.817225456237793,-1.6981278657913208,-2.2027578353881836,4.1921000480651855,-1.6692179441452026,156.3000030517578,-160.5,-18.900001525878906
441184,-1.7220536470413208,9.000855445861816,-2.6270439624786377,-1.417691946029663,5.533571720123291,-1.5548880100250244,125.10000610351562,-146.10000610351562,-17.100000381469727
441204,-2.1628849506378174,8.37878704071045,-2.322589159011841,-1.3262280225753784,2.7744078636169434,-1.9893419742584229,156.3000030517578,-141.3000030517578,-23.100000381469727
441224,-2.354888916015625,8.813636779785156,-1.6024249792099,-1.189031958580017,1.189031958580017,-1.7225719690322876,151.5,-146.10000610351562,-16.5
441244,-2.0917060375213623,10.780330657958984,-1.9989937543869019,-0.571649968624115,2.903981924057007,-1.2271419763565063,141.90000915527344,-150.90000915527344,-25.500001907348633
441264,-2.3800108432769775,11.324641227722168,-2.5624444484710693,-0.5335400104522705,2.9649579524993896,-2.378063917160034,144.3000030517578,-153.3000030517578,-17.700000762939453
441285,-2.501433849334717,10.667282104492188,-2.7825610637664795,-0.19817200303077698,0.8917739987373352,-2.4771499633789062,139.5,-134.10000610351562,-18.30000114440918
441305,-2.6719045639038086,10.497408866882324,-2.2221012115478516,-0.3048799932003021,-0.5259180068969727,-1.829279899597168,151.5,-141.3000030517578,-20.700000762939453
441345,-2.7849535942077637,9.560118675231934,-2.2526063919067383,-0.7088459730148315,0.09908600151538849,-1.3186060190200806,156.3000030517578,-136.5,-15.90000057220459
441365,-2.516387462615967,9.228748321533203,-2.4464046955108643,-0.48018598556518555,0.18292799592018127,-0.9451279640197754,165.90000915527344,-146.10000610351562,-24.900001525878906
441385,-1.9672921895980835,8.725709915161133,-2.328570604324341,-0.09146399796009064,-0.7774440050125122,-0.2134159952402115,173.10000610351562,-148.5,-19.5
441405,-1.0880221128463745,9.281384468078613,-1.6161823272705078,-0.3277460038661957,-1.3490939140319824,0.7621999979019165,153.90000915527344,-153.3000030517578,-20.700000762939453
441425,-0.2679680585861206,10.04102611541748,-1.4433189630508423,-0.342989981174469,0.35061198472976685,0.4878079891204834,151.5,-153.3000030517578,-21.900001525878906
441445,-0.34512850642204285,9.21738338470459,-1.7609329223632812,-0.41158798336982727,2.6143460273742676,-0.9070180058479309,161.10000610351562,-150.90000915527344,-8.700000762939453
441465,-0.48748651146888733,8.3219633102417,-2.2424380779266357,0.10670799762010574,2.6067240238189697,-0.9298839569091797,144.3000030517578,-146.10000610351562,-12.90000057220459
441486,-0.47492551803588867,8.33572006225586,-2.4153013229370117,0.6478700041770935,1.417691946029663,-0.2134159952402115,144.3000030517578,-143.70001220703125,-15.90000057220459
441506,-0.4139149487018585,8.932666778564453,-2.5773980617523193,0.9298839569091797,0.8612859845161438,0.1448179930448532,156.3000030517578,-146.10000610351562,-16.5
441526,-0.3941762149333954,9.116894721984863,-2.9608078002929688,1.1356779336929321,0.6250039935112,-0.19054999947547913,163.5,-148.5,-14.700000762939453
441586,-0.37025049328804016,9.206018447875977,-2.9769575595855713,0.4420759975910187,-0.5868939757347107,-0.44969800114631653,153.90000915527344,-153.3000030517578,-12.300000190734863
441607,-0.5861800909042358,9.09596061706543,-3.055314302444458,0.3201240003108978,-0.22103799879550934,-0.6021379828453064,163.5,-150.90000915527344,-20.100000381469727
441628,-0.6256575584411621,9.080408096313477,-3.067875385284424,0.19054999947547913,-0.3887220025062561,-0.49542999267578125,161.10000610351562,-141.3000030517578,-12.300000190734863
441648,-0.36008206009864807,9.389050483703613,-2.7951221466064453,0.1600620001554489,-0.8689079880714417,-0.19054999947547913,156.3000030517578,-148.5,-25.500001907348633
441668,-0.12441373616456985,9.557127952575684,-2.1293890476226807,-0.2896359860897064,-1.0594580173492432,0.030487999320030212,170.70001220703125,-148.5,-20.700000762939453
441688,-0.8415871858596802,9.543371200561523,-1.3260829448699951,-1.3567159175872803,0.1448179930448532,-0.10670799762010574,151.5,-146.10000610351562,-15.90000057220459
441708,-1.9876290559768677,8.78791618347168,-1.7986159324645996,-1.3186060190200806,4.420759677886963,-0.4192099869251251,146.70001220703125,-153.3000030517578,-15.90000057220459
441728,-2.6449882984161377,9.569689750671387,-2.6509697437286377,-0.8384199738502502,3.49849796295166,0.7012239694595337,151.5,-146.10000610351562,-17.100000381469727
441750,-3.642690658569336,10.063157081604004,-1.6652300357818604,-0.8689079880714417,0.08384199440479279,0.6936019659042358,161.10000610351562,-146.10000610351562,-19.5
441770,-3.8053855895996094,10.630196571350098,-1.7938307523727417,-0.3887220025062561,0.3734779953956604,1.14329993724823,156.3000030517578,-134.10000610351562,-15.90000057220459
441790,-4.042848110198975,10.00812816619873,-1.7047075033187866,-0.457319974899292,-1.0061039924621582,1.3414719104766846,151.5,-148.5,-13.500000953674316
441810,-4.8658928871154785,8.93446159362793,-1.0425631999969482,-1.2195199728012085,-2.3704419136047363,2.126538038253784,158.70001220703125,-153.3000030517578,-19.5
441830,-4.418482303619385,9.84483528137207,-1.545601487159729,-0.35061198472976685,-1.3414719104766846,3.620450019836426,151.5,-155.70001220703125,-17.700000762939453
441850,-3.976454496383667,10.07990550994873,-2.024115800857544,0.05335399881005287,-3.5747179985046387,3.0335559844970703,134.70001220703125,-138.90000915527344,-18.30000114440918
441890,-4.102662563323975,7.143023490905762,-1.9475535154342651,1.0899460315704346,-7.561023712158203,2.4085519313812256,151.5,-155.70001220703125,-20.700000762939453
441910,-3.3878817558288574,6.292464256286621,-2.23286771774292,2.1036720275878906,-10.762263298034668,3.407033920288086,141.90000915527344,-167.70001220703125,-20.700000762939453
441995,-0.12979702651500702,4.969969749450684,-2.053424835205078,3.85673189163208,-10.221101760864258,5.945159912109375,122.70000457763672,-162.90000915527344,-14.700000762939453
442015,1.5623494386672974,5.454465866088867,-3.1408486366271973,4.961921691894531,-10.548848152160645,6.097599983215332,125.10000610351562,-155.70001220703125,-16.5
442036,1.7005205154418945,5.785837173461914,-2.613884687423706,4.512223720550537,-12.477213859558105,5.945159912109375,120.30000305175781,-155.70001220703125,-14.100000381469727
442076,3.0511271953582764,8.047415733337402,-4.86110782623291,7.149435997009277,-4.710395812988281,6.760714054107666,110.70000457763672,-160.5,-20.100000381469727
442097,2.834599494934082,9.052295684814453,-5.9335784912109375,5.533571720123291,-4.397893905639648,4.611310005187988,91.5,-155.70001220703125,-18.30000114440918
442137,2.8214404582977295,10.889192581176758,-8.239418983459473,4.756127834320068,-0.5335400104522705,4.969543933868408,89.10000610351562,-158.10000610351562,-19.5
442157,3.153409719467163,11.270210266113281,-8.932666778564453,4.2988080978393555,0.4192099869251251,4.413137912750244,103.50000762939453,-155.70001220703125,-10.5
442177,3.7246363162994385,10.649337768554688,-9.884312629699707,4.329296112060547,-0.10670799762010574,2.4237959384918213,96.30000305175781,-155.70001220703125,-17.700000762939453
442199,3.7365992069244385,12.489823341369629,-9.968052864074707,1.371959924697876,-2.28659987449646,2.278977870941162,79.5,-160.5,-15.90000057220459
442239,2.845964193344116,11.587823867797852,-10.578756332397461,1.5015339851379395,3.711913824081421,-2.652456045150757,93.9000015258789,-150.90000915527344,-11.700000762939453
442262,2.9189376831054688,11.477765083312988,-11.332416534423828,0.4420759975910187,3.5975840091705322,-2.324709892272949,98.70000457763672,-155.70001220703125,-8.100000381469727
442282,2.8722825050354004,11.581244468688965,-10.18757152557373,-2.14178204536438,0.5640279650688171,-2.5000159740448,98.70000457763672,-162.90000915527344,-12.90000057220459
442304,2.1389591693878174,10.545260429382324,-8.59770679473877,-3.955817937850952,0.7850660085678101,-3.208861827850342,96.30000305175781,-153.3000030517578,-20.100000381469727
442324,1.7280350923538208,9.298730850219727,-7.7363810539245605,-4.352161884307861,5.853695869445801,-2.987823963165283,101.10000610351562,-155.70001220703125,-15.90000057220459
442348,1.8781689405441284,9.817320823669434,-8.342300415039062,-5.6174139976501465,8.826275825500488,-2.324709892272949,105.9000015258789,-150.90000915527344,-17.700000762939453
442368,1.0838350057601929,8.205923080444336,-7.6532392501831055,-6.2805280685424805,5.960403919219971,-3.147886037826538,98.70000457763672,-162.90000915527344,-21.30000114440918
442388,1.0790499448776245,7.455852031707764,-6.093880653381348,-6.859799861907959,0.5945159792900085,-2.789651870727539,96.30000305175781,-165.3000030517578,-12.300000190734863
442408,1.5342366695404053,7.008440971374512,-3.8376853466033936,-6.974129676818848,-2.8048958778381348,-2.4619059562683105,105.9000015258789,-162.90000915527344,-20.100000381469727
442429,1.4756187200546265,6.479682922363281,-1.7035112380981445,-7.256144046783447,-0.342989981174469,-2.9116039276123047,96.30000305175781,-158.10000610351562,-20.700000762939453
442489,0.07656230032444,5.886324882507324,-3.156998634338379,-3.0792880058288574,5.579303741455078,-2.9192259311676025,115.50000762939453,-165.3000030517578,-17.700000762939453
442509,0.04665515199303627,6.307417869567871,-1.6939408779144287,-3.0640439987182617,2.7058098316192627,-2.995445966720581,113.10000610351562,-155.70001220703125,-17.700000762939453
442532,-0.17405959963798523,6.55624532699585,-0.9450659155845642,-2.484771966934204,5.14484977722168,-3.4375219345092773,117.9000015258789,-158.10000610351562,-23.700000762939453
442592,0.1381710320711136,8.435011863708496,0.362474650144577,-4.10825777053833,5.03814172744751,-3.208861827850342,120.30000305175781,-162.90000915527344,-19.5
442755,-1.7531570196151733,9.54995059967041,-1.511507272720337,-1.4100699424743652,3.96343994140625,-2.484771966934204,141.90000915527344,-150.90000915527344,-21.30000114440918
442854,-2.792729616165161,9.548155784606934,-1.937385082244873,-0.19054999947547913,-0.22103799879550934,-1.0747020244598389,151.5,-153.3000030517578,-27.30000114440918
442874,-2.6665213108062744,9.58583927154541,-1.6389117240905762,-0.5182960033416748,-0.571649968624115,-0.228659987449646,139.5,-150.90000915527344,-27.30000114440918
442915,-2.340533494949341,9.165943145751953,-2.182025671005249,-0.2896359860897064,-0.4725639820098877,0.6936019659042358,153.90000915527344,-148.5,-21.900001525878906
442935,-1.9080760478973389,9.06784725189209,-2.032489776611328,0.2972579896450043,-2.0045859813690186,1.3872039318084717,134.70001220703125,-155.70001220703125,-20.100000381469727
442977,-1.4241783618927002,8.906947135925293,-1.8991038799285889,0.8765299916267395,-1.4862899780273438,1.7911700010299683,137.10000610351562,-148.5,-17.100000381469727
443017,-1.6024249792099,8.914722442626953,-2.25081205368042,1.3186060190200806,-1.3414719104766846,1.6158639192581177,149.10000610351562,-155.70001220703125,-19.5
443081,-1.220809817314148,9.44049072265625,-2.671306610107422,1.9969639778137207,-2.538125991821289,1.5472660064697266,129.90000915527344,-153.3000030517578,-24.900001525878906
443101,-1.0186375379562378,9.21140193939209,-2.7030081748962402,1.8978779315948486,-2.4161739349365234,1.2118979692459106,137.10000610351562,-158.10000610351562,-11.100000381469727
443121,-0.6597517132759094,9.08698844909668,-2.8830490112304688,1.935987949371338,-1.5625100135803223,1.2118979692459106,120.30000305175781,-158.10000610351562,-19.5
443161,0.5933578014373779,10.170823097229004,-3.449490547180176,1.3948259353637695,-2.7210538387298584,1.5015339851379395,127.50000762939453,-155.70001220703125,-18.30000114440918
443181,1.122116208076477,9.486547470092773,-2.835197687149048,0.5411620140075684,-2.3551979064941406,1.1737879514694214,134.70001220703125,-172.5,-23.100000381469727
443245,2.1180243492126465,9.340600967407227,-3.183316946029663,0.007621999830007553,-0.3887220025062561,0.510673999786377,129.90000915527344,-160.5,-23.100000381469727
443271,2.339337110519409,9.465014457702637,-2.8686935901641846,-0.12195199728012085,-0.5182960033416748,0.2896359860897064,117.9000015258789,-167.70001220703125,-18.900001525878906
443291,2.3058412075042725,9.386059761047363,-2.7975146770477295,-0.13719600439071655,-0.26677000522613525,0.10670799762010574,129.90000915527344,-160.5,-19.5
443335,1.8811596632003784,9.012818336486816,-2.9949018955230713,-0.39634400606155396,0.7545779943466187,-0.19054999947547913,125.10000610351562,-155.70001220703125,-13.500000953674316
443355,1.7298294305801392,8.547463417053223,-2.844169855117798,-0.510673999786377,0.7698220014572144,-0.228659987449646,117.9000015258789,-160.5,-19.5
443375,1.9176464080810547,8.59172534942627,-2.7670094966888428,-0.41158798336982727,1.0823240280151367,0.1600620001554489,113.10000610351562,-158.10000610351562,-20.700000762939453
443399,1.845271110534668,8.41946029663086,-2.732915163040161,-0.5335400104522705,1.371959924697876,0.038109999150037766,108.30000305175781,-155.70001220703125,-14.100000381469727
443419,1.9080760478973389,8.598304748535156,-2.6982228755950928,-0.26677000522613525,1.0365920066833496,-0.007621999830007553,134.70001220703125,-160.5,-21.900001525878906
443459,1.8506543636322021,8.284279823303223,-2.551677942276001,-0.4192099869251251,0.7926880121231079,-0.2972579896450043,122.70000457763672,-158.10000610351562,-16.5
443479,1.5659383535385132,8.123977661132812,-2.5050227642059326,-0.3582339882850647,0.853663980960846,-0.28201398253440857,120.30000305175781,-148.5,-14.100000381469727
443499,1.6753984689712524,9.3118896484375,-2.7879443168640137,0.02286599949002266,0.8993960022926331,0.015243999660015106,115.50000762939453,-165.3000030517578,-18.900001525878906
443523,1.4110193252563477,8.933265686035156,-2.789738893508911,-0.1600620001554489,0.44969800114631653,-1.0899460315704346,115.50000762939453,-162.90000915527344,-17.100000381469727
443543,1.0718722343444824,9.107324600219727,-2.674297332763672,-0.15243999660015106,0.04573199898004532,-0.6326259970664978,122.70000457763672,-158.10000610351562,-15.90000057220459
443563,0.7698100209236145,9.304712295532227,-2.7024099826812744,-0.2591480016708374,0.4420759975910187,-0.3201240003108978,127.50000762939453,-165.3000030517578,-17.700000762939453
443624,-0.3445303440093994,8.74604606628418,-2.7670094966888428,0.015243999660015106,0.6631140112876892,-1.2728739976882935,115.50000762939453,-158.10000610351562,-21.30000114440918
443644,-0.7865580320358276,9.542773246765137,-3.0325849056243896,0.5945159792900085,0.5411620140075684,-0.2896359860897064,120.30000305175781,-150.90000915527344,-17.100000381469727
443704,-2.179034948348999,8.095267295837402,-3.935182571411133,0.6326259970664978,0.7317119836807251,0.007621999830007553,125.10000610351562,-146.10000610351562,-15.90000057220459
443724,-1.6389117240905762,8.824402809143066,-3.895705223083496,0.5030519962310791,-2.042695999145508,1.3795819282531738,129.90000915527344,-158.10000610351562,-18.900001525878906
443744,-0.9492529034614563,10.042820930480957,-3.1581947803497314,-0.060975998640060425,-3.2241058349609375,1.14329993724823,132.3000030517578,-162.90000915527344,-19.5
443767,-0.7321270108222961,9.986595153808594,-3.1019694805145264,-0.5564059615135193,-1.3338500261306763,-0.5411620140075684,134.70001220703125,-150.90000915527344,-18.30000114440918
443787,-0.5778061151504517,9.269421577453613,-3.0804362297058105,-1.0899460315704346,-1.478667974472046,-1.2042759656906128,129.90000915527344,-146.10000610351562,-16.5
