time,sensor_accX,sensor_accY,sensor_accZ,sensor_gyroX,sensor_gyroY,sensor_gyroZ,sensor_magX,sensor_magY,sensor_magZ,label_Boxing_slip_left,label_Boxing_slip_right,label_Boxing_pullback,label_Boxing_roll_left,label_Boxing_roll_right,label_Boxing_recording_cut
1273858,2.2837098,8.631802,-4.0865126,0.72409,0.541162,-0.708846,93.9,-172.5,-26.1,,,,,,
1273878,2.4380307,8.884816,-3.8992941,0.213416,-0.053354,-0.221038,91.5,-165.3,-25.500002,,,,,,
1273898,2.6515677,8.692214,-3.715066,-0.49543,0.160062,-0.449698,101.100006,-162.90001,-24.300001,,,,,,
1273918,2.723345,8.237625,-3.5296416,-0.868908,0.510674,-0.579272,98.700005,-160.5,-24.900002,,,,,,
1273981,2.95363,8.438003,-3.3777134,-1.1051899,1.1432999,0.16768399,108.3,-160.5,-24.900002,,,,,,
1274001,3.058305,8.371609,-3.284403,-1.493912,1.250008,0.053354,103.50001,-165.3,-24.900002,,,,,,
1274021,3.0218184,8.41946,-3.4171908,-1.425314,1.227142,-0.007622,101.100006,-160.5,-25.500002,,,,,,
1274044,2.982939,8.542678,-3.3454137,-0.87653,0.708846,0.022866,101.100006,-167.70001,-27.300001,,,,,,
1274065,3.0062666,8.64197,-3.1683633,-0.80030996,0.487808,-0.289636,98.700005,-160.5,-25.500002,,,,,,
1274085,3.0642865,9.269422,-3.2491126,-0.617382,0.617382,-0.30488,96.3,-165.3,-27.900002,,,,,,
1274105,2.6958303,9.247889,-3.3226843,-0.907018,0.45731997,-0.95274997,93.9,-162.90001,-27.300001,,,,,,
1274125,2.003779,7.8584023,-2.7269337,-1.4024479,0.15244,-1.471046,103.50001,-160.5,-25.500002,,,,,,
1274188,1.2106414,10.171421,-2.6120903,-1.532022,0.632626,-1.097568,103.50001,-165.3,-27.300001,,,,,,
1274287,-0.43245736,9.267627,-2.3315613,-0.243904,-0.17530599,-2.088428,108.3,-165.3,-29.1,,,,,,
1274307,-0.7853617,8.213699,-2.1688664,-0.41158798,-0.967994,-2.7820299,113.100006,-167.70001,-26.7,,,,,,
1274347,-0.9677953,8.894386,-2.3231874,0.632626,-0.60976,-1.669218,108.3,-167.70001,-25.500002,,,,,,
1274367,-0.9977025,9.128858,-2.5163875,0.60976,-0.640248,-1.928366,120.3,-162.90001,-26.7,,,,,,
1274390,-0.8780739,8.972743,-2.5415094,0.53354,-0.907018,-2.080806,117.9,-160.5,-27.300001,,,,,,
1274410,-0.7733989,9.112708,-2.6043146,0.708846,-0.80030996,-1.75306,117.9,-155.70001,-25.500002,,,,,,
1274430,-0.8810646,8.983509,-2.8334033,0.579272,-0.960372,-1.4024479,120.3,-158.1,-25.500002,,,,,,
1274470,-0.36426908,9.700683,-3.0768476,0.28201398,-0.64787,-0.525918,120.3,-162.90001,-26.1,,,,,,
1274491,-0.32897863,9.419556,-3.1701577,-0.099086,-0.525918,-0.594516,122.700005,-155.70001,-26.7,,,,,,
1274511,-0.30565107,9.067249,-3.2353554,0.0,-0.518296,-0.503052,125.100006,-160.5,-27.900002,,,,,,
1274532,-0.09809545,9.095362,-3.3107214,0.213416,-0.442076,-0.129574,122.700005,-165.3,-26.7,,,,,,
1274552,0.016748004,9.19585,-3.2568884,0.3811,-0.45731997,-0.053354,120.3,-158.1,-26.1,,,,,,
1274572,0.07716044,9.247291,-3.3669467,0.20579399,-0.289636,-0.221038,125.100006,-165.3,-27.900002,,,,,,
1274595,0.22191104,9.0756235,-3.2676551,0.015244,-0.251526,-0.35061198,120.3,-160.5,-27.900002,,,,,,
1274615,0.40554094,9.018202,-3.2473183,-0.160062,-0.015244,-0.320124,122.700005,-162.90001,-26.1,,,,,,
1274635,0.5138048,8.620437,-3.1863077,-0.480186,0.297258,-0.053354,120.3,-158.1,-26.7,,,,,,
1274656,0.5909653,8.908143,-3.222196,-0.373478,0.312502,0.106708,125.100006,-160.5,-27.900002,,,,,,
1274677,0.7524639,9.052296,-3.2706459,-0.442076,0.259148,-0.053354,122.700005,-165.3,-27.900002,,,,,,
1274697,0.7542583,8.589334,-3.028996,-0.754578,0.365856,0.129574,122.700005,-158.1,-25.500002,,,,,,
1274757,0.70760316,9.237122,-3.0343792,-0.388722,0.487808,-0.15244,122.700005,-155.70001,-26.7,,,,,,
1274777,0.7919413,9.148597,-3.0571086,-0.716468,0.40396598,-0.579272,125.100006,-155.70001,-25.500002,,,,,,
1274797,0.9444677,9.798779,-3.154606,-0.015244,0.358234,-0.67835796,117.9,-160.5,-28.500002,,,,,,
1274817,0.7763896,9.198841,-2.9608078,-0.67073596,0.243904,-1.166166,120.3,-162.90001,-26.1,,,,,,
1274839,0.86790544,8.842946,-2.665923,-0.594516,0.091464,-0.92988396,122.700005,-158.1,-26.7,,,,,,
1274859,0.77280074,8.806459,-2.5720148,-0.68597996,0.289636,-0.67835796,129.90001,-162.90001,-25.500002,,,,,,
1274879,0.5467027,9.173718,-2.828618,-0.358234,0.365856,-0.861286,125.100006,-160.5,-27.300001,,,,,,
1274900,0.20516303,9.00265,-2.853142,-0.213416,-0.16768399,-1.3795819,125.100006,-158.1,-25.500002,,,,,,
1274920,0.105871305,9.124073,-2.7329152,0.297258,-0.56402797,-1.3795819,127.50001,-158.1,-26.1,,,,,,
1274940,0.15910603,9.988988,-2.948845,0.41921,-0.56402797,-1.318606,122.700005,-153.3,-24.900002,,,,,,
1275003,-0.86790544,8.820216,-2.9009933,0.030488,-0.640248,-2.36282,129.90001,-160.5,-27.300001,,,,,,
1275024,-1.1861175,8.0611725,-2.9045823,-0.182928,-0.70122397,-2.416174,137.1,-155.70001,-26.1,,,,,,
1275044,-1.476815,7.6981,-3.2096353,0.388722,-0.67835796,-1.669218,144.3,-153.3,-27.900002,,,,,,
1275064,-1.233969,8.31,-3.4339387,0.72409,-1.234764,-0.94512796,137.1,-153.3,-27.900002,,,,,,
1275124,-0.18721876,9.10254,-3.3687413,-0.17530599,-1.463424,-0.480186,141.90001,-155.70001,-26.1,,,,,,
1275147,0.06998273,9.198841,-3.3627598,-0.868908,-0.33536798,-0.137196,146.70001,-155.70001,-27.300001,,,,,,
1275168,0.006579573,9.192261,-3.426163,-0.785066,-0.20579399,-0.358234,144.3,-155.70001,-27.900002,,,,,,
1275188,0.023925718,9.147401,-3.2371497,-0.320124,-0.083841994,-0.289636,139.5,-158.1,-27.300001,,,,,,
1275208,0.21832219,9.72401,-3.3334508,-0.083841994,0.16768399,-0.449698,146.70001,-158.1,-27.300001,,,,,,
1275232,0.35828763,9.673168,-3.2233925,-0.3811,0.3811,-0.655492,137.1,-146.1,-26.7,,,,,,
1275252,0.079553016,9.197046,-3.229374,-0.57164997,0.640248,-0.81555396,139.5,-148.5,-26.1,,,,,,
1275295,-0.34153965,9.040931,-3.1683633,-0.56402797,1.577754,-0.388722,141.90001,-153.3,-27.300001,,,,,,
1275360,-0.3828115,9.062464,-2.856731,-0.15244,0.754578,-0.129574,146.70001,-148.5,-26.7,,,,,,
1275380,-0.38879293,9.014014,-2.8250291,-0.442076,0.69360197,-0.091464,139.5,-150.90001,-27.300001,,,,,,
1275402,-0.45638308,8.774757,-2.8130665,-0.449698,0.57164997,-0.07622,146.70001,-155.70001,-27.900002,,,,,,
1275422,-0.5191881,8.729299,-2.920732,-0.259148,0.480186,0.129574,134.70001,-150.90001,-26.7,,,,,,
1275442,-0.61608726,8.774159,-3.154606,-0.030488,0.221038,0.106708,144.3,-155.70001,-26.7,,,,,,
1275462,-0.4581775,8.938648,-3.192289,0.213416,-0.213416,0.251526,141.90001,-150.90001,-26.7,,,,,,
1275484,-0.3481192,9.241907,-3.3268712,0.259148,-0.46494198,0.182928,141.90001,-150.90001,-24.900002,,,,,,
1275504,-0.37623194,9.213196,-3.2987585,-0.106708,-0.602138,-0.060976,139.5,-153.3,-27.900002,,,,,,
1275524,-0.3660635,8.913527,-3.299955,-0.373478,-0.731712,-0.320124,137.1,-155.70001,-27.300001,,,,,,
1275544,-0.5066271,8.804665,-3.1133342,-0.480186,-0.69360197,-0.160062,139.5,-153.3,-25.500002,,,,,,
1275564,-0.8673073,8.72571,-3.0469403,-0.891774,-0.358234,-0.060976,146.70001,-153.3,-26.7,,,x,,,
1275588,-2.167072,8.866872,-3.109147,-1.006104,0.746956,0.49543,137.1,-148.5,-26.1,,,x,,,
1275608,-3.3196936,9.527222,-3.4716218,-1.158544,1.425314,0.46494198,144.3,-153.3,-27.300001,,,x,,,
1275630,-4.4280524,9.8645735,-3.8460593,-1.3719599,1.8521459,0.030488,137.1,-153.3,-28.500002,,,x,,,
1275650,-5.3892684,9.372302,-4.094289,-1.692084,1.684462,-0.655492,137.1,-155.70001,-27.300001,,,x,,,
1275670,-6.904364,8.609072,-4.0362687,-1.532022,1.33385,-0.67835796,137.1,-150.90001,-26.1,,,x,,,
1275713,-7.229754,10.073924,-4.6080933,-1.707328,1.074702,2.995446,137.1,-158.1,-27.900002,,,x,,,
1275733,-6.788923,8.709559,-3.703103,-2.7515419,0.960372,2.09605,129.90001,-155.70001,-27.300001,,,x,,,
1275753,-6.109432,7.2734184,-3.768899,-2.7591639,1.669218,1.242386,137.1,-155.70001,-29.1,,,x,,,
1275773,-5.048925,5.850436,-3.0953898,-1.3643379,0.16768399,0.69360197,132.3,-158.1,-29.1,,,x,,,
1275793,-3.2861974,5.5238504,-2.00019,-1.432936,-0.67835796,2.195136,122.700005,-160.5,-29.7,,,x,,,
1275813,-0.020935005,5.44669,-1.2243986,-2.522882,0.899396,5.25918,120.3,-155.70001,-30.900002,,,x,,,
1275833,0.70521057,5.0854115,-0.8906349,-3.643316,1.3567159,6.082356,115.50001,-160.5,-29.7,,,x,,,
1275853,2.1138372,5.7451634,-0.5891708,-3.6738038,3.041178,10.25159,108.3,-165.3,-30.900002,,,x,,,
1275873,2.7502613,6.166256,-0.6041244,-4.0015497,3.064044,10.769886,101.100006,-162.90001,-31.500002,,,x,,,
1275893,3.7706933,6.476692,-0.6962384,-3.7805119,2.926848,11.234828,93.9,-165.3,-32.7,,,x,,,
1275913,4.4065194,6.952814,-0.8015116,-2.6829438,1.814036,10.929948,81.9,-174.90001,-35.100002,,,x,,,
1275953,7.325457,9.148597,-1.2752408,-1.821658,0.72409,11.806478,53.100002,-172.5,-32.7,,,x,,,
1275973,7.727409,9.317273,-1.6933428,-1.059458,-0.03811,10.93757,38.7,-170.1,-32.7,,,x,,,
1275993,9.247291,10.911922,-1.2178191,-0.884152,-1.006104,10.945191,33.9,-179.70001,-35.100002,,,x,,,
1276013,10.189365,11.531598,-1.3464198,-0.80030996,0.106708,7.69822,17.1,-174.90001,-33.300003,,,x,,,
1276033,9.593616,10.064952,-1.8853467,-0.198172,-0.373478,4.9619217,17.1,-170.1,-33.9,,,x,,,
1276053,10.81921,11.4083805,-1.677791,0.243904,-0.594516,5.434486,9.900001,-177.3,-33.300003,,,x,,,
1276076,10.862276,12.944412,-2.2029605,0.365856,0.243904,3.62045,5.1000004,-174.90001,-33.9,,,x,,,
1276096,11.184675,12.160247,-1.3912805,-0.632626,-1.4024479,0.060976,7.5000005,-172.5,-33.9,,,x,,,
1276118,11.078206,11.140413,-0.933103,0.106708,-0.068598,-1.3490939,7.5000005,-170.1,-32.7,,,x,,,
1276138,11.103926,11.7971735,-1.91645,1.227142,0.68597996,-2.6829438,7.5000005,-172.5,-31.500002,,,x,,,
1276158,10.326341,11.786407,-2.6073053,2.2027578,0.548784,-4.245454,12.3,-170.1,-33.9,,,x,,,
1276178,9.941136,10.546457,-2.857927,1.8369019,-0.80030996,-5.22107,14.700001,-172.5,-32.7,,,x,,,
1276198,10.189365,9.968651,-2.497845,0.899396,-1.692084,-5.9222937,19.5,-172.5,-32.100002,,,x,,,
1276218,10.228843,9.01222,-1.794429,0.586894,-0.7622,-6.638762,26.7,-174.90001,-32.7,,,x,,,
1276238,8.409292,7.8913,-2.1156316,2.065562,1.18141,-7.1418138,33.9,-170.1,-31.500002,,,x,,,
1276258,5.961691,6.672883,-2.1664739,2.446662,1.021348,-8.323224,41.100002,-167.70001,-29.7,,,x,,,
1276279,5.246312,6.1901817,-2.041462,2.17227,0.960372,-8.673836,48.300003,-172.5,-30.900002,,,x,,,
1276299,4.3664436,5.9598966,-2.2185123,1.71495,0.81555396,-8.902495,50.7,-174.90001,-29.1,,,x,,,
1276322,2.464349,4.3760138,-1.5641439,-0.899396,-0.998482,-8.498529,65.100006,-172.5,-29.1,,,x,,,
1276342,0.77040815,4.681067,-1.1274995,-0.708846,0.007622,-7.675354,81.9,-172.5,-29.1,,,x,,,
1276362,-1.7082963,4.2599745,-0.9881322,-0.68597996,0.769822,-8.643348,84.3,-177.3,-29.7,,,x,,,
1276382,-3.6414945,5.5746927,-2.342926,0.160062,3.033556,-7.0198617,89.100006,-170.1,-30.900002,,,x,,,
1276402,-4.1899915,6.215902,-3.1324747,0.259148,1.310984,-6.82169,98.700005,-167.70001,-29.7,,,x,,,
1276422,-4.3622565,6.4479814,-2.3291688,1.150922,-0.373478,-5.64028,98.700005,-165.3,-28.500002,,,x,,,
1276442,-4.84436,8.317178,-3.0744548,0.632626,0.525918,-3.437522,103.50001,-167.70001,-29.7,,,x,,,
1276462,-4.7713866,9.626513,-3.7138698,0.03811,0.830798,-2.89636,110.700005,-162.90001,-29.1,,,x,,,
1276483,-4.3484993,9.449463,-3.6373074,-0.007622,-0.70122397,-3.879598,113.100006,-160.5,-29.7,,,x,,,
1276507,-4.2193007,9.0188,-3.0852215,-0.602138,-1.006104,-3.422278,115.50001,-162.90001,-31.500002,,,x,,,
1276527,-3.8011985,9.885509,-3.9148457,-0.640248,1.051836,-2.32471,117.9,-158.1,-29.1,,,x,,,
1276547,-3.57211,9.728795,-4.045839,0.03811,0.297258,-2.7058098,120.3,-160.5,-27.900002,,,x,,,
1276567,-2.8106737,9.378881,-3.701907,0.785066,-1.928366,-2.454284,120.3,-160.5,-29.7,,,x,,,
1276588,-2.359674,9.480566,-2.7137747,0.716468,-1.94361,-1.29574,122.700005,-158.1,-31.500002,,,x,,,
1276608,-1.5916585,9.905248,-3.0475385,0.083841994,-0.15244,-0.518296,127.50001,-160.5,-30.900002,,,x,,,
1276631,-1.635921,8.958387,-2.9805465,0.33536798,0.19055,-0.868908,129.90001,-158.1,-29.1,,,x,,,
1276673,-0.7668193,9.3346195,-2.8142626,0.480186,0.007622,-0.960372,122.700005,-162.90001,-27.900002,,,,,,
1276693,-0.51859,9.069642,-2.6198661,0.160062,0.19055,-0.92988396,127.50001,-160.5,-26.7,,,,,,
1276713,-0.24703304,8.862684,-2.5247614,-0.11432999,0.487808,-0.708846,132.3,-162.90001,-29.1,,,,,,
1276736,-0.15910603,9.00265,-2.5319393,-0.221038,0.92226195,-0.297258,132.3,-155.70001,-27.900002,,,,,,
1276756,-0.53832865,8.997865,-2.8214405,-0.15244,1.280496,-0.3811,129.90001,-160.5,-27.300001,,,,,,
1276776,-0.60352623,9.112708,-2.9691818,0.121952,0.70122397,-0.320124,127.50001,-155.70001,-28.500002,,,,,,
1276796,-0.44442022,8.897377,-2.8064868,0.327746,0.160062,-0.396344,132.3,-158.1,-27.300001,,,,,,
1276816,-0.1531246,9.136634,-2.7460744,0.365856,0.106708,0.060976,132.3,-162.90001,-28.500002,,,,,,
1276838,0.07716044,9.149793,-2.7921314,0.030488,0.16768399,0.007622,127.50001,-160.5,-26.7,,,,,,
1276858,0.008972145,9.007435,-2.744878,0.045732,0.068598,-0.312502,129.90001,-158.1,-28.500002,,,,,,
1276879,0.16807817,9.165943,-2.9542282,0.320124,0.068598,-0.365856,125.100006,-155.70001,-29.1,,,,,,
1276919,0.44023323,9.304114,-2.7472706,0.007622,-0.33536798,-0.46494198,132.3,-162.90001,-27.900002,,,,,,
1276939,0.35110992,9.078614,-2.6653252,-0.213416,-0.129574,-0.525918,125.100006,-158.1,-27.300001,,,,,,
1276959,0.43245736,9.316675,-2.6216607,-0.34298998,0.091464,-0.26677,122.700005,-160.5,-27.900002,,,,,,
1276979,0.3200065,9.192261,-2.5510798,-0.80793196,0.312502,-0.49543,127.50001,-160.5,-27.300001,,,,,,
1277000,0.20935003,9.0511,-2.5391169,-0.663114,0.41158798,-0.586894,129.90001,-158.1,-28.500002,,,,,,
1277020,0.22849062,8.81902,-2.4757137,-0.769822,0.49543,-0.53354,125.100006,-155.70001,-29.1,,,,,,
1277041,0.26617363,8.850123,-2.2861025,-0.746956,0.518296,0.022866,132.3,-165.3,-27.900002,,,,,,
1277061,0.27634206,9.276001,-2.5110042,-0.82317597,0.67073596,0.251526,125.100006,-155.70001,-27.300001,,,,,,
1277081,0.10886202,9.056482,-2.543304,-0.663114,0.434454,0.068598,125.100006,-158.1,-29.1,,,,,,
1277101,0.19798532,9.271814,-2.6754935,0.03811,0.068598,0.15244,127.50001,-155.70001,-27.300001,,,,,,
1277121,0.40554094,9.229346,-2.6210625,0.23628199,-0.144818,0.297258,125.100006,-155.70001,-30.300001,,,,,,
1277141,0.47731808,9.031959,-2.5522761,0.312502,-0.099086,0.442076,125.100006,-160.5,-29.1,,,,,,
1277164,0.5658432,9.132447,-2.777776,0.541162,0.053354,0.632626,120.3,-153.3,-27.300001,,,,,,
1277184,0.4719348,9.108521,-2.9303024,0.708846,0.053354,0.45731997,127.50001,-160.5,-28.500002,,,,,,
1277204,0.5024401,9.014613,-2.991313,0.80793196,-0.099086,0.26677,125.100006,-160.5,-29.7,,,,,,
1277224,0.72853816,9.242505,-2.9470503,0.617382,-0.129574,0.243904,127.50001,-160.5,-27.300001,,,,,,
1277264,0.56883395,9.12168,-3.0403607,0.053354,0.57164997,-0.365856,120.3,-153.3,-28.500002,,,,,,
1277285,0.40314835,8.996669,-3.0762494,-0.198172,0.625004,-0.731712,127.50001,-162.90001,-26.7,,,,,,
1277306,0.2769402,9.009828,-2.9303024,-0.35061198,0.868908,-0.80793196,127.50001,-162.90001,-27.300001,,,,,,
1277347,-0.037084863,9.001453,-3.05352,-0.182928,0.830798,-1.06708,122.700005,-153.3,-26.1,,,,,,
1277368,0.010766573,9.008632,-3.0846233,0.083841994,0.67835796,-0.94512796,134.70001,-158.1,-27.900002,,,,,,
1277388,0.022729432,9.0188,-2.9919112,-0.053354,0.625004,-0.853664,129.90001,-162.90001,-27.300001,,,,,,
1277408,-0.18602246,8.905152,-3.20485,-0.07622,0.57164997,-0.68597996,125.100006,-158.1,-25.500002,,,,,,
1277428,-0.16508746,8.983509,-3.150419,-0.045732,0.259148,-0.46494198,125.100006,-155.70001,-24.300001,,,,,,
1277472,-0.10467502,9.156971,-3.138456,-0.28201398,0.030488,-0.35061198,125.100006,-158.1,-24.900002,,,,,,
1277492,0.019738719,9.012818,-2.9751632,-0.34298998,0.007622,-0.388722,129.90001,-153.3,-27.300001,,,,,,
1277512,0.04246815,9.238318,-2.8920212,-0.3811,0.297258,-0.46494198,129.90001,-155.70001,-26.1,,,,,,
1277535,-0.123815596,8.72571,-2.9470503,-0.396344,0.480186,-0.434454,129.90001,-158.1,-27.900002,,,,,,
1277555,-0.14295617,8.978126,-3.1785316,0.03811,0.548784,-0.121952,132.3,-158.1,-26.1,,,,,,
1277575,-0.079553016,9.098951,-3.158793,0.060976,0.41921,-0.015244,129.90001,-158.1,-25.500002,,,,,,
1277595,-0.066992015,9.158765,-3.1354654,-0.121952,0.358234,-0.045732,132.3,-162.90001,-26.7,,,,,,
1277618,0.009570288,9.174915,-3.192289,-0.365856,0.320124,-0.129574,129.90001,-155.70001,-26.1,,,,,,
1277638,0.078954875,9.076819,-3.1791298,-0.33536798,0.22865999,-0.198172,127.50001,-160.5,-27.900002,,,,,,
1277659,0.23207948,9.060072,-2.9937055,-0.289636,0.198172,-0.23628199,122.700005,-153.3,-27.300001,,,,,,
1277679,0.25959405,9.156373,-2.928508,-0.35061198,0.46494198,-0.34298998,127.50001,-158.1,-27.900002,,,,,,
1277699,0.31761393,9.080408,-2.9608078,-0.617382,0.70122397,-0.503052,129.90001,-155.70001,-26.1,,,,,,
1277722,0.2781365,9.133643,-2.945256,-0.525918,0.87653,-0.55640596,129.90001,-160.5,-27.300001,,,,,,
1277742,0.1531246,9.172523,-2.911162,-0.49543,0.884152,-0.548784,132.3,-158.1,-26.1,,,,,,
1277763,0.11364716,8.984107,-2.7957203,-0.64787,0.754578,-0.510674,134.70001,-158.1,-26.7,,,,,,
1277783,0.0891233,9.034949,-2.819048,-0.617382,0.746956,-0.46494198,134.70001,-153.3,-25.500002,,,,,,
1277825,-0.009570288,8.973341,-2.8088794,-0.274392,0.312502,-0.594516,132.3,-150.90001,-27.300001,,,,,,
1277846,0.047253296,9.021193,-2.836394,0.007622,0.129574,-0.503052,127.50001,-162.90001,-28.500002,,,,,,
1277866,0.093908444,8.927882,-2.7550466,-0.129574,-0.015244,-0.320124,129.90001,-160.5,-26.7,,,,,,
1277886,0.12860073,9.091175,-2.8591235,-0.015244,0.068598,-0.274392,132.3,-158.1,-27.900002,,,,,,
1277906,0.10407688,9.0002575,-2.8938158,-0.091464,0.007622,-0.365856,137.1,-155.70001,-27.300001,,,,,,
1277926,0.2129389,8.921303,-2.8728807,0.015244,-0.015244,-0.388722,127.50001,-155.70001,-24.900002,,,,,,
1277946,0.19080761,8.871058,-2.874675,0.015244,0.091464,-0.30488,127.50001,-160.5,-26.7,,,,,,
1277966,0.1268063,9.305908,-3.0104535,0.11432999,0.23628199,-0.434454,132.3,-153.3,-27.900002,,,,,,
1277987,-0.03828115,8.857301,-3.0469403,-0.365856,0.022866,-0.868908,129.90001,-160.5,-27.300001,,,,,,
1278011,-0.092712164,8.944032,-3.1647744,0.34298998,-0.099086,-0.586894,134.70001,-155.70001,-25.500002,,,,,,
1278031,-0.052636582,9.080408,-3.145634,0.182928,-0.327746,-0.388722,134.70001,-148.5,-25.500002,,,,,,
1278055,-0.008972145,9.113306,-3.0852215,0.121952,-0.198172,-0.46494198,134.70001,-158.1,-26.7,,,,,,
1278075,0.008972145,9.200635,-3.1522136,-0.243904,-0.053354,-0.70122397,137.1,-153.3,-25.500002,,,,,,
1278095,-0.09091773,9.113306,-3.1743448,-0.07622,0.160062,-0.95274997,134.70001,-155.70001,-27.300001,,,,,,
1278115,-0.10228245,8.835768,-3.070268,-0.22865999,0.297258,-0.92988396,132.3,-155.70001,-26.7,,,,,,
1278137,-0.07536601,9.0188,-3.054118,-0.160062,0.548784,-0.67835796,139.5,-153.3,-27.900002,,,,,,
1278157,-0.17346147,9.049305,-3.0888102,-0.274392,0.81555396,-0.64787,134.70001,-158.1,-24.900002,,,,,,
1278177,-0.14235802,9.042726,-3.100773,-0.396344,0.82317597,-0.67835796,139.5,-153.3,-27.300001,,,,,,
1278198,-0.22370547,8.90575,-3.0774455,-0.40396598,0.80793196,-0.55640596,137.1,-153.3,-26.7,,,,,,
1278218,-0.2685662,8.939247,-3.1444376,-0.289636,0.663114,-0.35061198,137.1,-155.70001,-24.900002,,,,,,
1278238,-0.25720146,8.814235,-3.0738568,-0.221038,0.49543,-0.22865999,139.5,-153.3,-26.7,,,,,,
1278261,-0.6029281,8.917115,-3.0953898,-0.388722,0.792688,0.20579399,129.90001,-158.1,-25.500002,,,x,,,
1278281,-1.5743123,8.56122,-3.2060463,-1.06708,1.06708,-0.30488,137.1,-153.3,-25.500002,,,x,,,
1278303,-3.3418248,8.621035,-3.6032133,-0.297258,1.814036,-0.129574,134.70001,-155.70001,-27.900002,,,x,,,
1278324,-4.2940683,10.843734,-4.2581797,-1.051836,2.560992,1.25763,132.3,-150.90001,-26.7,,,x,,,
1278344,-5.722434,10.282676,-4.393958,-2.957336,2.8048959,-1.760682,132.3,-155.70001,-26.1,,,x,,,
1278364,-7.8314857,8.52892,-4.6583376,-1.547266,3.7881339,-3.7957559,137.1,-153.3,-24.900002,,,x,,,
1278385,-8.378787,7.9893956,-5.289378,-0.69360197,3.102154,-0.868908,137.1,-158.1,-26.7,,,x,,,
1278405,-8.531911,8.622231,-4.3610606,-2.187514,1.8292799,2.2332458,137.1,-155.70001,-27.300001,,,x,,,
1278425,-8.058182,8.001359,-4.091298,-2.500016,2.43904,2.980202,132.3,-158.1,-26.7,,,x,,,
1278446,-6.94444,7.216595,-3.5637357,-3.094532,1.265252,2.873494,137.1,-150.90001,-26.1,,,x,,,
1278466,-5.447886,4.752246,-2.4655454,-2.987824,-0.320124,2.004586,134.70001,-158.1,-27.900002,,,x,,,
1278486,-4.092494,3.284403,-1.4774132,-1.8369019,-0.106708,4.519846,132.3,-160.5,-26.1,,,x,,,
1278506,-0.9187476,5.2026477,-1.1011813,-2.36282,0.57164997,9.237864,120.3,-162.90001,-27.900002,,,x,,,
1278566,5.2481065,5.7332006,-0.28471604,-2.7362978,1.98172,14.763814,86.700005,-172.5,-28.500002,,,x,,,
1278625,8.006742,8.578567,-0.68606997,-3.323192,-1.29574,10.06104,45.9,-174.90001,-30.900002,,,x,,,
1278660,8.275308,10.145701,-1.6329303,-2.301844,0.998482,8.833898,31.500002,-174.90001,-31.500002,,,x,,,
1278680,8.744252,9.351965,-0.90140146,-2.36282,-0.548784,7.43145,17.1,-172.5,-32.7,,,x,,,
1278720,9.871154,10.078709,-1.2985684,-0.373478,1.814036,7.1265697,9.900001,-177.3,-32.7,,,x,,,
1278744,10.090074,10.646347,-1.4134119,0.030488,0.47256398,6.4482117,2.7,-167.70001,-33.300003,,,x,,,
1278765,10.429221,10.608066,-1.6676226,0.46494198,-0.92988396,3.871976,-2.1000001,-174.90001,-31.500002,,,x,,,
1278785,11.863567,11.52143,-1.915852,0.35061198,-0.960372,2.09605,-9.3,-172.5,-32.100002,,,x,,,
1278805,11.702667,11.279182,-1.2076507,0.327746,-1.75306,-0.93750596,-11.700001,-170.1,-33.300003,,,x,,,
1278825,11.762482,11.402998,-1.2028655,0.663114,-0.99086,-2.2332458,-11.700001,-179.70001,-32.100002,,,x,,,
1278845,11.478962,10.855099,-1.5276572,0.68597996,-0.243904,-5.045764,-2.1000001,-172.5,-31.500002,,,x,,,
1278865,11.520832,10.724105,-1.2393522,0.731712,0.213416,-4.603688,-4.5,-170.1,-30.900002,,,x,,,
1278887,10.498007,10.832369,-2.246625,1.432936,0.47256398,-6.17382,12.3,-170.1,-31.500002,,,x,,,
1278907,10.074522,10.060166,-2.3243835,1.3872039,-0.160062,-7.69822,17.1,-177.3,-32.7,,,x,,,
1278927,10.347874,8.55165,-1.6718096,0.95274997,-1.94361,-8.72719,19.5,-179.70001,-29.7,,,x,,,
1278948,8.932667,7.681352,-1.4857872,1.280496,-0.365856,-9.359816,26.7,-172.5,-29.7,,,x,,,
1278968,7.4080005,7.111322,-1.6879594,1.48629,0.297258,-10.190614,45.9,-172.5,-28.500002,,,x,,,
1279032,1.8925244,3.7916284,-1.4319543,0.41921,-1.303362,-9.253108,67.5,-177.3,-29.1,,,x,,,
1279053,0.24045348,4.368238,-1.4953574,1.006104,-1.1051899,-8.368956,79.5,-170.1,-27.900002,,,x,,,
1279073,-1.0951998,4.9173336,-1.7322221,0.663114,-0.884152,-8.254626,84.3,-170.1,-28.500002,,,x,,,
1279095,-2.472723,5.081823,-2.3285706,0.327746,-0.30488,-8.643348,101.100006,-165.3,-28.500002,,,x,,,
1279115,-3.5942411,4.903576,-2.6384087,0.625004,-0.57164997,-7.789684,105.9,-170.1,-27.900002,,,x,,,
1279135,-3.886733,5.805576,-2.4673398,0.983238,-1.471046,-5.434486,108.3,-160.5,-29.1,,,x,,,
1279155,-4.162477,7.196258,-2.5283504,0.3811,-1.189032,-4.23021,113.100006,-162.90001,-27.900002,,,x,,,
1279179,-4.5793824,9.17013,-3.0906048,0.20579399,-0.525918,-3.7805119,120.3,-162.90001,-27.900002,,,x,,,
1279199,-4.5416994,10.040428,-3.4357333,-0.28201398,-0.746956,-4.832348,115.50001,-160.5,-29.1,,,x,,,
1279219,-4.3126106,8.965565,-3.2389443,0.55640596,-1.8750119,-5.884184,129.90001,-160.5,-29.1,,,x,,,
1279243,-4.264161,9.161756,-3.3902743,1.02897,-1.059458,-3.948196,129.90001,-155.70001,-26.1,,,x,,,
1279263,-3.9722674,9.532006,-3.6887476,0.884152,-0.884152,-2.7286758,134.70001,-160.5,-27.900002,,,x,,,
1279285,-3.2897863,10.009923,-3.2897863,1.272874,-0.30488,-1.455802,141.90001,-158.1,-27.900002,,,x,,,
1279305,-2.9715743,10.072129,-3.292777,0.053354,0.586894,-1.425314,146.70001,-155.70001,-27.900002,,,x,,,
1279325,-2.9267135,9.259851,-3.434537,0.41921,1.234764,-1.3948259,139.5,-150.90001,-26.7,,,x,,,
1279345,-2.3363464,9.383069,-3.1815224,0.80793196,0.983238,-0.67073596,137.1,-148.5,-26.7,,,x,,,
1279365,-2.1784368,8.956593,-3.2078407,0.17530599,0.998482,-0.602138,139.5,-153.3,-29.1,,,x,,,
1279385,-1.761531,8.506789,-3.1462321,0.94512796,0.53354,-0.129574,146.70001,-153.3,-27.900002,,,x,,,
1279405,-1.2441374,9.210205,-3.154008,1.006104,-0.015244,0.442076,141.90001,-155.70001,-25.500002,,,x,,,
1279425,-0.86371845,8.93805,-3.183317,0.625004,-0.442076,-0.030488,139.5,-150.90001,-26.7,,,x,,,
1279445,-0.698631,8.842347,-3.0146406,0.41921,-0.87653,-0.045732,141.90001,-158.1,-26.7,,,x,,,
1279465,-0.2631829,9.309497,-3.138456,0.327746,-1.074702,0.11432999,134.70001,-150.90001,-23.7,,,,,,
1279485,-0.2506219,9.10254,-3.1719522,0.320124,-1.082324,-0.137196,146.70001,-153.3,-27.300001,,,,,,
1279505,-0.23686461,9.394434,-3.3196936,0.60976,-0.983238,0.045732,137.1,-153.3,-25.500002,,,,,,
1279527,-0.35230622,8.868068,-3.1731484,0.34298998,-0.899396,-0.251526,141.90001,-153.3,-25.500002,,,,,,
1279547,-0.34153965,8.830384,-3.1438394,0.41158798,-0.655492,-0.015244,139.5,-153.3,-25.500002,,,,,,
1279567,-0.26557547,9.1797,-3.2365515,0.426832,-0.434454,0.068598,132.3,-155.70001,-27.300001,,,,,,
1279587,-0.3409415,9.083998,-3.1946816,-0.11432999,-0.20579399,-0.068598,141.90001,-153.3,-24.300001,,,,,,
1279609,-0.24942562,9.076221,-3.1480265,-0.388722,-0.015244,-0.198172,139.5,-155.70001,-26.1,,,,,,
1279629,-0.19559275,9.125269,-3.2407386,-0.449698,0.17530599,-0.373478,144.3,-153.3,-27.300001,,,,,,
1279653,-0.3074455,8.917115,-3.20485,-0.480186,0.17530599,-0.487808,137.1,-153.3,-26.1,,,,,,
1279673,-0.2727532,8.912331,-3.1779337,-0.3811,0.083841994,-0.251526,144.3,-160.5,-26.1,,,,,,
1279693,-0.06998273,9.073829,-3.1869059,-0.35061198,0.045732,0.091464,139.5,-160.5,-25.500002,,,,,,
1279735,-0.008972145,8.515761,-3.1641762,-0.586894,-0.083841994,0.274392,141.90001,-158.1,-25.500002,,,,,,
1279755,0.31761393,9.147401,-3.3454137,0.03811,-0.221038,0.632626,134.70001,-148.5,-25.500002,,,,,,
1279775,0.12979703,8.905152,-3.0493329,-0.198172,-0.47256398,0.213416,139.5,-158.1,-25.500002,,,,,,
1279795,0.039477438,9.101942,-2.9273117,-0.320124,-0.327746,0.099086,139.5,-155.70001,-27.300001,,,,,,
1279815,-0.28830492,8.691615,-2.7939258,-1.059458,-0.243904,-0.28201398,137.1,-150.90001,-27.300001,,,,,,
1279835,0.019140575,9.030763,-2.8052905,-0.95274997,-0.160062,-0.11432999,134.70001,-150.90001,-26.7,,,,,,
1279859,0.117834166,9.107923,-2.6569512,-0.907018,-0.129574,-0.221038,137.1,-162.90001,-24.900002,,,,,,
1279879,0.53234726,9.226356,-2.4685361,-0.899396,-0.07622,-0.03811,139.5,-153.3,-26.1,,,,,,
1279902,0.4288685,8.4816675,-2.2388492,-1.051836,0.541162,0.320124,137.1,-160.5,-27.900002,,,,,,
1279922,0.27335134,9.183289,-2.7885425,-0.129574,0.769822,0.785066,137.1,-153.3,-26.7,,,,,,
1279942,0.03229972,9.522436,-2.9817426,0.579272,0.060976,0.30488,141.90001,-158.1,-26.7,,,,,,
1279962,-0.13996546,9.49552,-2.996098,0.83842,-0.67073596,-0.20579399,137.1,-155.70001,-27.300001,,,,,,
1279982,-0.2213129,9.425537,-3.0738568,1.097568,-0.93750596,-0.373478,137.1,-148.5,-26.1,,,,,,
1280002,-0.6705183,8.9787245,-3.3232822,0.80793196,-1.013726,-0.434454,137.1,-155.70001,-26.7,,,,,,
1280022,-0.9396826,9.198242,-3.4560702,1.242386,-1.166166,-0.19055,132.3,-155.70001,-26.1,,,,,,
1280042,-0.91097176,9.491333,-3.3238804,0.92226195,-1.471046,-0.72409,139.5,-150.90001,-26.1,,,,,,
1280062,-0.90140146,9.457238,-3.1701577,-0.099086,-0.87653,-1.1051899,137.1,-148.5,-26.1,,,,,,
1280082,-0.7961283,9.416565,-3.0971844,-0.708846,-0.23628199,-1.48629,141.90001,-153.3,-25.500002,,,,,,
1280102,-0.7829692,8.9242935,-2.8788621,-1.303362,0.327746,-1.440558,141.90001,-158.1,-26.1,,,,,,
1280122,-0.7973246,8.507387,-2.8836472,-1.211898,0.92988396,-0.708846,141.90001,-150.90001,-27.900002,,,,,,
1280142,-0.7434917,8.3740015,-2.7490652,-0.632626,1.051836,-0.091464,141.90001,-150.90001,-26.7,,,,,,
1280162,-0.51799184,8.499014,-2.7903368,-0.23628199,1.1204339,0.312502,144.3,-150.90001,-25.500002,,,,,,
1280182,-0.3798208,8.363235,-2.798711,0.068598,0.868908,0.320124,137.1,-153.3,-27.300001,,,,,,
1280202,-0.12501188,8.716738,-2.7963183,0.426832,0.586894,0.297258,134.70001,-148.5,-26.1,,,,,,
1280224,-0.035290435,8.781337,-3.1151285,0.274392,0.426832,-0.28201398,137.1,-155.70001,-25.500002,,,,,,
1280284,0.09151588,8.722121,-3.5942411,-0.068598,-0.426832,-1.021348,139.5,-158.1,-26.1,,,,,,
1280304,0.19020946,9.189869,-3.673794,0.312502,-0.57164997,-0.47256398,137.1,-155.70001,-24.900002,,,,,,
1280326,0.23088318,9.085194,-3.6636257,-0.160062,-0.327746,-0.47256398,137.1,-150.90001,-26.1,,,,,,
1280346,0.1961909,9.37649,-3.68157,-0.121952,-0.03811,-0.525918,139.5,-148.5,-26.7,,,,,,
1280366,0.092712164,9.336413,-3.672598,-0.56402797,0.106708,-1.036592,146.70001,-150.90001,-26.1,,,,,,
1280386,-0.027514577,8.825002,-3.397452,-1.006104,0.320124,-1.280496,146.70001,-155.70001,-25.500002,,,,,,
1280406,-0.0035888578,8.688624,-3.1869059,-1.02897,0.68597996,-1.097568,144.3,-150.90001,-25.500002,,,,,,
1280426,-0.13757288,8.644362,-3.0032759,-1.310984,1.1204339,-0.960372,146.70001,-153.3,-26.1,,,x,,,
1280450,-0.6968366,8.455349,-3.1569986,-1.310984,1.272874,-1.036592,146.70001,-150.90001,-26.7,,,x,,,
1280470,-1.1095552,8.455349,-3.1121378,-0.93750596,1.1356779,-0.82317597,141.90001,-150.90001,-26.7,,,x,,,
1280510,-3.664224,8.396731,-3.0379682,-0.998482,1.493912,-0.35061198,149.1,-150.90001,-26.1,,,x,,,
1280530,-5.2618637,10.112803,-3.9010885,-0.47256398,2.7591639,-0.16768399,146.70001,-153.3,-26.7,,,x,,,
1280550,-6.9522157,9.212598,-4.7014036,-1.5929979,2.500016,-3.170752,146.70001,-153.3,-26.1,,,x,,,
1280590,-8.217886,9.408789,-5.6345067,0.091464,0.259148,1.501534,149.1,-150.90001,-27.300001,,,x,,,
1280610,-7.4570484,8.991285,-4.3263683,-1.8902559,-2.980202,1.478668,141.90001,-150.90001,-27.300001,,,x,,,
1280632,-6.8038764,7.5623217,-3.551773,-2.51526,-2.576236,1.966476,144.3,-160.5,-27.900002,,,x,,,
1280652,-5.473008,7.2159967,-3.13726,-2.614346,-2.93447,2.812518,153.90001,-153.3,-29.1,,,x,,,
1280672,-4.042848,6.421663,-2.195783,-2.576236,-3.7728899,2.6677,139.5,-158.1,-27.900002,,,x,,,
1280692,-2.8848436,5.80737,-1.1944915,-2.164648,-2.93447,3.16313,144.3,-155.70001,-29.1,,,x,,,
1280712,-1.5378256,6.8702703,-1.2261931,-2.583858,-1.013726,3.6966698,139.5,-160.5,-30.900002,,,x,,,
1280732,-0.7853617,5.7451634,-1.2949796,-3.8262439,-0.259148,2.903982,127.50001,-160.5,-30.900002,,,x,,,
1280756,0.4216908,5.525645,-0.57601166,-2.888738,-0.525918,4.695152,129.90001,-158.1,-30.300001,,,x,,,
1280776,1.4780113,6.2661457,-0.8463723,-2.469528,1.44818,6.9436417,117.9,-160.5,-32.100002,,,x,,,
1280796,2.1102483,7.2794,-1.3320644,-2.042696,1.775926,8.521396,117.9,-165.3,-31.500002,,,x,,,
1280820,3.5774932,6.6908274,-1.0533298,-0.960372,1.25763,9.900978,98.700005,-167.70001,-30.900002,,,x,,,
1280840,5.183507,8.439797,-1.6413043,-0.20579399,2.7439198,13.346122,93.9,-167.70001,-32.7,,,x,,,
1280860,5.7834444,9.699487,-1.9726756,-1.173788,3.2469718,13.673867,72.3,-174.90001,-31.500002,,,x,,,
1280883,6.1225915,9.167737,-2.3267763,-0.594516,1.958854,11.623549,69.9,-174.90001,-33.300003,,,x,,,
1280903,8.119193,9.805358,-1.7926345,-0.640248,1.021348,12.65252,48.300003,-170.1,-32.7,,,x,,,
1280923,9.7347765,10.391538,-1.3996545,-0.396344,2.393308,12.301908,43.5,-177.3,-29.7,,,x,,,
1280946,8.871656,11.038729,-2.7622242,1.768304,3.475632,8.262248,26.7,-174.90001,-30.900002,,,x,,,
1280966,9.083399,11.350959,-3.1013713,1.6463519,2.85825,6.8674216,24.300001,-179.70001,-30.900002,,,x,,,
1280986,10.15886,11.095552,-2.856731,0.274392,0.777444,4.0777698,14.700001,-177.3,-31.500002,,,x,,,
1281006,10.4040985,11.471186,-2.0857246,1.1128119,3.140264,1.814036,12.3,-174.90001,-32.7,,,x,,,
1281026,8.804067,11.6996765,-4.3496957,2.980202,4.618932,-1.051836,7.5000005,-170.1,-29.1,,,x,,,
1281068,11.038131,11.96585,-1.3793176,-1.6311079,-2.080806,-2.6981878,17.1,-174.90001,-28.500002,,,x,,,
1281089,10.134336,10.17501,-2.6449883,-0.55640596,3.155508,-3.589962,17.1,-174.90001,-29.7,,,x,,,
1281109,8.69341,10.649936,-3.9591084,0.907018,3.003068,-5.350644,26.7,-174.90001,-32.100002,,,x,,,
1281129,8.4714985,10.330527,-4.101466,-0.099086,-0.20579399,-7.8735256,31.500002,-172.5,-29.1,,,x,,,
1281151,9.624121,9.657019,-2.4039366,-2.2103798,-2.065562,-7.073216,33.9,-172.5,-30.300001,,,x,,,
1281172,8.585146,8.403909,-1.4319543,-1.806414,-0.358234,-6.66925,45.9,-172.5,-32.7,,,x,,,
1281196,7.1645565,7.8171306,-2.1700628,0.121952,0.91463995,-9.79427,65.100006,-174.90001,-32.100002,,,x,,,
1281216,5.4670267,6.3355303,-1.8943188,0.975616,-0.053354,-11.66166,65.100006,-172.5,-28.500002,,,x,,,
1281236,3.7509546,5.374315,-1.6706133,1.318606,-1.074702,-11.044278,74.700005,-167.70001,-29.7,,,x,,,
1281256,2.5953424,5.5537577,-1.2985684,1.021348,-1.98172,-9.824758,84.3,-172.5,-29.7,,,x,,,
1281276,1.7681106,5.626731,-1.0688815,-0.92226195,-2.7210538,-8.940606,93.9,-165.3,-29.7,,,x,,,
1281296,0.5999374,5.09558,-1.1095552,-0.586894,-1.6539739,-9.489389,103.50001,-165.3,-29.7,,,x,,,
1281316,-0.6364241,3.831704,-0.69264954,-0.983238,-1.478668,-9.062558,110.700005,-170.1,-29.7,,,x,,,
1281356,-4.17444,5.270238,-1.5258627,0.35061198,1.417692,-3.7728899,120.3,-160.5,-29.1,,,x,,,
1281378,-4.857519,6.795502,-2.5217707,-0.289636,0.777444,-3.2927039,120.3,-160.5,-30.300001,,,x,,,
1281398,-4.513587,6.442598,-2.2980652,0.30488,-0.518296,-3.993928,129.90001,-158.1,-30.300001,,,x,,,
1281418,-4.9275017,7.908048,-2.5331354,1.1432999,0.091464,-2.576236,132.3,-158.1,-30.900002,,,x,,,
1281438,-5.5501685,9.929173,-3.5960355,0.518296,0.967994,-2.088428,137.1,-162.90001,-29.1,,,x,,,
1281478,-4.952026,9.73059,-2.8758714,1.280496,-1.21952,-4.024416,141.90001,-155.70001,-30.300001,,,x,,,
1281502,-5.3073225,9.796984,-3.1875038,0.198172,0.518296,-3.376546,141.90001,-153.3,-29.7,,,x,,,
1281522,-5.2193956,10.124766,-3.8496482,0.80793196,0.655492,-2.8048959,146.70001,-160.5,-29.7,,,x,,,
1281542,-4.756433,9.69171,-3.5697172,1.158544,-0.69360197,-2.8048959,141.90001,-153.3,-29.7,,,x,,,
1281562,-4.0488296,9.631298,-3.1199138,0.975616,-0.617382,-1.722572,151.5,-153.3,-29.7,,,x,,,
1281582,-3.263468,9.485352,-3.0965862,0.274392,-0.251526,-1.013726,153.90001,-148.5,-29.1,,,x,,,
1281602,-2.7125783,9.67257,-3.0266035,0.23628199,-0.365856,-0.884152,151.5,-146.1,-29.1,,,x,,,
1281622,-2.5971367,9.253272,-3.0134442,-0.182928,-0.47256398,-1.06708,156.3,-148.5,-29.7,,,x,,,
1281644,-2.1240058,8.4714985,-2.7927296,-0.22865999,-0.365856,-0.15244,149.1,-148.5,-29.1,,,x,,,
1281665,-1.7764846,9.010426,-3.0732586,-0.053354,-0.221038,0.251526,156.3,-148.5,-28.500002,,,x,,,
1281685,-1.3165127,9.015809,-2.8417773,-0.160062,-0.754578,0.129574,153.90001,-150.90001,-29.1,,,x,,,
1281705,-0.7315289,9.403405,-2.895012,-0.35061198,-0.64787,0.022866,146.70001,-148.5,-28.500002,,,x,,,
1281725,-0.88046646,8.418264,-2.8208423,-1.074702,-0.525918,-0.541162,153.90001,-153.3,-29.1,,,x,,,
1281749,-0.34991363,8.673671,-2.848955,-0.20579399,-0.55640596,0.365856,156.3,-153.3,-28.500002,,,x,,,
1281769,-0.12082488,9.022986,-2.661138,-0.053354,-0.518296,0.525918,153.90001,-148.5,-28.500002,,,x,,,
1281791,-0.013757288,9.636084,-2.9099655,0.015244,0.129574,0.53354,146.70001,-158.1,-27.900002,,,x,,,
1281811,-0.34632477,9.42434,-3.1264932,-0.068598,0.022866,-0.3811,146.70001,-150.90001,-29.7,,,,,,
1281831,-0.3002678,9.368115,-2.928508,0.289636,-0.243904,-0.49543,151.5,-155.70001,-28.500002,,,,,,
1281852,0.3869985,10.883809,-3.213224,0.22865999,0.396344,0.396344,149.1,-146.1,-28.500002,,,,,,
1281873,0.5580674,9.801769,-2.6689138,-1.211898,-0.861286,-1.432936,149.1,-153.3,-29.7,,,,,,
1281893,-0.072973445,7.5282273,-1.3057461,-1.173788,-0.579272,-1.41007,149.1,-155.70001,-29.1,,,,,,
1281913,0.15192832,9.3346195,-1.9397776,-0.541162,0.99086,-0.045732,151.5,-153.3,-30.300001,,,,,,
1281933,-0.5634507,8.578567,-1.9146557,-1.006104,0.548784,-1.021348,158.70001,-153.3,-29.7,,,,,,
1281953,-0.702818,8.6868305,-1.9200389,0.106708,0.289636,-0.960372,149.1,-150.90001,-29.7,,,,,,
1281976,-0.7476787,8.978126,-2.255597,0.617382,0.121952,-0.846042,156.3,-148.5,-29.7,,,,,,
1281996,-0.79373574,8.638381,-2.3943663,0.80793196,-0.182928,-0.53354,151.5,-143.70001,-30.900002,,,,,,
1282016,-0.85235375,8.884217,-2.7012136,1.265252,-0.41921,0.30488,153.90001,-153.3,-29.1,,,,,,
1282036,-1.0300022,9.796386,-3.2748327,1.166166,-0.259148,0.93750596,151.5,-148.5,-29.1,,,,,,
1282056,-0.635826,10.80964,-3.836489,0.655492,-0.907018,1.173788,153.90001,-153.3,-28.500002,,,,,,
1282076,-0.43544808,10.032054,-3.2742345,0.144818,-2.644834,-1.196654,149.1,-148.5,-27.300001,,,,,,
1282097,-0.556273,8.439199,-2.9769576,0.23628199,-1.79117,-1.5929979,151.5,-153.3,-28.500002,,,,,,
1282117,-0.61070395,9.461426,-3.3161047,0.830798,-0.708846,-0.373478,158.70001,-150.90001,-28.500002,,,,,,
1282137,-1.1095552,8.765187,-3.3484044,-0.182928,-0.586894,-1.41007,151.5,-148.5,-26.7,,,,,,
1282157,-1.3488123,7.701689,-3.3137121,0.022866,-0.327746,-1.227142,151.5,-148.5,-28.500002,,,,,,
1282177,-0.99710435,8.252579,-3.2012613,0.373478,-0.213416,-0.289636,161.1,-150.90001,-27.900002,,,,,,
1282197,-0.878672,8.378787,-2.9518356,-0.060976,0.053354,-0.28201398,153.90001,-150.90001,-29.1,,,,,,
1282217,-0.870298,7.9301796,-2.765813,-0.72409,0.53354,0.060976,158.70001,-153.3,-26.1,,,,,,
1282260,-0.18721876,9.586437,-2.7329152,0.030488,1.3567159,0.17530599,158.70001,-143.70001,-29.1,,,,,,
1282280,-0.63403153,9.429126,-2.7867482,-0.754578,1.547266,-1.173788,156.3,-148.5,-29.1,,,,,,
1282300,-1.1753509,8.906947,-2.958415,-0.586894,1.3643379,-1.56251,156.3,-153.3,-27.900002,,,,,,
1282321,-1.1364716,9.359143,-3.1067545,0.586894,0.960372,-1.707328,156.3,-148.5,-27.900002,,,,,,
1282341,-1.3541957,9.539783,-3.30474,0.53354,0.92226195,-1.958854,161.1,-148.5,-29.1,,,,,,
1282361,-1.631734,9.472192,-3.6301296,0.632626,0.586894,-1.996964,158.70001,-146.1,-28.500002,,,,,,
1282381,-1.6269488,9.068445,-3.530838,0.68597996,-0.068598,-1.6311079,156.3,-153.3,-28.500002,,,,,,
1282441,-1.1777436,9.006837,-3.3448155,-0.487808,0.068598,0.16768399,163.5,-146.1,-27.900002,,,,,,
1282465,-1.0862277,9.049903,-3.250309,-0.716468,0.15244,-0.11432999,168.3,-146.1,-27.300001,,,,,,
1282485,-1.0975924,8.7520275,-2.9817426,-0.80030996,0.320124,-0.632626,165.90001,-148.5,-28.500002,,,,,,
1282506,-1.0856295,8.880031,-2.9458542,-0.57164997,0.480186,-0.579272,165.90001,-148.5,-26.7,,,,,,
1282527,-1.2907926,9.082203,-3.0660808,-0.67073596,0.72409,-0.67073596,168.3,-146.1,-27.900002,,,,,,
1282547,-1.3912805,8.724513,-3.1695597,-0.80030996,0.57164997,-0.67073596,163.5,-146.1,-29.7,,,,,,
1282567,-1.3733363,9.304712,-3.1605875,0.30488,0.221038,-0.28201398,163.5,-150.90001,-27.900002,,,,,,
1282587,-1.2483244,9.059473,-3.1223063,-0.23628199,0.297258,-0.41158798,161.1,-143.70001,-27.900002,,,,,,
1282607,-1.2016692,8.891396,-3.0732586,-0.312502,0.40396598,-0.099086,161.1,-146.1,-27.300001,,,,,,
1282631,-1.0605075,8.92848,-3.0014815,-0.426832,0.46494198,0.144818,168.3,-138.90001,-29.1,,,,,,
1282651,-1.2872037,8.883619,-2.9841354,-0.632626,0.60976,-0.07622,168.3,-146.1,-27.300001,,,,,,
1282671,-1.5790974,8.694008,-3.024211,-0.663114,0.56402797,-0.365856,165.90001,-146.1,-27.900002,,,,,,
1282694,-1.9900217,8.615651,-2.9135544,-0.708846,0.739334,-0.129574,168.3,-150.90001,-27.300001,,,x,,,
1282714,-2.7765796,8.664101,-3.0589032,-1.02897,1.242386,-0.068598,165.90001,-141.3,-27.900002,,,x,,,
1282736,-4.0685687,8.823207,-3.359769,-1.097568,1.6539739,-0.243904,161.1,-141.3,-27.900002,,,x,,,
1282756,-5.3324447,9.563109,-4.3102183,-1.013726,2.2865999,-0.541162,158.70001,-143.70001,-27.300001,,,x,,,
1282776,-6.6997995,8.512173,-4.7630124,-1.310984,2.042696,-1.5244,170.70001,-148.5,-28.500002,,,x,,,
1282799,-7.738774,9.626513,-4.9556146,-1.25763,0.198172,1.280496,168.3,-148.5,-29.1,,,x,,,
1282819,-8.444583,9.229346,-4.8347898,-3.2850819,0.045732,1.303362,163.5,-143.70001,-27.300001,,,x,,,
1282839,-7.983414,7.739372,-4.405323,-4.34454,-1.707328,1.158544,161.1,-153.3,-27.900002,,,x,,,
1282862,-7.1340513,6.2619586,-2.874675,-4.4207597,-3.35368,1.532022,158.70001,-148.5,-31.500002,,,x,,,
1282882,-6.069955,5.710471,-1.7118852,-4.314052,-2.6829438,2.903982,156.3,-148.5,-30.300001,,,x,,,
1282902,-4.864697,5.713462,-1.196286,-3.910086,-1.3643379,4.024416,158.70001,-148.5,-30.900002,,,x,,,
1282922,-3.6953273,4.9388666,-0.5580674,-3.7424018,-0.72409,5.243936,153.90001,-150.90001,-32.100002,,,x,,,
1282942,-2.401544,4.8048825,0.53653425,-2.82014,0.594516,7.6067557,144.3,-155.70001,-32.100002,,,x,,,
1282962,-0.7895487,5.544187,0.41929823,-2.576236,2.606724,9.809514,139.5,-160.5,-32.100002,,,x,,,
1282984,0.47552365,5.584263,0.19499461,-2.492394,3.605206,11.440621,122.700005,-158.1,-33.300003,,,x,,,
1283004,2.5714166,6.3654375,0.04246815,-2.179892,3.864354,13.513805,113.100006,-165.3,-33.9,,,x,,,
1283045,5.7553315,8.980518,-1.7023149,-1.417692,4.138746,13.803442,84.3,-174.90001,-33.9,,,x,,,
1283106,7.61436,10.5004,-1.9026928,-0.144818,3.940574,9.550365,48.300003,-177.3,-35.7,,,x,,,
1283126,7.8715615,10.434604,-1.5473958,0.060976,1.6311079,7.6219997,38.7,-179.70001,-35.100002,,,x,,,
1283146,8.537892,10.476474,-1.3332607,0.259148,0.846042,6.532054,29.1,-174.90001,-34.5,,,x,,,
1283166,8.502005,10.529111,-1.7346146,0.91463995,0.80793196,5.091496,17.1,-170.1,-33.9,,,x,,,
1283188,7.7423625,10.244993,-1.5964435,1.730194,-0.030488,2.7286758,24.300001,-177.3,-34.5,,,x,,,
1283208,6.1686482,8.695803,-2.472723,2.51526,-0.41921,-0.243904,17.1,-177.3,-32.7,,,x,,,
1283228,7.891898,9.436303,-2.5343318,0.967994,-2.530504,1.1204339,14.700001,-172.5,-35.100002,,,x,,,
1283292,8.490042,10.2097025,-2.91176,0.373478,-0.891774,-0.106708,12.3,-172.5,-31.500002,,,x,,,
1283361,8.696401,10.387949,-3.066679,1.6158639,0.525918,-5.762232,19.5,-179.70001,-31.500002,,,x,,,
1283402,9.751525,9.236524,-1.5043296,-0.22865999,-1.966476,-5.9985137,29.1,-172.5,-30.900002,,,x,,,
1283422,8.868666,9.095961,-1.4032434,0.541162,-0.396344,-6.25004,36.300003,-170.1,-31.500002,,,x,,,
1283462,6.133956,7.350579,-2.3608704,1.928366,-1.166166,-10.525982,48.300003,-174.90001,-30.300001,,,x,,,
1283506,4.710974,6.849933,-2.0719674,1.21952,-2.416174,-9.504634,69.9,-172.5,-30.300001,,,x,,,
1283526,4.288087,6.0873013,-1.3721399,0.716468,-3.917708,-11.059522,81.9,-167.70001,-30.900002,,,x,,,
1283568,2.2950745,3.8933127,-0.46475708,-0.83842,-3.6661818,-9.253108,103.50001,-170.1,-28.500002,,,x,,,
1283588,0.07596416,3.9130514,-0.8780739,0.891774,-1.48629,-8.864386,110.700005,-165.3,-30.900002,,,x,,,
1283611,-2.8393848,3.881948,-1.5826863,1.745438,-0.769822,-8.849142,117.9,-165.3,-29.1,,,x,,,
1283631,-4.299452,5.2176013,-2.580987,1.5244,-0.35061198,-6.295772,127.50001,-160.5,-30.300001,,,x,,,
1283651,-4.700207,6.622639,-3.1617837,0.983238,-1.1356779,-5.3658876,134.70001,-150.90001,-29.7,,,x,,,
1283675,-5.5908422,7.9307775,-2.4942563,0.625004,-1.478668,-4.245454,141.90001,-155.70001,-30.900002,,,x,,,
1283735,-6.0801234,8.720326,-3.2957678,0.23628199,-0.49543,-5.266802,144.3,-150.90001,-30.300001,,,x,,,
1283762,-6.3439045,9.207813,-3.0935955,-0.960372,0.297258,-2.888738,153.90001,-153.3,-27.900002,,,x,,,
1283782,-6.0609827,9.384265,-3.7300196,0.23628199,0.785066,-2.926848,156.3,-148.5,-30.300001,,,x,,,
1283824,-4.8455563,9.655822,-3.5481842,-0.16768399,-1.44818,-2.62959,161.1,-146.1,-28.500002,,,x,,,
1283845,-4.2599745,8.938648,-2.81187,-0.373478,-1.577754,-2.09605,168.3,-143.70001,-29.7,,,x,,,
1283868,-3.6959255,9.212598,-2.8842454,-0.754578,-0.19055,-1.25763,163.5,-148.5,-29.7,,,x,,,
1283888,-3.3370397,9.242505,-2.7125783,-0.99086,0.20579399,-0.899396,168.3,-146.1,-28.500002,,,x,,,
1283908,-2.7855518,9.636682,-2.7335134,-1.021348,0.47256398,-0.594516,158.70001,-150.90001,-30.300001,,,x,,,
1283928,-2.4739194,9.750329,-2.5008357,-0.60976,0.160062,-0.663114,168.3,-138.90001,-30.900002,,,x,,,
1283949,-2.2771304,8.973341,-2.1539128,-0.983238,0.182928,-1.272874,168.3,-143.70001,-32.100002,,,x,,,
1283970,-2.0976875,8.966163,-2.3118227,0.129574,0.221038,-0.213416,170.70001,-141.3,-29.1,,,x,,,
1284011,-1.640108,9.606176,-2.7430837,0.28201398,0.33536798,0.198172,163.5,-148.5,-29.1,,,x,,,
1284031,-1.7555497,9.014613,-2.7688038,0.33536798,0.15244,-0.068598,165.90001,-146.1,-27.900002,,,x,,,
1284051,-1.4708335,8.748439,-2.8914232,0.792688,0.22865999,0.26677,170.70001,-150.90001,-29.1,,,x,,,
1284071,-1.1568085,9.179102,-2.9751632,0.861286,0.274392,1.082324,161.1,-146.1,-29.7,,,x,,,
1284091,-1.0407687,9.13125,-3.1073527,0.46494198,0.49543,1.097568,170.70001,-148.5,-30.300001,,,x,,,
1284112,-1.0437595,8.820814,-2.9739668,0.251526,0.3811,0.998482,163.5,-150.90001,-32.100002,,,x,,,
1284132,-0.7638286,9.041529,-2.7550466,0.030488,0.442076,1.6006199,161.1,-153.3,-30.900002,,,x,,,
1284152,-0.85953146,8.925489,-2.6252494,-0.525918,1.036592,1.3567159,158.70001,-150.90001,-29.7,,,x,,,
1284172,-0.93429935,8.63539,-2.573211,-0.365856,1.4024479,1.3719599,156.3,-153.3,-29.7,,,x,,,
1284193,-0.9797582,8.569594,-2.5367243,0.07622,1.570132,1.41007,156.3,-150.90001,-28.500002,,,x,,,
1284213,-1.03718,8.909938,-2.7831593,0.586894,1.570132,1.501534,163.5,-141.3,-28.500002,,,x,,,
1284233,-0.93429935,8.756215,-2.9338913,0.99086,1.211898,1.21952,156.3,-141.3,-30.300001,,,,,,
1284253,-0.53414166,8.787318,-3.2215981,1.585376,1.211898,1.33385,153.90001,-146.1,-28.500002,,,,,,
1284275,-0.022729432,9.090577,-3.4746125,1.501534,1.33385,1.18141,153.90001,-153.3,-26.7,,,,,,
1284295,0.12321745,9.003846,-3.744375,1.455802,1.6234859,0.56402797,146.70001,-148.5,-26.7,,,,,,
1284376,-0.3493155,9.308301,-3.5134919,-0.55640596,1.288118,-0.548784,153.90001,-155.70001,-27.300001,,,,,,
1284424,-0.91934574,8.363235,-2.9895186,-1.211898,1.173788,-0.731712,151.5,-155.70001,-26.7,,,,,,
1284444,-0.9719823,8.6766615,-2.8806565,-0.655492,0.769822,-0.327746,151.5,-146.1,-25.500002,,,,,,
1284484,-0.9061866,8.813039,-3.0445478,-0.41158798,-0.15244,-0.213416,151.5,-158.1,-26.7,,,,,,
1284507,-0.72794,8.684438,-3.1258953,-0.083841994,-0.625004,0.007622,153.90001,-146.1,-27.900002,,,,,,
1284527,-0.37922263,9.075026,-3.1940835,0.17530599,-0.80030996,0.22865999,149.1,-146.1,-26.7,,,,,,
1284551,-0.09510473,9.47279,-3.3699374,-0.327746,-0.525918,0.0,158.70001,-150.90001,-27.900002,,,,,,
1284571,-0.07775859,9.177308,-3.3430212,-0.846042,-0.41158798,-0.525918,151.5,-148.5,-26.7,,,,,,
1284592,-0.013159146,8.851918,-3.0361738,-1.074702,-0.251526,-0.70122397,146.70001,-150.90001,-27.300001,,,,,,
1284612,-0.08194559,9.0540905,-2.8501513,-1.227142,0.426832,-0.907018,151.5,-150.90001,-27.900002,,,,,,
1284632,-0.5048327,8.934462,-2.9171433,-1.547266,0.853664,-1.48629,156.3,-148.5,-26.7,,,,,,
1284652,-0.6872663,8.582753,-2.7831593,-1.3872039,0.716468,-1.6234859,156.3,-150.90001,-26.7,,,x,,,
1284674,-0.99710435,8.445181,-2.421881,-1.3795819,0.92226195,-1.661596,151.5,-153.3,-28.500002,,,x,,,
1284694,-1.8476636,8.624025,-2.1903996,-1.432936,1.280496,-1.783548,161.1,-150.90001,-27.300001,,,x,,,
1284714,-3.5326324,9.44707,-1.5916585,-2.118916,1.44818,-1.98172,158.70001,-146.1,-29.1,,,x,,,
1284737,-6.7338934,8.54208,-2.4864802,-3.2774599,4.237832,-4.4664917,158.70001,-146.1,-29.1,,,x,,,
1284757,-8.298038,8.45834,-3.1342692,-0.731712,4.0320377,-2.7820299,165.90001,-148.5,-28.500002,,,x,,,
1284777,-9.476977,9.882518,-4.054213,0.358234,3.92533,-0.396344,163.5,-150.90001,-27.300001,,,x,,,
1284797,-10.127159,10.155272,-5.2128158,0.221038,3.8109999,1.044214,161.1,-143.70001,-27.300001,,,x,,,
1284817,-9.277796,7.922404,-5.2487044,-0.11432999,2.301844,2.065562,163.5,-146.1,-28.500002,,,x,,,
1284837,-8.206522,7.0114317,-4.4800906,-0.22865999,0.320124,5.25918,163.5,-146.1,-26.7,,,x,,,
1284857,-7.09577,6.324166,-4.0954847,-0.64787,1.798792,6.234796,151.5,-150.90001,-27.900002,,,x,,,
1284877,-5.8588104,5.379698,-4.1271863,0.259148,1.3948259,6.4329677,144.3,-153.3,-27.900002,,,x,,,
1284899,-4.5793824,5.0058584,-3.2269814,-0.739334,-0.106708,7.248522,139.5,-155.70001,-26.1,,,x,,,
1284962,1.6676226,4.1068497,-0.631639,-3.567096,-0.015244,11.631172,115.50001,-162.90001,-29.7,,,x,,,
1284982,3.7832544,5.5800757,-0.836802,-2.568614,1.211898,14.90101,96.3,-165.3,-29.1,,,x,,,
1285002,5.6512547,6.513777,-0.36008206,-2.545748,1.684462,15.54888,86.700005,-165.3,-30.300001,,,x,,,
1285023,7.811149,8.255569,-1.4564781,-2.187514,3.521364,16.173883,72.3,-170.1,-31.500002,,,x,,,
1285043,6.5873485,8.707168,-2.2185123,-1.06708,2.7058098,12.38575,60.300003,-174.90001,-30.300001,,,x,,,
1285063,6.9336734,8.14252,-2.6928396,-0.998482,0.23628199,9.611341,50.7,-172.5,-30.900002,,,x,,,
1285083,8.350076,9.64685,-1.9654979,0.480186,-1.6539739,8.80341,33.9,-172.5,-29.7,,,x,,,
1285104,7.3362236,9.255664,-2.6952322,0.40396598,-1.242386,6.51681,26.7,-174.90001,-28.500002,,,x,,,
1285124,7.2823906,8.720326,-2.6055107,0.34298998,-1.775926,5.5640597,21.900002,-179.70001,-29.1,,,x,,,
1285146,9.579858,9.253272,-1.7184647,0.548784,-1.67684,5.8918056,14.700001,-174.90001,-27.900002,,,x,,,
1285166,8.915321,9.744348,-2.1760442,0.594516,1.196654,6.006136,9.900001,-167.70001,-28.500002,,,x,,,
1285186,8.037247,10.571579,-3.7599268,1.227142,2.339954,5.160094,0.3,-170.1,-27.900002,,,x,,,
1285206,9.08639,10.521933,-3.8801534,0.144818,-1.3567159,3.01069,-4.5,-170.1,-29.7,,,x,,,
1285226,10.847322,9.42135,-1.8075881,-1.661596,-2.378064,3.147886,-6.9,-167.70001,-30.300001,,,x,,,
1285247,10.426828,9.735375,-1.4947593,-0.967994,1.501534,2.59148,-6.9,-174.90001,-28.500002,,,x,,,
1285267,9.009828,10.494418,-3.3394322,0.091464,2.995446,-0.426832,-11.700001,-172.5,-29.7,,,x,,,
1285287,9.304114,10.202524,-3.719253,0.47256398,0.541162,-2.637212,-9.3,-174.90001,-29.1,,,x,,,
1285310,11.074617,10.265329,-1.4839927,-1.5244,-1.25763,-1.509156,0.3,-170.1,-28.500002,,,x,,,
1285330,9.4859495,10.383163,-2.7717946,-0.739334,3.01069,-3.940574,-2.1000001,-170.1,-29.7,,,x,,,
1285351,9.063661,10.035643,-2.8465624,-0.297258,1.974098,-5.29729,-4.5,-167.70001,-30.300001,,,x,,,
1285371,9.418359,9.816124,-2.372235,0.289636,0.274392,-5.9070497,2.7,-172.5,-30.300001,,,x,,,
1285391,9.001453,9.246693,-2.104267,-1.166166,0.099086,-5.061008,7.5000005,-177.3,-30.900002,,,x,,,
1285413,8.398525,8.975734,-2.1640813,-0.129574,0.19055,-6.623518,19.5,-172.5,-30.300001,,,x,,,
1285434,6.991693,7.5838547,-2.313617,0.548784,0.289636,-8.673836,26.7,-174.90001,-29.1,,,x,,,
1285454,5.4903545,6.425252,-2.4087217,0.64787,-0.26677,-8.925362,31.500002,-172.5,-28.500002,,,x,,,
1285496,4.4944463,6.4737015,-2.3692443,-0.853664,-0.731712,-9.001582,48.300003,-167.70001,-29.1,,,x,,,
1285516,3.4656403,5.181114,-1.9062816,-1.211898,-1.18141,-10.769886,57.9,-172.5,-30.300001,,,x,,,
1285536,2.3734312,4.597925,-1.8345045,-0.53354,-0.792688,-10.053418,67.5,-170.1,-30.300001,,,x,,,
1285556,1.3278774,4.542298,-1.8811597,-0.640248,-0.960372,-8.72719,81.9,-172.5,-30.300001,,,x,,,
1285576,-0.34273592,4.4448004,-1.6843706,-0.40396598,-0.373478,-8.19365,89.100006,-170.1,-30.300001,,,x,,,
1285596,-1.7746902,5.2487044,-2.866301,0.213416,1.1204339,-7.042728,96.3,-170.1,-28.500002,,,x,,,
1285616,-2.8334033,5.343809,-3.321488,0.69360197,-0.34298998,-7.20279,96.3,-170.1,-27.900002,,,x,,,
1285681,-3.2915807,8.90934,-3.3956575,-0.518296,-1.013726,-5.731744,120.3,-167.70001,-29.1,,,x,,,
1285701,-3.6953273,8.691615,-3.1067545,-0.243904,-0.64787,-5.960404,113.100006,-165.3,-28.500002,,,x,,,
1285723,-4.9089594,9.808947,-3.1605875,-1.3872039,0.655492,-5.152472,125.100006,-160.5,-29.7,,,x,,,
1285743,-4.610486,9.752123,-2.9009933,-0.777444,0.92988396,-5.701256,129.90001,-160.5,-30.900002,,,x,,,
1285763,-4.6613283,8.75442,-2.6790824,-0.53354,1.044214,-5.708878,134.70001,-158.1,-29.7,,,x,,,
1285783,-4.685852,8.580361,-2.727532,0.67073596,1.196654,-4.146368,141.90001,-158.1,-30.300001,,,x,,,
1285804,-4.3831916,8.934462,-3.0654826,1.67684,0.426832,-2.881116,146.70001,-148.5,-27.900002,,,x,,,
1285825,-3.9315937,8.411086,-2.987724,2.416174,-0.82317597,-1.692084,149.1,-158.1,-28.500002,,,x,,,
1285845,-3.2814124,8.439797,-3.0989788,3.346058,-1.9054999,-0.46494198,139.5,-153.3,-27.300001,,,x,,,
1285865,-2.3058412,9.15398,-3.2287757,4.0777698,-2.827762,0.99086,144.3,-150.90001,-28.500002,,,x,,,
1285885,-1.4170007,9.644457,-2.8124683,3.102154,-3.033556,1.310984,141.90001,-150.90001,-26.7,,,,,,
1285905,-0.7638286,9.847826,-3.0104535,1.8902559,-1.94361,1.272874,141.90001,-148.5,-27.900002,,,,,,
1285925,-0.41570938,10.096653,-3.241935,0.975616,-1.158544,1.036592,141.90001,-150.90001,-27.300001,,,,,,
1285945,-0.34572664,9.860387,-3.3902743,0.03811,-0.891774,0.23628199,146.70001,-148.5,-26.7,,,,,,
1285965,-0.47552365,9.293945,-3.0929973,-0.67835796,-0.92226195,-0.121952,141.90001,-148.5,-24.900002,,,,,,
1285986,-0.17705032,9.442285,-2.9637985,-0.87653,-0.80793196,-0.15244,139.5,-150.90001,-28.500002,,,,,,
1286006,-0.24763119,9.128858,-2.8483567,-1.29574,-0.586894,-0.67835796,141.90001,-153.3,-26.7,,,,,,
1286026,-0.30864176,9.411779,-2.7747853,-0.754578,-0.60976,-0.83842,141.90001,-150.90001,-27.300001,,,,,,
1286046,-0.39477435,9.169532,-2.489471,-0.541162,-0.358234,-0.975616,141.90001,-155.70001,-29.1,,,,,,
1286066,-0.4246815,9.052894,-2.4356382,-0.45731997,-0.137196,-0.92988396,141.90001,-155.70001,-28.500002,,,,,,
1286086,-0.6555647,8.786122,-2.388983,-0.320124,0.46494198,-0.92226195,144.3,-155.70001,-26.7,,,,,,
1286106,-1.070676,8.6324,-2.8328052,-0.053354,1.013726,-0.93750596,141.90001,-153.3,-27.300001,,,,,,
1286126,-1.154416,8.771767,-3.062492,0.617382,0.7622,-0.830798,151.5,-153.3,-27.300001,,,,,,
1286148,-1.0180393,8.905152,-3.0313885,0.45731997,0.69360197,-0.769822,149.1,-153.3,-27.300001,,,,,,
1286168,-0.98992664,8.771169,-3.1438394,-0.426832,0.868908,-0.907018,149.1,-150.90001,-29.1,,,,,,
1286188,-0.8421853,8.458938,-3.3537877,-0.716468,0.975616,-0.83842,149.1,-146.1,-27.300001,,,,,,
1286250,-0.39597064,9.568493,-3.384891,-0.3811,0.144818,-0.55640596,151.5,-143.70001,-27.300001,,,,,,
1286280,-0.20217232,9.436902,-3.2443275,-0.82317597,0.46494198,-1.1128119,149.1,-150.90001,-27.900002,,,,,,
1286304,-0.51859,9.012818,-3.3017492,-0.663114,0.754578,-0.983238,149.1,-153.3,-27.300001,,,,,,
1286344,-0.50184196,9.4052,-3.238346,0.15244,0.80793196,-0.449698,144.3,-148.5,-26.7,,,,,,
1286364,-0.61369467,8.835768,-3.12111,-0.259148,0.92988396,-0.579272,153.90001,-146.1,-28.500002,,,,,,
1286386,-0.73751026,8.466714,-3.1282878,-0.15244,1.051836,-0.327746,151.5,-150.90001,-28.500002,,,,,,
1286406,-0.5054308,9.209607,-3.3860874,0.320124,1.234764,0.144818,151.5,-148.5,-27.300001,,,,,,
1286428,-0.5090197,8.317776,-3.0672772,-0.33536798,1.059458,0.03811,153.90001,-146.1,-29.1,,,,,,
1286448,-0.41929823,8.33572,-3.0511272,-0.251526,1.288118,0.15244,151.5,-146.1,-27.300001,,,,,,
1286468,-0.43664438,8.344692,-3.045744,-0.320124,1.463424,0.144818,151.5,-150.90001,-25.500002,,,,,,
1286488,-0.45399052,8.847731,-3.2066445,-0.099086,1.501534,-0.121952,146.70001,-150.90001,-26.7,,,,,,
1286512,-0.55208594,8.855507,-3.1683633,-0.20579399,1.21952,-0.480186,149.1,-150.90001,-26.1,,,,,,
1286532,-0.47372922,9.136634,-3.1133342,-0.083841994,1.036592,-0.68597996,153.90001,-146.1,-26.1,,,,,,
1286552,-0.56883395,9.12826,-3.1450357,-0.49543,0.868908,-1.1280559,153.90001,-150.90001,-23.7,,,,,,
1286572,-0.6806867,8.78672,-3.0481365,-0.64787,0.7622,-1.211898,151.5,-143.70001,-25.500002,,,,,,
1286593,-0.89422375,8.6324,-3.108549,-0.33536798,0.731712,-0.853664,153.90001,-146.1,-24.900002,,,,,,
1286614,-0.9259253,9.019398,-3.166569,0.022866,0.56402797,-0.510674,151.5,-150.90001,-23.7,,,,,,
1286634,-0.8667092,9.2592535,-3.2431312,-0.091464,0.396344,-0.64787,149.1,-153.3,-24.300001,,,,,,
1286654,-0.9235327,8.90276,-3.355582,-0.55640596,0.083841994,-0.80030996,146.70001,-148.5,-26.7,,,,,,
1286674,-0.96899164,9.200635,-3.4004428,0.15244,-0.11432999,-0.49543,146.70001,-148.5,-24.900002,,,,,,
1286694,-0.96241206,9.143811,-3.4070225,-0.160062,-0.182928,-0.518296,153.90001,-150.90001,-25.500002,,,,,,
1286716,-0.84039086,9.211402,-3.3741245,-0.198172,-0.26677,-0.53354,153.90001,-148.5,-26.1,,,,,,
1286736,-0.8039042,8.759804,-3.1821206,-0.57164997,-0.30488,-0.541162,144.3,-146.1,-25.500002,,,,,,
1286758,-0.757249,8.827992,-3.2712438,-0.34298998,-0.213416,-0.30488,144.3,-150.90001,-25.500002,,,,,,
1286778,-0.7686137,8.808851,-3.2078407,-0.388722,-0.221038,-0.182928,153.90001,-150.90001,-26.1,,,,,,
1286801,-0.7973246,8.957789,-3.1904945,-0.358234,-0.068598,-0.221038,151.5,-150.90001,-26.7,,,,,,
1286821,-1.2543058,8.44219,-2.9542282,-0.68597996,0.213416,-0.045732,149.1,-146.1,-26.7,,,,,,
1286841,-1.5085166,8.5678,-3.0475385,-0.60976,0.632626,0.35061198,151.5,-155.70001,-25.500002,,,x,,,
1286862,-2.4063292,8.782534,-3.317301,-0.785066,1.242386,0.663114,156.3,-153.3,-25.500002,,,x,,,
1286882,-3.6869533,8.881825,-3.3250768,-0.792688,1.6539739,0.83842,151.5,-148.5,-26.7,,,x,,,
1286902,-5.4323344,10.012914,-3.881948,-0.87653,2.865872,1.798792,153.90001,-148.5,-26.7,,,x,,,
1286924,-7.213006,9.876536,-3.9680805,-2.6677,3.643316,1.051836,146.70001,-153.3,-25.500002,,,x,,,
1286944,-8.354861,9.348376,-4.4465947,-2.560992,4.0320377,1.051836,146.70001,-150.90001,-27.900002,,,x,,,
1286964,-8.334524,8.232242,-3.7796655,-2.881116,2.2484899,4.397894,144.3,-158.1,-27.300001,,,x,,,
1286984,-8.638381,7.6532393,-3.4279573,-2.7362978,3.018312,5.83083,139.5,-155.70001,-26.7,,,x,,,
1287006,-6.908551,7.2680354,-3.3663487,-2.004586,3.643316,10.525982,127.50001,-158.1,-26.7,,,x,,,
1287026,-5.4227643,6.562227,-2.790935,-2.469528,3.7576458,10.434518,115.50001,-162.90001,-27.900002,,,x,,,
1287046,-3.6785793,5.5830665,-2.6264458,-1.783548,3.643316,9.878112,105.9,-162.90001,-27.900002,,,x,,,
1287066,-2.029499,4.627234,-1.8500562,-2.2713559,2.888738,8.864386,101.100006,-167.70001,-27.300001,,,x,,,
1287086,0.3451285,4.263563,-1.3960657,-3.01069,2.6981878,9.497012,84.3,-170.1,-27.900002,,,x,,,
1287106,2.8417773,4.0530167,-0.71478087,-5.015276,2.423796,11.082388,81.9,-172.5,-29.7,,,x,,,
1287126,4.1708508,4.346107,-0.46475708,-4.4207597,3.483254,12.980266,60.300003,-177.3,-29.1,,,x,,,
1287146,5.296556,5.3408184,-0.6669294,-3.361302,4.0015497,14.55802,53.100002,-179.70001,-30.300001,,,x,,,
1287186,7.837467,8.102445,-1.0802462,-3.2469718,1.8521459,13.91015,24.300001,-172.5,-32.7,,,x,,,
1287206,8.768776,7.4905443,-0.8128763,-3.0488,0.213416,12.317152,7.5000005,-179.70001,-31.500002,,,x,,,
1287226,10.137327,9.045716,-0.6896588,-1.471046,1.051836,12.644897,2.7,-167.70001,-32.7,,,x,,,
1287266,9.707262,9.341199,-1.7507645,-0.64787,-1.1356779,7.713464,-23.7,-170.1,-32.7,,,x,,,
1287361,8.375796,7.8978796,-1.4008509,0.83842,-0.967994,2.309466,-45.300003,-162.90001,-31.500002,,,x,,,
1287381,10.140318,7.4917407,-1.4235803,0.365856,-1.3643379,4.413138,-40.5,-165.3,-31.500002,,,x,,,
1287421,10.757003,9.937548,-3.4285555,0.94512796,0.960372,4.908568,-50.100002,-165.3,-29.1,,,x,,,
1287441,12.40369,8.401516,-1.9481517,-1.41007,-3.528986,1.272874,-54.9,-160.5,-31.500002,,,x,,,
1287461,13.343373,7.580266,-0.3995595,-0.94512796,-0.754578,1.48629,-54.9,-158.1,-30.900002,,,x,,,
1287521,11.499897,7.3176813,-1.9798533,-0.106708,-1.6311079,-7.225656,-50.100002,-165.3,-30.900002,,,x,,,
1287545,11.356342,7.4163747,-1.5485922,1.669218,0.94512796,-7.233278,-45.300003,-172.5,-29.1,,,x,,,
1287565,10.163047,8.497817,-3.108549,2.2942219,1.417692,-8.628104,-33.300003,-167.70001,-30.300001,,,x,,,
1287585,9.213196,7.486357,-3.032585,1.18141,-0.518296,-11.120498,-26.1,-170.1,-29.7,,,x,,,
1287605,8.333926,6.116012,-2.292084,0.632626,-1.44818,-12.599166,-14.1,-170.1,-29.7,,,x,,,
1287625,8.1473055,6.241622,-2.3453186,0.83842,-1.196654,-12.42386,-2.1000001,-172.5,-29.1,,,x,,,
1287645,6.776362,5.638694,-1.8709912,1.082324,-1.1128119,-13.628136,12.3,-167.70001,-29.7,,,x,,,
1287665,5.532224,5.69791,-2.1485295,1.150922,-0.487808,-14.154054,24.300001,-172.5,-29.1,,,x,,,
1287725,0.8972145,3.59783,-1.5485922,0.731712,-0.868908,-12.50008,57.9,-174.90001,-29.1,,,x,,,
1287745,-1.7806716,3.6068022,-1.7800735,1.082324,-1.814036,-11.844587,77.100006,-165.3,-26.7,,,x,,,
1287769,-3.7365992,4.9017816,-2.551678,2.088428,-2.05794,-9.923843,86.700005,-167.70001,-27.900002,,,x,,,
1287789,-4.72832,6.6543407,-3.551773,1.6539739,-3.589962,-8.216516,93.9,-167.70001,-27.300001,,,x,,,
1287829,-4.054811,8.407497,-2.7101858,0.327746,-5.5335717,-7.179924,108.3,-165.3,-27.300001,,,x,,,
1287849,-5.534617,8.202334,-2.820244,-0.053354,-3.2850819,-7.0351057,115.50001,-165.3,-27.300001,,,x,,,
1287873,-5.8330903,10.454941,-3.192289,-0.868908,-2.644834,-4.085392,125.100006,-158.1,-28.500002,,,x,,,
1287893,-5.0010734,9.956688,-2.8692918,-0.289636,-2.621968,-5.152472,125.100006,-160.5,-28.500002,,,x,,,
1287913,-5.1063466,8.6868305,-2.6874564,-0.64787,-1.6539739,-4.428382,127.50001,-155.70001,-29.7,,,x,,,
1287933,-4.8455563,9.448865,-2.86989,0.198172,-0.960372,-2.881116,134.70001,-158.1,-29.1,,,x,,,
1287953,-4.082924,9.2807865,-3.0487347,0.251526,-1.158544,-3.0488,132.3,-158.1,-30.300001,,,x,,,
1287973,-3.1432414,8.993079,-3.0385664,0.80793196,-0.92226195,-2.164648,144.3,-158.1,-29.1,,,x,,,
1287993,-2.380609,9.223963,-2.903984,0.861286,-0.64787,-1.44818,144.3,-153.3,-27.900002,,,x,,,
1288016,-1.6676226,9.883117,-3.008061,0.617382,-0.198172,-1.234764,137.1,-150.90001,-28.500002,,,x,,,
1288036,-1.4463097,9.199439,-3.137858,-0.396344,0.083841994,-1.974098,141.90001,-153.3,-29.1,,,x,,,
1288058,-1.3655604,9.276001,-3.0301924,0.160062,-0.60976,-1.41007,144.3,-150.90001,-26.7,,,,,,
1288078,-1.2124358,10.284471,-2.8854418,0.099086,-0.373478,-1.21952,141.90001,-153.3,-29.1,,,,,,
1288098,-1.0676852,9.850817,-2.714971,-1.1051899,-0.49543,-2.355198,149.1,-155.70001,-27.900002,,,,,,
1288118,-1.0646945,8.869863,-2.4248717,-1.6006199,-0.160062,-2.2408679,146.70001,-155.70001,-27.900002,,,,,,
1288138,-1.1514252,8.711354,-2.3991516,-1.196654,0.731712,-1.227142,151.5,-155.70001,-30.900002,,,,,,
1288199,-1.0234226,8.621633,-2.6360161,0.17530599,1.158544,-0.64787,149.1,-148.5,-28.500002,,,,,,
1288219,-0.85355,8.850123,-3.0014815,0.739334,1.3490939,-0.297258,153.90001,-155.70001,-30.300001,,,,,,
1288239,-0.7542583,9.075026,-3.2646644,0.967994,1.3872039,-0.213416,144.3,-150.90001,-27.900002,,,,,,
1288261,-0.761436,9.15398,-3.4961457,0.731712,1.318606,-0.503052,153.90001,-148.5,-26.7,,,,,,
1288282,-0.65616286,8.822609,-3.5463896,0.617382,0.94512796,-0.708846,153.90001,-150.90001,-28.500002,,,,,,
1288302,-0.5335435,8.948219,-3.5278473,0.55640596,0.746956,-0.373478,141.90001,-148.5,-27.900002,,,,,,
1288322,-0.5801987,8.769374,-3.5057158,0.11432999,0.82317597,-0.33536798,156.3,-148.5,-28.500002,,,,,,
1288342,-0.59515226,9.132447,-3.4871736,0.251526,0.60976,-0.17530599,151.5,-150.90001,-27.300001,,,,,,
1288362,-0.6513777,9.423144,-3.3783114,-0.121952,0.602138,-0.518296,151.5,-150.90001,-27.300001,,,,,,
1288382,-0.6543684,8.938648,-3.2861974,-0.655492,0.548784,-0.87653,146.70001,-146.1,-26.1,,,,,,
1288402,-0.5592637,8.597109,-3.129484,-0.525918,0.579272,-0.525918,153.90001,-150.90001,-26.7,,,,,,
1288424,-0.39357808,9.024183,-3.0523236,-0.320124,0.739334,-0.045732,149.1,-155.70001,-27.900002,,,,,,
1288444,-0.46595338,9.179102,-3.099577,-0.525918,0.868908,-0.16768399,151.5,-153.3,-27.900002,,,,,,
1288464,-0.37922263,9.267029,-3.028996,-0.548784,0.7622,-0.503052,158.70001,-146.1,-29.1,,,,,,
1288504,-0.2685662,9.061268,-2.8298144,-0.091464,0.80030996,-0.160062,153.90001,-153.3,-27.300001,,,,,,
1288524,-0.29847333,9.23114,-2.9189377,-0.129574,1.013726,-0.327746,158.70001,-146.1,-26.1,,,,,,
1288544,-0.41989636,9.134241,-2.9081712,-0.33536798,1.250008,-0.7622,149.1,-146.1,-27.900002,,,,,,
1288566,-0.47731808,8.980518,-2.8710864,-0.274392,1.509156,-1.1204339,156.3,-150.90001,-25.500002,,,,,,
1288586,-0.5945541,8.813039,-2.8483567,-0.251526,1.684462,-0.82317597,163.5,-153.3,-27.900002,,,,,,
1288606,-0.7626323,8.99966,-3.008061,-0.015244,1.669218,-0.434454,153.90001,-155.70001,-27.900002,,,,,,
1288626,-0.870298,8.766383,-2.9338913,-0.053354,1.265252,-0.221038,151.5,-150.90001,-26.7,,,,,,
1288646,-0.7333233,8.982313,-3.0493329,0.251526,0.861286,0.007622,151.5,-146.1,-26.7,,,,,,
1288666,-0.652574,8.892591,-3.0600994,0.137196,0.426832,0.083841994,153.90001,-155.70001,-25.500002,,,,,,
1288686,-0.55746925,9.091175,-3.1121378,0.213416,0.15244,0.129574,151.5,-143.70001,-26.7,,,,,,
1288706,-0.4521961,9.215589,-3.2449257,0.053354,-0.007622,-0.121952,149.1,-148.5,-26.1,,,,,,
1288726,-0.23088318,9.161756,-3.1396525,-0.28201398,-0.060976,-0.35061198,156.3,-138.90001,-26.1,,,,,,
1288746,-0.10288059,9.048109,-3.1486247,-0.708846,0.182928,-0.579272,158.70001,-148.5,-26.1,,,,,,
1288766,-0.117834166,8.964967,-3.2359536,-0.92988396,0.388722,-0.785066,153.90001,-143.70001,-25.500002,,,,,,
1288786,-0.16927446,8.911134,-3.2538977,-0.93750596,0.388722,-1.1051899,156.3,-148.5,-26.7,,,,,,
1288806,-0.111254595,8.904554,-3.1641762,-0.95274997,0.28201398,-1.3872039,153.90001,-143.70001,-27.300001,,,,,,
1288826,-0.07835673,8.95121,-2.9667892,-0.975616,0.297258,-1.48629,161.1,-153.3,-27.300001,,,,,,
1288846,-0.2296869,8.968555,-2.9769576,-1.242386,0.53354,-1.71495,153.90001,-143.70001,-26.1,,,x,,,
1288866,-0.5287584,9.068445,-3.0774455,-1.1432999,0.579272,-1.8521459,156.3,-143.70001,-26.7,,,x,,,
1288887,-0.740501,8.682045,-2.9691818,-1.189032,0.373478,-1.935988,153.90001,-141.3,-26.7,,,x,,,
1288907,-0.7895487,8.849525,-2.8974047,-0.861286,0.243904,-1.455802,161.1,-146.1,-27.300001,,,x,,,
1288930,-1.0461521,9.214991,-2.9356856,-0.769822,0.297258,-1.440558,158.70001,-146.1,-26.7,,,x,,,
1288950,-1.6879594,8.363235,-2.7269337,-1.6311079,0.182928,-1.48629,165.90001,-143.70001,-26.1,,,x,,,
1288970,-2.2789247,9.026576,-2.987724,-0.72409,0.602138,-0.30488,163.5,-141.3,-28.500002,,,x,,,
1288990,-2.986528,9.050501,-3.0002851,-1.18141,0.69360197,-0.46494198,168.3,-146.1,-28.500002,,,x,,,
1289013,-4.1594863,8.950013,-3.0774455,-1.303362,1.166166,-0.274392,168.3,-143.70001,-29.7,,,x,,,
1289033,-5.384483,9.287366,-3.5876615,-1.440558,1.707328,0.41921,163.5,-146.1,-29.1,,,x,,,
1289053,-6.66092,9.076819,-3.736001,-1.745438,1.8750119,0.46494198,163.5,-146.1,-27.900002,,,x,,,
1289076,-7.8601966,9.549951,-4.37721,-1.051836,1.539644,0.632626,163.5,-146.1,-28.500002,,,x,,,
1289096,-7.559929,10.028465,-4.359864,-1.1128119,0.868908,2.2942219,161.1,-146.1,-29.7,,,x,,,
1289117,-7.564714,8.957789,-3.4542756,-3.1936178,1.554888,3.574718,161.1,-148.5,-30.300001,,,x,,,
1289137,-7.4032154,7.8709636,-3.33046,-4.108258,3.1859958,5.152472,158.70001,-153.3,-29.1,,,x,,,
1289157,-6.93487,7.4289355,-3.4201815,-3.422278,3.384168,6.486322,151.5,-148.5,-27.900002,,,x,,,
1289177,-5.866586,6.508394,-2.4816952,-2.964958,1.920744,6.547298,146.70001,-160.5,-29.1,,,x,,,
1289197,-4.1265883,6.364241,-1.7094926,-2.644834,1.044214,6.9893737,137.1,-158.1,-30.900002,,,x,,,
1289217,-2.467938,6.007748,-1.4487023,-2.6677,1.18141,6.791202,132.3,-160.5,-30.900002,,,x,,,
1289237,-1.146042,5.279808,-0.90319586,-2.843006,0.81555396,6.78358,120.3,-165.3,-31.500002,,,x,,,
1289257,0.14415246,4.9508295,-0.46954224,-3.033556,0.94512796,8.186028,108.3,-167.70001,-31.500002,,,x,,,
1289277,1.2124358,4.8850336,-0.21592961,-3.2012398,1.67684,9.56561,105.9,-172.5,-32.100002,,,x,,,
1289297,2.4930599,4.611084,-0.33735263,-2.82014,2.195136,10.754642,101.100006,-165.3,-32.7,,,x,,,
1289321,4.4394174,5.1823106,-0.44083136,-2.004586,2.446662,13.018375,89.100006,-170.1,-33.300003,,,x,,,
1289381,7.3266535,8.941041,-1.8135695,-0.716468,0.41921,10.990924,43.5,-172.5,-32.7,,,x,,,
1289407,8.105435,9.37948,-1.6102009,-0.49543,1.3872039,8.696702,31.500002,-172.5,-34.5,,,x,,,
1289427,7.894291,9.301722,-2.0480416,-0.23628199,0.785066,6.8598,19.5,-177.3,-33.300003,,,x,,,
1289469,6.840363,8.982911,-2.2203066,-0.083841994,-0.55640596,3.2469718,17.1,-172.5,-32.7,,,x,,,
1289489,8.272916,9.27959,-1.196884,-0.15244,-2.469528,3.7347798,7.5000005,-179.70001,-31.500002,,,x,,,
1289513,7.617949,9.881322,-2.6372123,0.67073596,-0.251526,3.2774599,7.5000005,-172.5,-33.9,,,x,,,
1289533,7.4953294,9.729992,-2.5971367,0.47256398,-1.440558,2.461906,2.7,-170.1,-33.9,,,x,,,
1289553,7.898478,9.777843,-2.6874564,-0.243904,-2.545748,2.2103798,0.3,-172.5,-32.7,,,x,,,
1289573,9.662401,10.53569,-1.8937206,-1.94361,-2.850628,3.361302,-9.3,-177.3,-32.100002,,,x,,,
1289593,10.042821,10.4256315,-1.150827,-2.888738,-1.173788,2.385686,-6.9,-177.3,-33.300003,,,x,,,
1289633,9.625317,10.780929,-0.8475686,-2.385686,-1.966476,-0.891774,-9.3,-177.3,-33.9,,,x,,,
1289656,10.810238,10.307797,1.5115073,-4.199722,-1.196654,-1.996964,-11.700001,-167.70001,-34.5,,,x,,,
1289677,9.713841,8.950013,0.5682358,-1.250008,3.033556,-3.109776,-6.9,-179.70001,-35.100002,,,x,,,
1289697,7.5790696,8.732289,-1.363766,1.94361,3.01069,-3.856732,0.3,-172.5,-35.7,,,x,,,
1289717,7.626921,9.066053,-2.1616888,1.768304,-0.754578,-4.5884438,0.3,-177.3,-33.300003,,,x,,,
1289737,10.463913,10.6936,-0.61429286,-0.030488,-2.865872,-4.4055157,0.3,-170.1,-33.300003,,,x,,,
1289800,6.5119824,7.8763466,-2.4356382,2.385686,-0.28201398,-9.024447,29.1,-172.5,-32.7,,,x,,,
1289820,5.627329,6.794904,-1.8512524,1.3719599,-2.149404,-9.733294,43.5,-172.5,-31.500002,,,x,,,
1289843,4.8635006,6.460542,-1.2537076,0.655492,-2.949714,-9.253108,48.300003,-177.3,-32.100002,,,x,,,
1289927,0.73511773,4.002773,-0.80091345,0.0,-2.454284,-10.259212,86.700005,-167.70001,-31.500002,,,x,,,
1290002,-3.9148457,7.358953,-2.777776,1.798792,-2.7820299,-6.4482117,115.50001,-165.3,-32.100002,,,x,,,
1290022,-3.9770527,8.469705,-2.8034961,1.539644,-3.330814,-5.434486,113.100006,-162.90001,-30.900002,,,x,,,
1290064,-4.8377805,9.182093,-2.3602722,0.731712,-1.768304,-4.9466777,129.90001,-160.5,-31.500002,,,x,,,
1290124,-5.27263,10.344883,-3.0840251,1.051836,-0.739334,-4.38265,134.70001,-158.1,-31.500002,,,x,,,
1290144,-5.2929673,9.552941,-2.9033859,1.013726,-1.02897,-4.0320377,141.90001,-155.70001,-29.7,,,x,,,
1290184,-4.790527,9.04751,-3.4159944,1.539644,-0.891774,-1.516778,146.70001,-153.3,-29.7,,,x,,,
1290206,-3.7186549,9.246094,-3.2832067,1.6158639,-1.6463519,0.099086,144.3,-155.70001,-29.1,,,x,,,
1290226,-2.5062191,8.964967,-3.184513,0.442076,-1.1432999,0.67073596,153.90001,-153.3,-29.1,,,x,,,
1290246,-1.8016067,9.436303,-3.326273,0.708846,-1.173788,0.769822,144.3,-150.90001,-29.7,,,x,,,
1290266,-1.430758,9.604382,-3.2742345,0.56402797,-1.3948259,0.40396598,146.70001,-155.70001,-29.7,,,x,,,
1290286,-0.9660009,9.214393,-3.0194256,-0.07622,-1.5929979,-0.56402797,149.1,-150.90001,-29.7,,,x,,,
1290306,-0.3828115,9.418359,-2.5498836,-0.396344,-1.06708,-0.625004,146.70001,-155.70001,-29.1,,,,,,
1290326,-0.53892684,9.22157,-2.5319393,-1.1280559,0.03811,-1.06708,146.70001,-153.3,-30.300001,,,,,,
1290366,-0.9283179,8.941639,-2.5803888,-0.53354,0.93750596,-1.044214,149.1,-148.5,-32.100002,,,,,,
1290388,-0.912168,9.128858,-2.6336236,-0.26677,1.79117,-0.56402797,146.70001,-148.5,-29.1,,,,,,
1290408,-0.9755712,9.194056,-2.7406912,-0.358234,1.8445239,-0.746956,149.1,-150.90001,-29.7,,,,,,
1290431,-0.91515875,9.088782,-2.820244,-0.251526,1.684462,-0.884152,151.5,-155.70001,-30.900002,,,,,,
1290452,-0.9139625,8.755018,-2.8226366,-0.320124,1.48629,-0.846042,151.5,-153.3,-30.300001,,,,,,
1290472,-0.7476787,8.987697,-2.8160572,0.045732,1.242386,-0.35061198,151.5,-150.90001,-30.900002,,,,,,
1290492,-0.6962384,9.15398,-2.8471606,0.060976,1.211898,-0.41158798,146.70001,-155.70001,-28.500002,,,,,,
1290512,-0.7895487,9.109717,-2.9279099,-0.198172,1.250008,-0.64787,149.1,-158.1,-29.1,,,,,,
1290555,-0.66453683,8.954799,-2.932695,-0.259148,1.310984,-0.853664,151.5,-143.70001,-28.500002,,,,,,
1290575,-0.6705183,8.839955,-2.949443,-0.22865999,1.33385,-0.792688,153.90001,-155.70001,-29.1,,,,,,
1290595,-0.6519758,9.012818,-3.0517254,0.083841994,1.288118,-0.41158798,153.90001,-153.3,-28.500002,,,,,,
1290615,-0.5634507,9.156373,-3.07924,-0.17530599,1.051836,-0.480186,151.5,-148.5,-28.500002,,,,,,
1290635,-0.36367092,9.0654545,-2.9799483,-0.160062,0.983238,-0.480186,151.5,-153.3,-28.500002,,,,,,
1290655,-0.36725977,9.086988,-2.950041,-0.144818,1.173788,-0.480186,149.1,-150.90001,-29.7,,,,,,
1290677,-0.41212052,9.103138,-2.8603196,-0.182928,1.326228,-0.57164997,151.5,-150.90001,-29.1,,,,,,
1290697,-0.57601166,8.948219,-2.9267135,-0.30488,1.432936,-0.731712,156.3,-146.1,-27.900002,,,,,,
1290717,-0.62805015,9.0977545,-2.9309006,-0.160062,1.425314,-0.64787,153.90001,-150.90001,-28.500002,,,,,,
1290737,-0.6872663,9.039735,-2.8986008,-0.35061198,1.3490939,-0.625004,149.1,-148.5,-27.300001,,,,,,
1290757,-0.6286483,9.1838875,-2.719158,-0.33536798,1.189032,-0.541162,156.3,-148.5,-28.500002,,,,,,
1290781,-0.660948,9.219776,-2.9087694,-0.739334,1.1356779,-0.49543,156.3,-150.90001,-28.500002,,,,,,
1290801,-0.7105939,8.835768,-2.856731,-0.80030996,0.92988396,-0.320124,153.90001,-153.3,-28.500002,,,,,,
1290823,-0.69085515,8.943434,-2.8555346,-0.26677,0.746956,0.007622,151.5,-155.70001,-27.300001,,,,,,
1290843,-0.65377027,9.002051,-2.8974047,-0.099086,0.655492,0.20579399,156.3,-143.70001,-29.1,,,,,,
1290863,-0.65795726,8.972144,-2.890825,-0.053354,0.41158798,0.083841994,151.5,-155.70001,-28.500002,,,,,,
1290885,-0.4438221,9.061268,-2.8357959,-0.045732,0.45731997,0.03811,151.5,-146.1,-29.1,,,,,,
1290905,-0.5150011,9.101343,-3.0636883,-0.03811,0.548784,-0.289636,156.3,-155.70001,-29.1,,,,,,
1290965,-0.5556748,8.975135,-3.0469403,-0.221038,0.594516,-0.663114,153.90001,-143.70001,-29.1,,,,,,
1290985,-0.60232997,8.903956,-3.0391645,-0.259148,0.640248,-0.510674,161.1,-148.5,-27.300001,,,,,,
1291009,-0.7309307,8.883619,-3.1067545,-0.274392,0.57164997,-0.449698,153.90001,-150.90001,-28.500002,,,,,,
1291029,-0.7219586,8.923695,-3.1348674,-0.144818,0.327746,-0.365856,158.70001,-148.5,-29.1,,,,,,
1291070,-0.53234726,9.082203,-2.9608078,-0.327746,-0.022866,-0.34298998,158.70001,-148.5,-29.1,,,,,,
1291092,-0.5281602,8.900368,-2.8232348,-0.487808,-0.053354,-0.3811,151.5,-148.5,-27.900002,,,,,,
1291112,-0.539525,8.798683,-2.8280199,-0.388722,-0.022866,-0.34298998,151.5,-153.3,-27.900002,,,,,,
1291132,-0.50602895,8.823805,-2.7705982,-0.106708,0.0,-0.41158798,156.3,-153.3,-26.7,,,,,,
1291153,-0.5736191,8.917713,-2.9003952,0.060976,0.11432999,-0.67835796,151.5,-146.1,-26.1,,,,,,
1291173,-0.64180744,8.868068,-2.9733686,0.15244,0.137196,-0.708846,163.5,-150.90001,-27.900002,,,,,,
1291193,-0.93609375,8.601894,-2.9356856,0.053354,0.144818,-0.55640596,158.70001,-146.1,-27.900002,,,x,,,
1291213,-1.27225,8.957191,-3.1258953,0.030488,0.358234,-0.259148,153.90001,-150.90001,-28.500002,,,x,,,
1291233,-1.7393998,8.759804,-3.383695,-0.487808,0.297258,-0.251526,153.90001,-148.5,-27.900002,,,x,,,
1291253,-2.6312308,8.774757,-3.262272,-0.03811,0.47256398,0.548784,156.3,-150.90001,-27.300001,,,x,,,
1291277,-3.5547638,9.411779,-3.5003326,-0.28201398,1.1356779,1.02897,153.90001,-150.90001,-27.300001,,,x,,,
1291297,-4.6403933,9.631298,-3.174943,-0.80793196,1.5244,1.288118,153.90001,-148.5,-27.900002,,,x,,,
1291317,-5.956308,9.143811,-2.8860397,-1.974098,2.355198,0.327746,158.70001,-148.5,-26.7,,,x,,,
1291337,-7.799186,8.654531,-3.250309,-1.440558,3.521364,0.34298998,153.90001,-150.90001,-27.900002,,,x,,,
1291361,-8.647353,9.336413,-4.450184,-0.30488,3.39179,2.2637339,151.5,-153.3,-26.7,,,x,,,
1291381,-8.343496,8.752626,-4.157692,-0.87653,1.1051899,4.298808,151.5,-150.90001,-26.7,,,x,,,
1291441,-4.4280524,7.1908746,-3.3537877,-1.455802,0.47256398,7.538158,129.90001,-160.5,-28.500002,,,x,,,
1291501,0.10407688,6.6298165,-1.7800735,-1.75306,1.1051899,7.20279,108.3,-165.3,-28.500002,,,x,,,
1291521,0.40972793,5.7290134,-1.7884475,-3.399412,1.760682,6.9131536,105.9,-162.90001,-28.500002,,,x,,,
1291541,1.6670245,5.2768173,-1.6718096,-2.812518,0.80793196,8.544262,91.5,-165.3,-27.900002,,,x,,,
1291561,3.5116973,5.3210797,-0.5203844,-3.16313,-0.640248,11.943674,77.100006,-172.5,-29.7,,,x,,,
1291581,4.858117,6.806867,0.31223062,-3.605206,0.69360197,14.992474,72.3,-172.5,-29.7,,,x,,,
1291601,4.8006954,6.806867,-1.0306003,-3.6661818,1.8826339,14.82479,50.7,-177.3,-32.7,,,x,,,
1291621,6.7542305,6.200948,-0.89422375,-2.385686,0.503052,14.82479,38.7,-172.5,-31.500002,,,x,,,
1291641,8.956593,7.397234,-0.6543684,-0.274392,-0.365856,15.81565,31.500002,-172.5,-33.300003,,,x,,,
1291683,8.747243,8.766383,-3.4823885,3.6738038,1.737816,10.807996,-4.5,-174.90001,-30.900002,,,x,,,
1291706,10.184581,9.454247,-3.9734638,3.50612,-0.655492,9.10829,-9.3,-165.3,-31.500002,,,x,,,
1291726,10.757003,10.070335,-2.883049,1.577754,-2.7134318,6.920776,-16.5,-167.70001,-29.7,,,x,,,
1291746,9.851415,9.409986,-3.0433514,1.539644,-0.259148,3.1783738,-21.300001,-170.1,-29.7,,,x,,,
1291766,9.249084,8.814833,-3.355582,1.3872039,-0.15244,0.16768399,-21.300001,-174.90001,-29.1,,,x,,,
1291786,10.991475,9.776647,-3.033781,1.097568,0.312502,1.425314,-23.7,-167.70001,-29.1,,,x,,,
1291806,9.393237,10.091868,-3.3406284,-0.853664,2.40093,-0.182928,-26.1,-172.5,-30.900002,,,x,,,
1291826,8.917713,9.816124,-3.200065,-0.792688,1.722572,-1.3872039,-21.300001,-174.90001,-29.7,,,x,,,
1291867,10.1881695,8.143119,-1.4068322,-2.2408679,0.426832,-1.928366,-23.7,-162.90001,-30.300001,,,x,,,
1291888,9.284375,10.196544,-2.3267763,-1.547266,2.980202,-1.9054999,-16.5,-172.5,-29.7,,,x,,,
1291908,9.034351,10.00753,-2.5815852,-1.013726,2.2256238,-3.567096,-18.900002,-167.70001,-28.500002,,,x,,,
1291928,9.463819,8.303421,-1.7340164,-0.579272,-0.358234,-5.5640597,-11.700001,-167.70001,-30.300001,,,x,,,
1291948,10.703769,9.234131,-1.3966638,-0.525918,0.274392,-3.612828,-11.700001,-170.1,-30.300001,,,x,,,
1291968,9.964464,9.467407,-1.5587605,-0.388722,0.663114,-5.37351,-6.9,-172.5,-29.7,,,x,,,
1291988,8.513369,7.985807,-1.5461996,-0.068598,0.144818,-7.1265697,0.3,-174.90001,-30.300001,,,x,,,
1292031,7.2650447,7.1143126,-2.028303,0.708846,-0.846042,-8.521396,19.5,-167.70001,-29.1,,,x,,,
1292051,6.342708,5.94913,-1.5121055,0.70122397,-2.080806,-10.091528,26.7,-172.5,-29.7,,,x,,,
1292093,3.7240381,4.2061415,-1.2937832,0.907018,-1.79117,-10.182992,45.9,-170.1,-29.1,,,x,,,
1292113,2.2244937,4.087111,-1.7388016,1.547266,-1.463424,-9.779026,57.9,-170.1,-29.7,,,x,,,
1292137,-0.5215807,4.9107537,-2.1981754,1.684462,-0.83842,-9.009204,72.3,-174.90001,-30.300001,,,x,,,
1292157,-2.3770201,5.452073,-3.2030556,0.83842,-0.251526,-9.56561,79.5,-170.1,-26.7,,,x,,,
1292177,-3.4883697,5.7714815,-3.8107688,1.493912,-1.3948259,-9.504634,84.3,-167.70001,-27.300001,,,x,,,
1292201,-4.163075,6.519758,-3.6127834,1.814036,-3.018312,-8.711946,98.700005,-170.1,-27.900002,,,x,,,
1292221,-4.4286504,8.32615,-3.57211,0.960372,-2.865872,-6.5244317,103.50001,-160.5,-26.1,,,x,,,
1292285,-4.1600842,9.837657,-3.580484,-0.602138,-0.746956,-5.9680257,122.700005,-158.1,-26.1,,,x,,,
1292305,-4.0889053,9.244898,-3.396854,-1.013726,-0.41921,-5.807964,127.50001,-160.5,-28.500002,,,x,,,
1292326,-3.9040792,8.827394,-3.13726,-0.46494198,-0.396344,-4.908568,134.70001,-158.1,-28.500002,,,x,,,
1292346,-3.5673246,9.2377205,-3.2676551,0.099086,-0.129574,-3.940574,144.3,-153.3,-29.7,,,x,,,
1292366,-3.3137121,8.903358,-2.7466726,-0.068598,-0.221038,-3.399412,137.1,-153.3,-29.7,,,x,,,
1292386,-2.3961608,10.134336,-3.0068648,0.221038,0.28201398,-2.446662,144.3,-148.5,-26.7,,,x,,,
1292406,-2.5833795,8.9894905,-2.81187,-0.46494198,0.80793196,-3.4299,146.70001,-153.3,-29.1,,,x,,,
1292426,-2.584576,8.911134,-2.8316088,0.198172,0.983238,-2.538126,149.1,-155.70001,-27.900002,,,x,,,
1292446,-2.4278624,9.204823,-2.9955,0.579272,1.013726,-2.088428,153.90001,-155.70001,-28.500002,,,x,,,
1292466,-2.3997495,8.882423,-2.9291062,0.40396598,0.746956,-1.722572,151.5,-148.5,-27.900002,,,x,,,
1292486,-2.2532046,9.143811,-3.0780437,0.7622,0.67073596,-1.150922,153.90001,-155.70001,-30.300001,,,x,,,
1292508,-2.0773506,9.172523,-3.3525913,0.663114,0.503052,-0.967994,149.1,-158.1,-27.900002,,,x,,,
1292528,-1.9415721,9.0433235,-3.4243686,0.663114,0.274392,-0.64787,153.90001,-155.70001,-26.7,,,x,,,
1292548,-1.6119953,9.249084,-3.602615,0.7622,0.091464,-0.487808,153.90001,-150.90001,-27.900002,,,x,,,
1292568,-1.2064544,9.283179,-3.4524813,0.541162,-0.099086,-0.434454,156.3,-146.1,-25.500002,,,x,,,
1292588,-0.8517556,9.391443,-3.6343167,-0.121952,0.251526,-0.640248,149.1,-148.5,-25.500002,,,x,,,
1292611,-0.7476787,8.624025,-3.5469878,-0.56402797,0.449698,-0.716468,149.1,-150.90001,-25.500002,,,x,,,
1292631,-0.5209825,9.113306,-3.343619,-0.068598,0.16768399,0.068598,156.3,-148.5,-26.7,,,,,,
1292652,-0.49047723,9.122278,-3.1073527,-0.60976,0.586894,-0.243904,156.3,-153.3,-27.300001,,,,,,
1292672,-0.48928094,9.045118,-3.0571086,-0.891774,0.891774,-0.56402797,156.3,-155.70001,-26.7,,,,,,
1292692,-0.50064564,8.78672,-2.9560225,-0.830798,0.82317597,-0.80793196,149.1,-148.5,-26.1,,,,,,
1292713,-0.4133168,9.139027,-3.0553143,-0.289636,0.81555396,-0.80793196,149.1,-150.90001,-27.900002,,,,,,
1292733,-0.4384388,8.792702,-3.087614,-0.426832,0.69360197,-0.92988396,153.90001,-146.1,-27.300001,,,,,,
1292753,-0.35948393,9.132447,-2.9626021,-0.17530599,0.64787,-0.70122397,151.5,-148.5,-27.300001,,,,,,
1292773,-0.60352623,8.775355,-2.9356856,-0.92226195,0.81555396,-0.907018,156.3,-141.3,-27.300001,,,,,,
1292793,-0.68547183,8.732887,-3.125297,-1.1356779,0.94512796,-0.754578,151.5,-153.3,-27.300001,,,,,,
1292813,-0.75126755,8.737075,-2.9883223,-0.92988396,0.846042,-0.586894,156.3,-150.90001,-28.500002,,,,,,
1292833,-0.71418273,9.227551,-2.8794603,-0.87653,0.92988396,-0.46494198,156.3,-146.1,-27.900002,,,,,,
1292853,-0.89900887,9.045716,-2.773589,-1.196654,1.06708,-0.716468,156.3,-150.90001,-26.7,,,,,,
1292873,-1.0186375,8.913527,-2.8106737,-0.72409,0.884152,-0.64787,156.3,-146.1,-26.7,,,,,,
1292894,-0.93848634,9.155176,-2.8621142,0.0,0.518296,-0.46494198,161.1,-148.5,-26.7,,,,,,
1292914,-0.83321315,9.030763,-2.7095876,0.221038,0.137196,-0.358234,153.90001,-143.70001,-26.7,,,,,,
1292934,-0.782371,9.138429,-2.9099655,0.35061198,0.198172,-0.20579399,158.70001,-146.1,-27.900002,,,,,,
1292954,-0.874485,9.083998,-3.275431,0.510674,0.17530599,-0.40396598,151.5,-148.5,-26.1,,,,,,
1292974,-0.8589333,8.910536,-3.4076204,0.82317597,-0.259148,-0.449698,156.3,-141.3,-26.1,,,,,,
1292994,-0.8631203,8.920704,-3.5535674,0.891774,-0.480186,-0.251526,156.3,-148.5,-26.1,,,,,,
1293014,-1.0180393,8.625221,-3.590054,0.396344,-0.518296,-0.083841994,158.70001,-143.70001,-26.1,,,,,,
1293036,-1.0569186,8.373404,-3.572708,0.053354,-0.548784,0.221038,158.70001,-150.90001,-26.1,,,,,,
1293056,-0.91097176,8.421255,-3.6331203,-0.274392,-0.746956,0.55640596,163.5,-150.90001,-27.300001,,,,,,
1293076,-0.7961283,8.582155,-3.276029,-0.213416,-0.868908,0.830798,161.1,-148.5,-26.1,,,,,,
1293096,-0.56165624,8.962574,-3.3298619,-0.487808,-0.41158798,0.586894,161.1,-153.3,-27.900002,,,,,,
1293116,-0.5544785,8.955397,-3.2108314,-0.47256398,-0.243904,0.56402797,153.90001,-148.5,-26.1,,,,,,
1293136,-0.6447981,8.775953,-3.1282878,-0.57164997,-0.022866,0.541162,156.3,-148.5,-27.900002,,,,,,
1293158,-0.85953146,8.695205,-2.8962083,-0.487808,0.030488,0.625004,153.90001,-153.3,-27.300001,,,,,,
1293178,-0.64180744,9.335815,-2.8507495,-0.35061198,0.07622,0.518296,149.1,-146.1,-26.7,,,,,,
1293198,-0.55986184,9.316675,-2.5331354,-0.81555396,0.22865999,0.0,153.90001,-150.90001,-26.7,,,,,,
1293241,-0.7183697,9.615149,-2.6013238,-0.69360197,1.265252,-0.853664,158.70001,-150.90001,-28.500002,,,,,,
1293261,-0.97078604,9.595409,-2.6826713,-0.632626,1.326228,-1.471046,156.3,-150.90001,-29.1,,,,,,
1293282,-1.0862277,8.975135,-2.6635306,-0.548784,1.166166,-1.6463519,156.3,-146.1,-27.300001,,,,,,
1293303,-1.0527316,8.793898,-2.8148608,-0.129574,1.234764,-0.967994,161.1,-148.5,-26.1,,,,,,
1293324,-1.0646945,8.921303,-3.0882123,0.221038,1.097568,-0.137196,161.1,-146.1,-27.900002,,,,,,
1293344,-0.757249,9.170728,-3.2532997,0.426832,0.60976,0.388722,156.3,-146.1,-27.300001,,,,,,
1293366,-0.4509998,9.492529,-3.3226843,0.45731997,0.22865999,0.503052,153.90001,-153.3,-27.300001,,,,,,
1293386,-0.32778236,8.917115,-3.200065,-0.160062,-0.129574,0.144818,153.90001,-148.5,-26.7,,,,,,
1293406,-0.18961132,8.583352,-3.1019695,-0.083841994,-0.11432999,0.251526,156.3,-153.3,-26.7,,,,,,
1293426,-0.123815596,8.954201,-3.2712438,-0.068598,-0.221038,0.663114,153.90001,-148.5,-26.1,,,x,,,
1293446,0.02213129,9.076819,-3.0846233,-0.41158798,-0.518296,0.41921,153.90001,-141.3,-25.500002,,,x,,,
1293466,0.0765623,9.024781,-2.9135544,-0.586894,-0.34298998,0.030488,153.90001,-153.3,-27.900002,,,x,,,
1293486,-0.1016843,8.994276,-2.8214405,-0.80793196,0.045732,-0.40396598,153.90001,-150.90001,-26.7,,,x,,,
1293506,-0.4133168,8.597707,-2.903984,-1.227142,0.221038,-0.663114,151.5,-148.5,-27.300001,,,x,,,
1293528,-0.878672,8.753822,-2.8986008,-0.47256398,0.49543,-0.137196,156.3,-148.5,-26.7,,,x,,,
1293548,-2.1102483,9.145606,-3.083427,-0.853664,1.1432999,0.137196,151.5,-146.1,-28.500002,,,x,,,
1293568,-3.3125157,9.115101,-3.061894,-1.6006199,1.303362,-0.129574,156.3,-150.90001,-25.500002,,,x,,,
1293588,-4.8335934,9.522436,-3.003874,-1.455802,2.118916,-0.11432999,156.3,-143.70001,-29.1,,,x,,,
1293612,-8.100052,9.27959,-4.005165,-1.8902559,3.879598,-1.3948259,156.3,-148.5,-27.900002,,,x,,,
1293632,-8.694008,9.025977,-4.968774,-0.060976,3.056422,0.365856,156.3,-155.70001,-28.500002,,,x,,,
1293652,-8.714943,8.926087,-4.0775404,-0.983238,0.655492,2.995446,151.5,-153.3,-28.500002,,,x,,,
1293672,-8.01392,8.779543,-4.6308227,-2.111294,2.500016,4.9161897,141.90001,-148.5,-29.1,,,x,,,
1293692,-7.2405205,7.296148,-4.4992313,-1.6158639,1.951232,5.632658,137.1,-155.70001,-27.300001,,,x,,,
1293712,-5.6865454,6.9922915,-3.9274068,-1.196654,0.41158798,7.3323636,132.3,-155.70001,-27.900002,,,x,,,
1293733,-3.9609027,6.756025,-2.8752732,-1.669218,0.144818,7.957368,125.100006,-162.90001,-28.500002,,,x,,,
1293753,-2.8345995,6.124386,-2.3483093,-2.309466,1.036592,8.071698,125.100006,-158.1,-28.500002,,,x,,,
1293773,-1.6383137,6.029281,-1.9242259,-2.62959,1.150922,8.57475,108.3,-160.5,-27.900002,,,x,,,
1293795,-0.4791125,5.5705056,-1.1831268,-3.460388,1.051836,8.696702,101.100006,-170.1,-30.900002,,,x,,,
1293815,1.27225,4.730713,-0.15970418,-3.917708,0.884152,9.382682,91.5,-162.90001,-29.7,,,x,,,
1293836,3.1635783,5.358165,0.4886828,-2.827762,2.7591639,11.936051,89.100006,-165.3,-29.1,,,x,,,
1293856,4.2198987,5.4078107,0.3367545,-2.317088,4.80186,12.324774,72.3,-170.1,-30.900002,,,x,,,
1293876,6.3391194,5.994589,0.2003779,-0.121952,5.152472,13.155572,57.9,-174.90001,-30.300001,,,x,,,
1293896,8.0522,8.605483,-0.61369467,0.434454,6.082356,13.483317,45.9,-177.3,-29.7,,,x,,,
1293960,10.03325,8.959583,-1.8949169,0.53354,-0.320124,5.9070497,14.700001,-172.5,-29.1,,,x,,,
1293980,9.435107,10.142711,-2.0827339,1.318606,-0.16768399,5.343022,14.700001,-179.70001,-27.900002,,,x,,,
1294000,7.7303996,9.747936,-2.7077932,0.960372,-0.34298998,3.140264,9.900001,-170.1,-28.500002,,,x,,,
1294020,7.137042,9.5511465,-2.7185597,1.166166,-1.745438,0.853664,2.7,-172.5,-28.500002,,,x,,,
1294042,7.617949,8.945229,-2.1820257,0.731712,-2.7972739,-0.396344,2.7,-170.1,-29.1,,,x,,,
1294063,8.062967,8.046818,-1.3254849,0.41921,-1.996964,0.28201398,5.1000004,-170.1,-29.7,,,x,,,
1294084,7.0724425,9.665991,-3.234159,1.250008,0.243904,1.150922,-2.1000001,-170.1,-29.7,,,x,,,
1294104,7.0395446,9.621728,-3.8352928,1.539644,-1.227142,-0.365856,5.1000004,-165.3,-27.300001,,,x,,,
1294124,8.800478,9.152185,-2.5708184,0.81555396,-3.399412,-0.45731997,0.3,-167.70001,-27.300001,,,x,,,
1294144,10.008128,9.27002,-2.5989313,-0.769822,-1.821658,1.166166,2.7,-174.90001,-27.300001,,,x,,,
1294164,9.67257,9.499706,-2.8668993,-0.091464,-0.22865999,0.060976,5.1000004,-170.1,-25.500002,,,x,,,
1294187,9.448266,9.936351,-2.7723927,-0.083841994,-0.45731997,-4.0167937,7.5000005,-172.5,-29.1,,,x,,,
1294207,10.3071995,9.217383,-2.1915958,-1.3643379,-0.708846,-3.871976,9.900001,-174.90001,-30.300001,,,x,,,
1294227,9.697094,9.543371,-2.0432563,-0.92226195,0.87653,-3.6661818,17.1,-165.3,-28.500002,,,x,,,
1294247,8.040836,9.511071,-3.1246989,-0.442076,0.739334,-5.785098,17.1,-172.5,-29.1,,,x,,,
1294271,7.0652647,8.647353,-3.0906048,0.137196,-1.760682,-7.4695597,17.1,-165.3,-27.300001,,,x,,,
1294291,6.710566,7.6263227,-2.765813,-0.243904,-3.6585598,-8.056454,24.300001,-174.90001,-28.500002,,,x,,,
1294315,7.429534,7.910441,-2.4535825,-0.17530599,-3.993928,-7.134192,38.7,-167.70001,-26.7,,,x,,,
1294375,4.3706307,6.4449906,-1.6149861,-1.8292799,-1.196654,-7.3476076,55.500004,-172.5,-29.1,,,x,,,
1294395,2.7089896,4.690637,-0.9229346,-2.2865999,-0.41158798,-8.978716,69.9,-170.1,-28.500002,,,x,,,
1294415,0.8338113,4.271937,-1.2578946,-1.5929979,1.089946,-8.963471,81.9,-170.1,-27.300001,,,x,,,
1294436,-0.9145606,4.6284304,-2.0612006,0.022866,1.1204339,-9.481768,84.3,-167.70001,-30.900002,,,x,,,
1294456,-2.2621768,5.2744246,-2.037275,2.408552,-1.166166,-9.41317,91.5,-167.70001,-29.1,,,x,,,
1294478,-2.4673398,7.7609053,-2.5439022,1.783548,-2.035074,-7.301876,103.50001,-167.70001,-31.500002,,,x,,,
1294498,-2.2370548,7.3398123,-2.1024725,0.068598,-1.8978779,-8.567128,108.3,-162.90001,-27.900002,,,x,,,
1294518,-3.045744,7.7004924,-2.2137272,1.059458,-1.097568,-7.759196,115.50001,-162.90001,-29.7,,,x,,,
1294538,-4.3335457,7.844047,-2.9733686,0.983238,1.166166,-7.797306,120.3,-160.5,-27.300001,,,x,,,
1294562,-4.5973268,8.963771,-3.6199613,1.8445239,0.022866,-6.8979096,134.70001,-158.1,-27.300001,,,x,,,
1294582,-5.3587627,9.431519,-3.4381258,0.94512796,-0.731712,-6.684494,144.3,-153.3,-26.1,,,x,,,
1294602,-5.7930145,8.978126,-3.6325223,0.40396598,-0.891774,-6.36437,144.3,-153.3,-27.900002,,,x,,,
1294623,-5.8546233,8.999061,-3.580484,0.548784,-1.3948259,-5.838452,146.70001,-148.5,-26.1,,,x,,,
1294643,-5.5328226,9.65941,-3.4668367,0.716468,-1.455802,-4.245454,149.1,-146.1,-27.300001,,,x,,,
1294663,-4.93767,9.847228,-3.481192,0.297258,-1.196654,-3.3079479,151.5,-141.3,-26.7,,,x,,,
1294683,-4.6792727,9.433911,-3.405228,0.16768399,-0.769822,-2.355198,158.70001,-150.90001,-27.900002,,,x,,,
1294706,-3.9848285,9.153382,-3.2096353,-0.083841994,-0.365856,-0.602138,158.70001,-146.1,-27.900002,,,x,,,
1294746,-2.887236,9.399219,-3.3107214,0.17530599,-0.137196,-0.221038,163.5,-148.5,-29.7,,,x,,,
1294766,-2.2191105,9.146802,-3.158793,0.41158798,-0.586894,-0.525918,158.70001,-148.5,-27.900002,,,x,,,
1294786,-1.6921464,8.94762,-2.902788,0.56402797,-0.26677,-0.34298998,163.5,-148.5,-27.300001,,,x,,,
1294806,-1.711287,9.076819,-2.9147508,0.64787,0.33536798,-0.30488,158.70001,-141.3,-27.900002,,,x,,,
1294869,-1.6616411,8.950013,-3.5547638,0.396344,0.243904,-0.41921,163.5,-148.5,-24.900002,,,x,,,
1294890,-1.5671346,8.576772,-3.2987585,0.17530599,-0.022866,0.091464,156.3,-146.1,-26.7,,,x,,,
1294910,-1.233969,9.051698,-3.3053381,0.045732,0.0,0.55640596,163.5,-143.70001,-27.900002,,,x,,,
1294934,-0.9187476,8.912331,-3.4985383,-0.373478,0.594516,0.64787,161.1,-143.70001,-26.7,,,x,,,
1294954,-1.1532197,8.83517,-3.405826,-0.632626,0.365856,0.617382,153.90001,-146.1,-27.300001,,,x,,,
1294974,-0.96899164,8.44877,-3.184513,-1.097568,0.015244,0.373478,158.70001,-150.90001,-26.7,,,x,,,
1294994,-0.7291363,8.264542,-2.883049,-0.884152,-0.068598,0.45731997,161.1,-148.5,-26.7,,,x,,,
1295014,-0.11364716,9.131848,-2.8058887,-0.769822,0.213416,0.739334,163.5,-148.5,-26.1,,,x,,,
1295034,-0.14056359,8.692812,-3.0188277,-1.6387299,1.036592,-0.091464,158.70001,-148.5,-27.900002,,,x,,,
1295054,0.0891233,8.916517,-3.028996,-1.1051899,1.288118,0.11432999,161.1,-146.1,-27.300001,,,,,,
1295074,0.35589507,8.829786,-2.6539605,-0.87653,1.935988,-0.23628199,153.90001,-150.90001,-27.300001,,,,,,
1295136,-0.9187476,9.0977545,-3.455472,-0.22865999,3.536608,-1.958854,156.3,-143.70001,-27.300001,,,,,,
1295162,-0.861924,8.858498,-3.6127834,-0.16768399,1.806414,-1.6006199,153.90001,-146.1,-25.500002,,,,,,
1295183,-0.6447981,9.209009,-3.1264932,-0.15244,0.487808,-0.975616,158.70001,-143.70001,-26.7,,,,,,
1295223,-0.52457136,9.276001,-2.643792,-1.3643379,0.663114,-1.6463519,151.5,-150.90001,-26.1,,,,,,
1295246,-0.69264954,8.543874,-2.6413994,-1.044214,0.785066,-1.958854,163.5,-143.70001,-26.7,,,,,,
1295266,-0.8338113,8.603688,-2.573211,-0.586894,0.34298998,-0.769822,163.5,-143.70001,-27.300001,,,,,,
1295286,-1.0180393,8.941041,-2.5666316,-0.099086,0.23628199,-0.541162,161.1,-143.70001,-27.900002,,,,,,
1295306,-1.3559902,9.1838875,-2.81187,-0.312502,0.19055,-0.899396,168.3,-146.1,-28.500002,,,,,,
1295347,-1.2620816,8.332131,-2.7921314,0.045732,-0.480186,-0.510674,165.90001,-146.1,-27.300001,,,,,,
1295368,-1.108957,8.726308,-2.9434617,0.56402797,-0.3811,0.053354,165.90001,-143.70001,-27.900002,,,,,,
1295388,-1.1944915,8.884816,-3.0056684,0.602138,-0.251526,0.373478,165.90001,-143.70001,-28.500002,,,,,,
1295408,-1.187912,9.261047,-3.2497108,0.640248,-0.26677,0.03811,168.3,-146.1,-25.500002,,,,,,
1295432,-1.067087,9.004444,-3.326273,0.40396598,-0.365856,-0.327746,158.70001,-141.3,-26.7,,,,,,
1295452,-1.2220061,8.8919935,-3.5045197,0.221038,-0.198172,-0.449698,165.90001,-141.3,-26.1,,,,,,
1295474,-1.3296719,8.90276,-3.4608552,0.312502,-0.297258,-0.41158798,170.70001,-143.70001,-27.900002,,,,,,
1295494,-1.3703456,9.146802,-3.598428,0.33536798,-0.327746,-0.34298998,165.90001,-143.70001,-26.1,,,,,,
1295514,-1.2668668,9.152185,-3.6492703,-0.015244,-0.480186,-0.388722,168.3,-148.5,-26.1,,,,,,
1295534,-1.12092,9.172523,-3.4482942,-0.07622,-0.55640596,-0.17530599,165.90001,-146.1,-26.1,,,,,,
1295554,-1.2555021,8.762197,-3.3741245,-0.602138,-0.434454,0.007622,163.5,-146.1,-25.500002,,,,,,
1295574,-1.3440273,8.296842,-3.20485,-0.67835796,-0.487808,0.243904,170.70001,-138.90001,-27.300001,,,,,,
1295596,-1.0096654,8.85431,-3.1869059,-0.19055,-0.320124,0.56402797,168.3,-143.70001,-25.500002,,,,,,
1295617,-1.0766573,8.83517,-3.0882123,-0.510674,-0.22865999,0.091464,168.3,-143.70001,-26.7,,,,,,
1295638,-1.0054784,9.00923,-3.116923,-0.35061198,-0.23628199,0.022866,165.90001,-141.3,-27.300001,,,,,,
1295698,-0.6459944,9.742553,-3.061894,-0.053354,0.144818,0.358234,168.3,-136.5,-26.1,,,,,,
1295718,-1.3918787,8.690419,-2.7981129,-1.432936,0.480186,-1.303362,165.90001,-143.70001,-26.1,,,x,,,
1295738,-1.6724077,8.1150055,-2.6641288,-0.967994,0.68597996,-0.830798,161.1,-150.90001,-27.300001,,,x,,,
1295762,-2.0827339,8.719728,-2.8680956,-0.480186,1.29574,0.030488,168.3,-143.70001,-27.300001,,,x,,,
1295782,-3.07924,9.29574,-3.3830967,-0.64787,1.67684,0.47256398,165.90001,-143.70001,-26.1,,,x,,,
1295802,-4.175038,9.384863,-3.384891,-0.579272,1.211898,0.213416,168.3,-146.1,-27.300001,,,x,,,
1295824,-5.060888,9.6911125,-3.401041,-0.586894,1.3719599,-0.373478,156.3,-148.5,-29.1,,,x,,,
1295884,-8.441592,8.822011,-4.247413,-0.449698,1.5244,1.280496,165.90001,-146.1,-27.300001,,,x,,,
1295904,-8.006144,9.316077,-4.2958627,-0.95274997,-0.503052,1.8597679,161.1,-138.90001,-27.900002,,,x,,,
1295926,-6.788923,8.367422,-3.03737,-1.242386,-2.7896519,1.6158639,163.5,-150.90001,-27.300001,,,x,,,
1295946,-6.0771327,7.294952,-2.4840877,-1.6539739,-2.6829438,0.56402797,158.70001,-143.70001,-26.7,,,x,,,
1295968,-4.083522,5.6249366,-2.5080135,0.594516,-3.422278,-0.20579399,156.3,-143.70001,-27.900002,,,x,,,
1295988,-2.866301,5.2241807,-1.9026928,1.722572,-3.6585598,0.777444,158.70001,-148.5,-29.1,,,x,,,
1296008,-1.4612633,5.9676723,-1.5150962,1.02897,-1.989342,1.775926,153.90001,-146.1,-29.1,,,x,,,
1296028,-1.6203693,5.978439,-2.083332,-0.083841994,-0.259148,1.8597679,161.1,-150.90001,-27.900002,,,x,,,
1296050,-1.3368496,6.6381907,-2.669512,0.106708,-0.45731997,2.987824,153.90001,-150.90001,-26.7,,,x,,,
1296070,-0.5915634,5.89111,-2.497247,-0.23628199,-1.94361,3.864354,151.5,-150.90001,-28.500002,,,x,,,
1296090,1.1687714,6.755427,-2.3776183,0.365856,-2.6905658,6.5854077,149.1,-158.1,-27.300001,,,x,,,
1296110,2.1108465,6.927692,-1.9702829,0.312502,-2.2332458,7.4848037,141.90001,-158.1,-27.300001,,,x,,,
1296130,2.4840877,7.0604796,-2.6982229,0.480186,-0.022866,7.9497457,129.90001,-160.5,-28.500002,,,x,,,
1296150,3.8251243,9.012818,-3.6971216,2.09605,0.792688,9.573232,125.100006,-158.1,-27.300001,,,x,,,
1296190,4.5763917,9.451257,-3.5739043,0.541162,0.030488,7.0808377,108.3,-165.3,-26.7,,,x,,,
1296213,6.2314534,10.938839,-3.359769,1.044214,0.137196,8.186028,98.700005,-167.70001,-26.7,,,x,,,
1296234,5.232555,9.93336,-2.7544484,-0.93750596,1.41007,6.295772,84.3,-160.5,-27.300001,,,x,,,
1296254,5.0124383,10.470492,-3.4339387,0.289636,2.423796,5.289668,89.100006,-167.70001,-28.500002,,,x,,,
1296318,5.087206,10.463913,-3.8017967,0.503052,3.536608,4.123502,74.700005,-172.5,-25.500002,,,x,,,
1296338,4.7510495,10.096653,-4.0296893,0.57164997,2.82014,3.376546,74.700005,-165.3,-26.7,,,x,,,
1296358,5.543589,10.856894,-4.359864,0.853664,1.8292799,2.865872,69.9,-179.70001,-26.7,,,x,,,
1296378,7.3810844,11.472383,-4.015932,-0.83842,1.006104,3.902464,62.7,-172.5,-25.500002,,,x,,,
1296398,7.8332806,11.040523,-3.1486247,-2.01983,1.41007,3.2545938,60.300003,-167.70001,-26.1,,,x,,,
1296418,7.016217,11.206807,-3.8430686,-0.510674,2.530504,1.242386,60.300003,-172.5,-27.300001,,,x,,,
1296441,7.7214274,12.170415,-4.0488296,-0.708846,1.3795819,-1.25763,53.100002,-174.90001,-25.500002,,,x,,,
1296461,8.543276,10.326341,-2.372235,-2.32471,1.669218,-2.2103798,62.7,-170.1,-26.7,,,x,,,
1296481,7.9044595,10.391538,-2.577398,-1.211898,3.071666,-1.8369019,60.300003,-162.90001,-26.1,,,x,,,
1296502,6.239229,11.551337,-3.8550315,1.1051899,3.894842,-3.2241058,60.300003,-172.5,-27.300001,,,x,,,
1296522,5.6063943,10.404697,-4.1433363,0.480186,1.288118,-5.94516,62.7,-174.90001,-27.900002,,,x,,,
1296544,5.7385836,9.29574,-3.3896763,0.20579399,-0.67073596,-5.327778,72.3,-167.70001,-26.7,,,x,,,
1296564,4.898791,8.6324,-3.4159944,0.34298998,-1.089946,-4.146368,74.700005,-167.70001,-26.1,,,x,,,
1296584,4.669104,8.791506,-3.5290434,0.060976,-1.310984,-4.093014,84.3,-165.3,-27.900002,,,x,,,
1296604,3.9848285,7.455852,-3.1235025,-0.68597996,-1.6158639,-5.403998,91.5,-170.1,-27.900002,,,x,,,
1296624,3.2592812,6.534114,-2.5522761,-0.56402797,-1.425314,-4.87808,86.700005,-172.5,-26.1,,,x,,,
1296644,2.8232348,6.4533644,-2.2526064,-0.602138,-0.93750596,-3.7347798,93.9,-160.5,-27.900002,,,x,,,
1296667,2.1868107,6.255379,-1.8093824,-0.68597996,-0.56402797,-3.08691,98.700005,-167.70001,-27.900002,,,x,,,
1296687,1.233969,6.0095425,-2.180231,-1.044214,0.442076,-2.7286758,103.50001,-162.90001,-26.7,,,x,,,
1296709,0.34572664,5.538804,-2.3740294,-0.632626,0.28201398,-3.079288,101.100006,-165.3,-27.300001,,,x,,,
1296731,-0.8266336,5.6632175,-2.3447204,0.739334,0.091464,-3.033556,108.3,-158.1,-28.500002,,,x,,,
1296752,-2.045649,7.0987606,-3.087614,0.510674,0.7622,-2.065562,105.9,-153.3,-26.7,,,x,,,
1296772,-2.9273117,7.5587325,-3.8460593,-0.213416,-0.503052,-2.89636,108.3,-160.5,-26.1,,,x,,,
1296792,-2.9398727,7.2482967,-3.5433989,0.083841994,-1.692084,-3.117398,110.700005,-162.90001,-27.300001,,,x,,,
1296812,-2.8609178,7.5084887,-2.857329,0.121952,-2.431418,-2.13416,117.9,-158.1,-26.7,,,x,,,
1296876,-3.334049,9.025977,-2.8100758,-1.1356779,-0.525918,-3.071666,127.50001,-158.1,-27.900002,,,x,,,
1296902,-3.3938632,9.576867,-2.790935,-1.242386,-0.060976,-3.841488,129.90001,-162.90001,-27.900002,,,x,,,
1296922,-3.5332305,8.726906,-2.43504,-1.1051899,0.28201398,-4.0625257,134.70001,-162.90001,-27.300001,,,x,,,
1296962,-4.040456,8.921303,-2.9751632,-0.17530599,1.074702,-3.155508,139.5,-158.1,-27.900002,,,x,,,
1296982,-3.7635155,8.953004,-2.9978926,0.091464,0.625004,-2.500016,139.5,-153.3,-28.500002,,,x,,,
1297002,-3.3830967,8.536696,-2.8316088,-0.17530599,0.091464,-1.75306,144.3,-148.5,-29.1,,,x,,,
1297022,-2.8501513,8.866872,-2.707195,0.030488,-0.07622,-0.70122397,144.3,-153.3,-29.1,,,x,,,
1297042,-2.4918637,9.158765,-2.8130665,-0.312502,-0.182928,-0.45731997,144.3,-155.70001,-27.900002,,,x,,,
1297063,-2.0564156,9.188074,-2.9033859,-0.396344,-0.56402797,-0.60976,141.90001,-158.1,-29.7,,,x,,,
1297083,-1.6173786,9.006837,-2.8812547,-0.221038,-0.99086,-0.868908,141.90001,-148.5,-28.500002,,,x,,,
1297103,-1.2734464,8.814833,-2.7646167,-0.045732,-1.074702,-0.907018,149.1,-148.5,-29.7,,,x,,,
1297123,-0.88884044,9.299927,-2.886638,0.15244,-0.746956,-0.80793196,146.70001,-153.3,-27.300001,,,x,,,
1297143,-0.6800886,9.438696,-3.142045,-0.198172,-0.358234,-1.21952,141.90001,-153.3,-28.500002,,,x,,,
1297165,-0.86611104,8.894386,-3.167167,-0.106708,-0.198172,-1.570132,144.3,-148.5,-27.300001,,,,,,
1297185,-0.8487649,9.473987,-3.3478062,0.33536798,0.15244,-1.280496,153.90001,-146.1,-29.1,,,,,,
1297205,-0.91755134,9.116297,-3.100175,-0.129574,0.41158798,-1.417692,149.1,-148.5,-29.7,,,,,,
1297225,-0.91276616,9.445275,-3.1773355,-0.28201398,0.99086,-1.265252,149.1,-150.90001,-30.900002,,,,,,
1297245,-1.041965,8.998463,-3.0678754,-0.64787,1.242386,-1.303362,153.90001,-153.3,-27.900002,,,,,,
1297265,-1.0497409,9.03794,-2.9213302,-0.487808,1.3719599,-1.044214,156.3,-150.90001,-28.500002,,,,,,
1297285,-0.8254373,9.087586,-2.774187,-0.434454,1.3567159,-0.907018,156.3,-153.3,-29.7,,,,,,
1297305,-0.74708056,8.84474,-2.6892507,-0.548784,1.3719599,-0.777444,158.70001,-146.1,-28.500002,,,,,,
1297325,-0.6555647,8.672475,-2.6886528,-0.35061198,1.29574,-0.68597996,153.90001,-150.90001,-27.300001,,,,,,
1297345,-0.4982531,8.855507,-2.7586353,0.0,1.166166,-0.548784,151.5,-150.90001,-26.1,,,,,,
1297365,-0.4731311,9.092371,-2.999687,0.121952,1.021348,-0.602138,156.3,-148.5,-28.500002,,,,,,
1297385,-0.39477435,9.0433235,-3.1037638,0.19055,0.67835796,-0.731712,156.3,-150.90001,-29.1,,,,,,
1297408,-0.26258478,9.040931,-2.9937055,0.221038,0.46494198,-0.80793196,156.3,-143.70001,-27.300001,,,,,,
1297428,-0.24045348,9.055884,-3.0600994,-0.045732,0.68597996,-0.861286,151.5,-153.3,-28.500002,,,,,,
1297448,-0.41212052,9.036146,-3.2951696,-0.19055,0.899396,-0.884152,151.5,-146.1,-27.900002,,,,,,
1297471,-0.56225437,8.97693,-3.262272,-0.16768399,0.625004,-0.663114,156.3,-143.70001,-26.7,,,,,,
1297491,-0.58378756,9.106727,-3.1354654,-0.17530599,0.663114,-0.625004,156.3,-150.90001,-26.7,,,,,,
1297511,-0.681883,9.164746,-3.1438394,-0.358234,0.83842,-0.746956,156.3,-148.5,-27.900002,,,,,,
1297531,-0.75844526,8.926087,-3.1887002,-0.632626,0.99086,-0.80793196,158.70001,-153.3,-26.7,,,,,,
1297555,-0.7548564,8.61266,-3.1809244,-0.510674,1.074702,-0.655492,158.70001,-150.90001,-27.900002,,,,,,
1297575,-0.6920514,8.761599,-3.1324747,-0.19055,1.1128119,-0.243904,163.5,-146.1,-27.900002,,,,,,
1297595,-0.753062,8.9787245,-3.262272,-0.22865999,1.059458,-0.30488,156.3,-148.5,-27.900002,,,,,,
1297618,-0.6154891,8.61266,-3.1892984,-0.221038,0.434454,-0.480186,158.70001,-150.90001,-28.500002,,,,,,
1297638,-0.3074455,9.030763,-3.083427,0.20579399,0.259148,-0.53354,156.3,-150.90001,-26.7,,,,,,
1297658,-0.30923992,8.966163,-3.0397625,0.015244,0.320124,-0.80030996,161.1,-148.5,-27.900002,,,,,,
1297681,-0.31701577,8.903956,-2.95363,-0.045732,0.289636,-0.899396,161.1,-143.70001,-27.300001,,,,,,
1297701,-0.29847333,8.749636,-2.740093,-0.198172,0.23628199,-0.868908,163.5,-143.70001,-28.500002,,,,,,
1297721,-0.51799184,9.032557,-2.7329152,-0.33536798,0.60976,-0.746956,161.1,-148.5,-26.7,,,,,,
1297741,-0.64120924,9.594811,-2.8704882,-0.144818,0.442076,-0.80793196,158.70001,-148.5,-28.500002,,,,,,
1297803,-1.4373375,9.283777,-3.0612957,0.503052,-0.640248,-1.036592,163.5,-148.5,-26.1,,,,,,
1297823,-1.8255323,8.988295,-3.213224,0.289636,-0.891774,-0.884152,168.3,-148.5,-27.300001,,,,,,
1297843,-2.104865,8.457742,-3.1970742,0.198172,-1.1051899,-0.518296,163.5,-148.5,-27.900002,,,,,,
1297866,-2.0946968,8.684438,-3.3729281,0.3811,-1.318606,-0.03811,165.90001,-146.1,-26.7,,,,,,
1297886,-1.9481517,8.506191,-3.3394322,0.20579399,-1.6387299,0.160062,168.3,-148.5,-26.1,,,,,,
1297906,-1.6921464,8.535501,-3.2204018,-0.015244,-1.577754,0.45731997,168.3,-143.70001,-25.500002,,,,,,
1297926,-1.5862751,8.40032,-3.137858,-0.320124,-1.318606,0.40396598,163.5,-146.1,-27.300001,,,x,,,
1297948,-1.4068322,8.320766,-3.1013713,-0.35061198,-0.83842,0.41158798,163.5,-148.5,-27.900002,,,x,,,
1297968,-1.6131916,8.04921,-2.9895186,-0.525918,-0.449698,0.510674,161.1,-146.1,-28.500002,,,x,,,
1297990,-2.1299872,8.181997,-2.9398727,-0.480186,0.106708,0.480186,158.70001,-148.5,-28.500002,,,x,,,
1298010,-3.393265,9.271216,-3.13726,-0.480186,1.280496,0.640248,161.1,-141.3,-26.1,,,x,,,
1298030,-5.145226,9.65642,-3.4961457,-1.745438,1.806414,0.022866,158.70001,-148.5,-26.1,,,x,,,
1298050,-6.417476,9.665392,-3.6199613,-1.8292799,1.98172,-0.28201398,161.1,-153.3,-29.1,,,x,,,
1298070,-7.8924966,8.814833,-3.481192,-1.806414,3.0488,-1.21952,165.90001,-148.5,-29.7,,,x,,,
1298094,-8.073734,9.107923,-4.481287,0.015244,3.643316,0.35061198,158.70001,-141.3,-27.300001,,,x,,,
1298114,-8.068351,8.26514,-3.9686787,0.17530599,2.7134318,2.157026,161.1,-150.90001,-29.1,,,x,,,
1298134,-7.181903,7.8225136,-4.0679703,-0.251526,4.26832,5.6097918,149.1,-148.5,-24.300001,,,x,,,
1298154,-6.9264956,7.6424727,-4.0063615,-0.26677,4.222588,6.006136,151.5,-150.90001,-27.900002,,,x,,,
1298174,-5.9676723,8.003751,-3.8849387,-0.20579399,3.528986,6.25004,139.5,-150.90001,-27.900002,,,x,,,
1298218,-3.1318767,6.0944786,-2.6551566,-1.3795819,1.318606,4.923812,137.1,-158.1,-26.1,,,x,,,
1298238,-2.171857,5.706284,-2.4153013,-2.62959,0.594516,5.350644,129.90001,-158.1,-26.7,,,x,,,
1298258,-0.48509395,5.9108486,-2.4571714,-3.1936178,-0.907018,7.08846,115.50001,-162.90001,-27.900002,,,x,,,
1298280,1.067087,5.221788,-1.3876917,-4.0777698,-2.530504,8.201272,113.100006,-160.5,-29.7,,,x,,,
1298300,3.3334508,6.308016,-0.90798104,-3.2850819,-1.974098,10.7241535,105.9,-165.3,-29.7,,,x,,,
1298340,4.9813347,7.7752604,-1.4708335,-1.79117,0.03811,10.945191,84.3,-174.90001,-30.900002,,,x,,,
1298360,6.65135,8.343496,-1.2261931,-2.126538,-0.099086,10.625068,72.3,-174.90001,-31.500002,,,x,,,
1298401,7.120892,8.945229,-2.4793026,-0.068598,2.2484899,10.083906,55.500004,-167.70001,-29.1,,,x,,,
1298421,8.220279,9.965062,-2.4990413,-0.160062,1.1051899,10.36592,38.7,-177.3,-30.900002,,,x,,,
1298461,9.442285,9.176709,-1.4666466,-1.684462,1.8597679,6.8674216,29.1,-172.5,-30.900002,,,x,,,
1298521,9.947716,10.9866905,-2.4739194,-0.19055,-1.661596,2.621968,7.5000005,-170.1,-30.900002,,,x,,,
1298545,9.219776,9.198242,-2.4003477,1.25763,0.69360197,-1.1356779,12.3,-170.1,-29.7,,,x,,,
1298566,8.400918,9.709655,-3.6408963,3.064044,0.975616,-2.09605,9.900001,-167.70001,-30.900002,,,x,,,
1298588,8.569594,10.859884,-4.1152234,2.378064,0.053354,-2.36282,14.700001,-174.90001,-29.7,,,x,,,
1298628,8.536696,9.646252,-2.7089896,-0.11432999,-0.03811,-5.18296,17.1,-177.3,-31.500002,,,x,,,
1298648,7.774064,9.04751,-3.1396525,0.67835796,0.739334,-5.29729,24.300001,-170.1,-28.500002,,,x,,,
1298668,7.6215377,9.294543,-3.5834746,0.92226195,0.594516,-5.0991178,36.300003,-170.1,-27.900002,,,x,,,
1298688,7.1687436,9.093568,-3.2108314,0.548784,-0.15244,-5.0838737,31.500002,-174.90001,-28.500002,,,x,,,
1298708,6.983917,9.014014,-3.1300821,-0.121952,-0.40396598,-5.5488157,41.100002,-172.5,-27.300001,,,x,,,
1298728,6.3899612,7.789616,-2.7508595,-0.434454,-1.1432999,-6.143332,43.5,-174.90001,-28.500002,,,x,,,
1298752,5.8582125,7.4289355,-2.8005054,0.41921,-1.036592,-5.4421077,50.7,-172.5,-27.900002,,,x,,,
1298772,5.3378277,7.613762,-2.5779963,-0.754578,-1.41007,-5.25918,60.300003,-172.5,-27.300001,,,x,,,
1298792,4.987316,7.0850034,-2.3530943,-0.95274997,-1.8521459,-5.571682,69.9,-167.70001,-29.7,,,x,,,
1298812,4.2701426,6.145919,-1.6544634,-1.661596,-1.989342,-5.663146,62.7,-172.5,-29.1,,,x,,,
1298832,3.354984,5.316893,-1.4361413,-1.928366,-1.303362,-5.129606,74.700005,-172.5,-29.7,,,x,,,
1298852,2.0952947,4.7253294,-1.1466401,-1.684462,-0.64787,-4.855214,79.5,-172.5,-30.300001,,,x,,,
1298872,0.03229972,5.099169,-1.4241784,-0.785066,0.396344,-4.817104,84.3,-165.3,-30.900002,,,x,,,
1298892,-1.4295617,6.76739,-2.5917535,0.617382,0.785066,-4.9161897,86.700005,-172.5,-29.1,,,x,,,
1298913,-2.225092,7.783036,-2.7245412,0.91463995,-1.737816,-6.1052217,101.100006,-170.1,-29.1,,,x,,,
1298933,-2.4900692,7.6263227,-2.2962708,0.274392,-2.423796,-6.32626,103.50001,-165.3,-28.500002,,,x,,,
1298953,-3.3017492,7.2686334,-2.385394,-0.541162,-1.8673899,-6.3567476,101.100006,-160.5,-29.1,,,x,,,
1298973,-3.622952,8.48107,-2.5833795,0.19055,-2.2942219,-5.4725957,120.3,-162.90001,-30.300001,,,x,,,
1298993,-3.57211,10.44238,-2.6994193,-0.20579399,-2.080806,-5.228692,117.9,-160.5,-28.500002,,,x,,,
1299054,-5.27263,8.748439,-2.7442799,0.41921,-0.663114,-6.661628,137.1,-158.1,-30.900002,,,x,,,
1299116,-4.777368,9.034351,-3.0026777,1.189032,-0.80030996,-3.88722,153.90001,-146.1,-29.1,,,x,,,
1299182,-3.368143,9.0756235,-2.5720148,-0.617382,0.739334,-1.18141,161.1,-143.70001,-29.7,,,x,,,
1299202,-2.8645067,9.192261,-2.4153013,-0.67073596,0.792688,-1.234764,158.70001,-148.5,-29.7,,,x,,,
1299242,-2.0629952,9.334021,-2.5546687,-0.3811,0.868908,-1.509156,158.70001,-153.3,-30.300001,,,x,,,
1299266,-1.8105788,9.257459,-2.8160572,0.053354,0.93750596,-1.585376,153.90001,-143.70001,-30.300001,,,x,,,
1299286,-1.5515828,9.192261,-3.0026777,0.67073596,0.56402797,-1.478668,161.1,-146.1,-29.7,,,x,,,
1299306,-1.6957353,8.807057,-3.0822308,0.449698,0.3811,-1.02897,163.5,-146.1,-29.7,,,x,,,
1299326,-1.5713216,8.908741,-3.2162147,0.320124,0.320124,-0.23628199,158.70001,-143.70001,-29.1,,,x,,,
1299346,-1.3183072,9.068445,-3.3454137,0.160062,0.373478,0.099086,161.1,-148.5,-29.7,,,x,,,
1299366,-1.0222263,9.066053,-3.2580848,-0.11432999,0.251526,0.160062,165.90001,-146.1,-29.7,,,x,,,
1299389,-0.62027425,9.045118,-2.8250291,-0.55640596,0.442076,0.160062,161.1,-148.5,-27.300001,,,x,,,
1299409,-0.5275621,8.9356575,-2.7209523,-0.731712,0.907018,-0.007622,158.70001,-146.1,-29.1,,,,,,
1299429,-0.47073853,8.991883,-2.748467,-0.541162,1.1051899,-0.15244,163.5,-148.5,-28.500002,,,,,,
1299449,-0.4204945,9.147999,-2.7873464,-0.35061198,1.196654,-0.41921,161.1,-141.3,-29.7,,,,,,
1299473,-0.5012438,8.820814,-2.8537402,-0.47256398,1.1432999,-0.57164997,153.90001,-146.1,-29.1,,,,,,
1299493,-0.5066271,8.995472,-2.8429735,0.106708,1.02897,-0.33536798,161.1,-146.1,-28.500002,,,,,,
1299513,-0.57840425,9.016407,-2.9889205,0.129574,1.089946,-0.503052,161.1,-141.3,-28.500002,,,,,,
1299533,-0.6471907,9.389648,-3.1707559,0.40396598,1.036592,-0.541162,161.1,-150.90001,-29.1,,,,,,
1299556,-0.6262557,9.3998165,-3.326273,0.083841994,0.769822,-0.746956,165.90001,-146.1,-27.300001,,,,,,
1299576,-0.619078,8.969153,-2.9255173,-0.17530599,0.602138,-0.55640596,163.5,-146.1,-29.1,,,,,,
1299596,-0.75366014,9.034351,-2.9069748,-0.33536798,0.907018,-0.3811,163.5,-146.1,-28.500002,,,,,,
1299616,-0.8350076,9.073231,-2.9153488,-0.320124,0.94512796,-0.426832,163.5,-138.90001,-27.900002,,,,,,
1299636,-0.9564306,9.046314,-2.9291062,-0.160062,0.861286,-0.64787,156.3,-148.5,-27.900002,,,,,,
1299656,-1.1017793,8.658119,-2.7843556,-0.221038,0.586894,-0.777444,163.5,-148.5,-27.300001,,,,,,
1299717,-1.3326626,8.747841,-3.062492,0.03811,0.137196,-0.17530599,165.90001,-146.1,-29.7,,,,,,
1299740,-1.1825286,8.772963,-3.032585,0.16768399,-0.144818,-0.060976,163.5,-148.5,-27.900002,,,,,,
1299761,-0.9994969,8.920106,-3.133671,0.099086,-0.144818,0.16768399,161.1,-148.5,-28.500002,,,,,,
1299781,-0.87508315,9.066053,-3.2742345,-0.030488,-0.17530599,0.129574,156.3,-148.5,-29.7,,,,,,
1299801,-0.7249493,9.159962,-3.2108314,-0.083841994,-0.297258,0.030488,161.1,-150.90001,-29.1,,,,,,
1299821,-0.7016217,8.942238,-3.1055584,-0.34298998,-0.23628199,-0.121952,161.1,-146.1,-29.1,,,,,,
1299841,-0.6471907,9.011622,-3.0947917,-0.327746,-0.083841994,-0.083841994,165.90001,-146.1,-27.300001,,,,,,
1299861,-0.6208724,9.076819,-3.138456,-0.297258,-0.015244,-0.221038,163.5,-148.5,-27.900002,,,,,,
1299884,-0.61190027,9.087586,-2.9560225,-0.22865999,0.015244,-0.434454,161.1,-148.5,-26.1,,,,,,
1299904,-0.6430037,9.204224,-2.987724,-0.365856,0.19055,-0.69360197,168.3,-150.90001,-27.900002,,,,,,
1299924,-0.72136045,8.733485,-3.05352,-0.830798,0.129574,-0.754578,163.5,-148.5,-26.7,,,,,,
1299944,-0.70221984,8.91891,-2.974565,-0.091464,0.15244,-0.34298998,158.70001,-153.3,-29.1,,,,,,
1299964,-0.83799833,9.118092,-2.9966962,-0.30488,0.289636,-0.632626,165.90001,-148.5,-27.300001,,,,,,
1299987,-0.9211402,8.850123,-2.9219284,-0.41921,0.17530599,-0.846042,161.1,-141.3,-27.900002,,,,,,
1300008,-0.97138417,8.794497,-2.8968065,-0.49543,0.259148,-0.7622,158.70001,-148.5,-28.500002,,,,,,
1300028,-1.0491427,8.917115,-3.0523236,-0.28201398,0.243904,-0.830798,168.3,-143.70001,-27.900002,,,,,,
1300052,-1.0993868,9.074427,-3.0744548,0.022866,0.007622,-0.94512796,165.90001,-143.70001,-28.500002,,,,,,
1300072,-1.070676,9.094166,-2.9721725,-0.068598,-0.121952,-0.975616,175.5,-146.1,-27.900002,,,,,,
1300092,-0.99052477,8.973939,-2.8794603,-0.35061198,0.060976,-0.960372,168.3,-143.70001,-27.300001,,,,,,
1300112,-1.074863,8.848329,-2.9093673,-0.45731997,0.327746,-0.93750596,168.3,-141.3,-26.7,,,,,,
1300132,-1.3667567,8.932667,-3.0559125,-0.160062,0.434454,-0.998482,170.70001,-141.3,-28.500002,,,,,,
1300152,-1.4941611,8.932069,-3.0947917,-0.129574,0.41158798,-0.998482,165.90001,-148.5,-29.1,,,,,,
1300172,-1.6107991,9.030763,-3.1193156,-0.221038,0.16768399,-0.967994,165.90001,-146.1,-29.1,,,,,,
1300192,-1.7160722,8.94762,-3.1109416,-0.34298998,0.091464,-0.907018,170.70001,-143.70001,-28.500002,,,,,,
1300212,-1.8805615,8.842347,-3.0355756,-0.388722,0.07622,-0.92226195,168.3,-141.3,-27.300001,,,,,,
1300234,-2.3417296,9.040931,-3.0858195,-0.297258,0.34298998,-0.640248,165.90001,-141.3,-27.900002,,,,,,
1300254,-2.6096978,9.230542,-3.237748,-0.3811,0.503052,-0.35061198,170.70001,-138.90001,-29.7,,,x,,,
1300274,-2.9608078,8.93805,-2.9955,-0.55640596,0.47256398,0.091464,168.3,-138.90001,-26.7,,,x,,,
1300294,-3.778469,8.640774,-3.075053,-0.853664,1.036592,0.617382,168.3,-143.70001,-28.500002,,,x,,,
1300315,-4.4800906,8.968555,-3.4165926,-0.7622,1.539644,1.089946,170.70001,-143.70001,-29.1,,,x,,,
1300335,-5.2056384,8.2777,-3.5320342,-1.021348,1.1280559,0.3811,165.90001,-146.1,-28.500002,,,x,,,
1300355,-5.4646344,8.463125,-3.3125157,-0.388722,0.80793196,1.29574,165.90001,-143.70001,-29.7,,,x,,,
1300375,-5.699704,8.610268,-3.3382359,-1.196654,1.1280559,1.56251,165.90001,-150.90001,-29.1,,,x,,,
1300395,-6.286483,7.8458414,-3.3238804,-1.227142,1.737816,2.2713559,165.90001,-148.5,-29.7,,,x,,,
1300419,-5.940756,8.6766615,-3.7198513,-0.82317597,1.8673899,3.932952,161.1,-146.1,-27.300001,,,x,,,
1300439,-5.8462496,8.336917,-3.4411166,-1.318606,2.073184,4.9009457,158.70001,-146.1,-27.900002,,,x,,,
1300459,-5.475999,8.38716,-3.4333405,-1.75306,2.355198,5.8918056,153.90001,-155.70001,-27.900002,,,x,,,
1300479,-5.0854115,7.990592,-3.3830967,-2.065562,2.469528,6.4482117,151.5,-150.90001,-27.900002,,,x,,,
1300499,-4.565027,7.2853813,-3.2245889,-2.111294,2.446662,6.730226,141.90001,-150.90001,-29.7,,,x,,,
1300519,-3.6875515,7.008441,-3.2192054,-1.920744,2.370442,7.2409,132.3,-165.3,-30.300001,,,x,,,
1300539,-2.9003952,7.366131,-3.2969642,-2.027452,2.103672,8.04121,122.700005,-162.90001,-29.1,,,x,,,
1300559,-2.0007882,7.2518854,-3.535025,-3.08691,1.3948259,8.201272,120.3,-160.5,-30.300001,,,x,,,
1300639,2.4296567,6.112423,-1.2967739,-3.3003259,-1.516778,11.24245,77.100006,-167.70001,-31.500002,,,x,,,
1300682,4.321583,7.2967463,-1.4774132,-3.2393498,-0.312502,9.7028055,55.500004,-172.5,-34.5,,,x,,,
1300724,6.4533644,7.8578043,-0.1614986,-2.522882,-0.221038,9.580853,36.300003,-172.5,-33.9,,,x,,,
1300744,6.326558,7.9008703,-0.4815051,-1.5929979,0.579272,8.7653,26.7,-179.70001,-33.9,,,x,,,
1300764,6.7638006,8.502005,-0.85953146,-0.81555396,0.30488,8.506152,19.5,-177.3,-35.100002,,,x,,,
1300804,8.8602915,8.068949,-1.1932952,-0.586894,-0.198172,8.147918,5.1000004,-172.5,-33.300003,,,x,,,
1300824,9.587035,10.018296,-1.3500087,0.53354,1.8826339,10.640312,-4.5,-174.90001,-35.100002,,,x,,,
1300866,9.430322,8.644362,-1.116733,-1.242386,-1.692084,4.45887,-26.1,-174.90001,-35.7,,,x,,,
1301045,8.11381,8.146708,-2.200568,2.088428,0.030488,-4.093014,-14.1,-172.5,-33.9,,,x,,,
1301065,9.5984,9.616942,-1.9942087,1.6387299,-0.69360197,-4.222588,-11.700001,-172.5,-33.300003,,,x,,,
1301107,7.8482337,8.398525,-2.8555346,2.545748,-0.35061198,-7.1113257,-4.5,-167.70001,-31.500002,,,x,,,
1301127,7.373308,8.526528,-3.0002851,2.43904,-1.006104,-6.9588857,9.900001,-170.1,-30.300001,,,x,,,
1301147,7.3457937,8.149698,-2.8357959,1.013726,-1.71495,-7.27901,12.3,-177.3,-30.300001,,,x,,,
1301167,6.8816347,7.4911427,-1.8644116,0.23628199,-1.6311079,-7.27901,17.1,-174.90001,-30.300001,,,x,,,
1301230,4.2725353,6.7422676,-2.049836,1.516778,-2.2027578,-7.896392,45.9,-172.5,-30.300001,,,x,,,
1301279,3.1701577,6.6465645,-1.8506544,-1.02897,-3.7195358,-6.951264,65.100006,-174.90001,-29.1,,,x,,,
1301299,2.2902894,5.8958955,-1.7465775,-1.074702,-3.6814258,-6.966508,72.3,-177.3,-29.7,,,x,,,
1301342,-1.2058562,6.069955,-2.342926,-1.250008,-1.074702,-6.8369336,81.9,-172.5,-31.500002,,,x,,,
1301362,-3.2347572,7.516863,-3.3567784,-0.82317597,-0.72409,-4.87808,96.3,-170.1,-29.7,,,x,,,
1301382,-3.209037,8.408095,-2.6384087,-1.280496,-2.103672,-4.565578,96.3,-165.3,-32.7,,,x,,,
1301402,-2.7185597,8.950611,-1.9732736,0.053354,-0.92988396,-5.44973,101.100006,-170.1,-32.7,,,x,,,
1301423,-3.167167,8.950013,-2.506817,0.129574,1.074702,-6.425346,108.3,-165.3,-31.500002,,,x,,,
1301443,-3.7048976,8.368618,-2.2687564,0.40396598,0.846042,-6.379614,113.100006,-172.5,-31.500002,,,x,,,
1301465,-4.33534,8.705971,-2.1945865,0.40396598,1.21952,-5.762232,120.3,-160.5,-32.7,,,x,,,
1301485,-4.392762,9.575072,-2.9679854,0.312502,1.532022,-5.510706,122.700005,-165.3,-31.500002,,,x,,,
1301505,-4.486072,9.588232,-3.0152388,0.93750596,0.358234,-5.823208,122.700005,-162.90001,-31.500002,,,x,,,
1301525,-4.5117927,8.524136,-2.7215505,0.030488,0.16768399,-5.6097918,127.50001,-162.90001,-30.900002,,,x,,,
1301545,-4.7791624,9.261645,-2.8220387,1.196654,0.655492,-4.657042,134.70001,-165.3,-29.7,,,x,,,
1301565,-4.5578494,9.653429,-3.3741245,0.884152,0.480186,-4.72564,144.3,-153.3,-29.7,,,x,,,
1301585,-4.002773,8.61266,-2.7634206,0.426832,-0.46494198,-3.567096,137.1,-155.70001,-29.7,,,x,,,
1301649,-1.8099806,9.179102,-1.9738718,-0.40396598,-0.708846,-0.182928,146.70001,-158.1,-29.7,,,x,,,
1301669,-1.3230922,9.10254,-1.7519608,-0.594516,0.106708,-0.853664,146.70001,-155.70001,-31.500002,,,x,,,
1301689,-1.5790974,8.507986,-2.1234076,-0.525918,0.72409,-1.661596,144.3,-155.70001,-30.300001,,,x,,,
1301709,-1.5133017,8.479873,-2.418292,0.960372,0.746956,-1.760682,144.3,-153.3,-29.7,,,x,,,
1301729,-1.6568561,8.607876,-2.4529843,1.196654,0.891774,-1.737816,153.90001,-155.70001,-29.7,,,x,,,
1301753,-2.167072,8.445779,-2.7921314,0.99086,1.013726,-1.8902559,149.1,-153.3,-29.7,,,x,,,
1301773,-1.945759,9.536194,-3.3226843,1.768304,0.70122397,-1.189032,156.3,-150.90001,-30.300001,,,x,,,
1301793,-1.8135695,9.855601,-3.2479162,1.150922,0.213416,-1.516778,158.70001,-153.3,-29.7,,,x,,,
1301813,-1.485189,10.73547,-3.51409,0.41158798,0.251526,-1.006104,151.5,-150.90001,-27.900002,,,x,,,
1301835,-1.6107991,9.587634,-3.213224,-0.94512796,-0.487808,-1.547266,156.3,-146.1,-29.1,,,x,,,
1301855,-1.0084691,9.78203,-3.4040318,-0.586894,-0.510674,-0.289636,151.5,-146.1,-29.7,,,x,,,
1301875,-0.6896588,9.125867,-3.1647744,-0.47256398,-0.884152,-0.16768399,153.90001,-150.90001,-29.1,,,x,,,
1301895,-0.7686137,8.592324,-2.8997972,-0.30488,-0.87653,0.091464,151.5,-148.5,-29.7,,,x,,,
1301918,-0.6124984,8.994276,-3.1617837,0.045732,-0.251526,-0.56402797,153.90001,-148.5,-29.1,,,x,,,
1301938,-0.002392572,9.466809,-3.3041418,0.365856,-0.007622,-0.72409,158.70001,-150.90001,-29.7,,,,,,
1301958,0.3283805,9.503894,-3.2640662,-0.083841994,-0.083841994,-0.92988396,151.5,-146.1,-29.7,,,,,,
1301980,-0.073571585,8.750234,-2.7119803,-0.510674,0.030488,-1.471046,151.5,-153.3,-27.300001,,,,,,
1302000,-0.5329454,8.673671,-2.7957203,-0.365856,0.87653,-1.463424,158.70001,-148.5,-26.7,,,,,,
1302020,-0.75904346,9.196448,-3.0236127,-0.137196,1.074702,-1.3872039,161.1,-148.5,-28.500002,,,,,,
1302040,-1.0431614,8.872254,-2.9715743,0.007622,0.754578,-1.920744,156.3,-146.1,-29.7,,,,,,
1302064,-1.0963961,8.6766615,-3.0224164,0.625004,0.47256398,-0.907018,161.1,-143.70001,-28.500002,,,,,,
1302084,-1.067087,9.015211,-3.0744548,0.617382,0.503052,-0.396344,161.1,-143.70001,-28.500002,,,,,,
1302106,-0.88285905,9.137232,-3.1157267,0.28201398,0.388722,-0.17530599,161.1,-150.90001,-29.1,,,,,,
1302126,-0.778184,9.005641,-3.1025677,-0.015244,0.480186,-0.015244,161.1,-143.70001,-28.500002,,,,,,
1302146,-0.69085515,8.739467,-3.1312785,-0.022866,0.434454,-0.022866,165.90001,-143.70001,-28.500002,,,,,,
1302166,-0.5586655,8.820216,-3.0983806,0.34298998,0.320124,-0.007622,158.70001,-148.5,-29.1,,,,,,
1302187,-0.62984455,8.940443,-3.1564004,0.160062,0.34298998,-0.274392,163.5,-146.1,-29.1,,,,,,
1302207,-0.61429286,8.872853,-3.3083289,0.274392,0.16768399,-0.785066,156.3,-146.1,-30.300001,,,,,,
1302227,-0.6011337,9.164746,-3.3394322,0.69360197,-0.060976,-0.967994,156.3,-143.70001,-27.900002,,,,,,
1302247,-0.77758586,8.938648,-3.3657506,0.30488,-0.129574,-1.1356779,156.3,-141.3,-27.300001,,,,,,
1302310,-0.43784064,8.83517,-2.7592335,-0.34298998,-0.20579399,-0.80793196,158.70001,-143.70001,-27.900002,,,,,,
1302330,-0.2560052,8.862684,-2.857329,-0.754578,0.434454,-0.92988396,158.70001,-146.1,-29.1,,,,,,
