time,sensor_accX,sensor_accY,sensor_accZ,sensor_gyroX,sensor_gyroY,sensor_gyroZ,sensor_magX,sensor_magY,sensor_magZ,label_Boxing_slip_left,label_Boxing_slip_right,label_Boxing_pullback,label_Boxing_roll_left,label_Boxing_roll_right,label_Boxing_recording_cut
881098,2.4087217,9.009828,-2.3148134,-0.579272,0.19055,-0.30488,50.7,-177.3,-30.900002,,,,,,
881138,2.3399353,8.889601,-2.3369446,-0.28201398,0.0,-0.182928,45.9,-177.3,-30.900002,,,,,,
881159,2.3578796,9.0002575,-2.3076355,-0.23628199,0.045732,-0.198172,57.9,-177.3,-30.900002,,,,,,
881179,2.3351502,9.017604,-2.3106263,-0.243904,0.137196,-0.289636,55.500004,-174.90001,-32.100002,,,,,,
881223,2.3321595,8.911134,-2.3046448,-0.23628199,0.34298998,-0.525918,45.9,-170.1,-32.100002,,,,,,
881243,2.355487,8.939845,-2.2896912,-0.160062,0.45731997,-0.57164997,50.7,-170.1,-31.500002,,,,,,
881263,2.3453186,8.966762,-2.2705507,-0.129574,0.632626,-0.594516,53.100002,-172.5,-31.500002,,,,,,
881283,2.3094301,8.930873,-2.271747,-0.137196,0.80030996,-0.625004,55.500004,-172.5,-31.500002,,,,,,
881307,2.2388492,8.900966,-2.3190002,-0.015244,0.93750596,-0.64787,53.100002,-174.90001,-32.100002,,,,,,
881327,2.2101383,8.983509,-2.3895812,-0.007622,1.013726,-0.625004,48.300003,-174.90001,-31.500002,,,,,,
881347,2.2041569,8.926087,-2.3614686,-0.121952,0.960372,-0.56402797,53.100002,-174.90001,-29.1,,,,,,
881391,2.1784368,8.99607,-2.3907773,-0.099086,0.846042,-0.442076,53.100002,-177.3,-32.100002,,,,,,
881411,2.1533146,8.964369,-2.380609,-0.17530599,0.777444,-0.40396598,45.9,-179.70001,-32.7,,,,,,
881431,2.1431463,8.993678,-2.4236753,-0.16768399,0.708846,-0.373478,53.100002,-167.70001,-31.500002,,,,,,
881451,2.1467352,9.005641,-2.4027402,-0.20579399,0.586894,-0.40396598,55.500004,-170.1,-30.300001,,,,,,
881473,2.1575017,8.958387,-2.413507,-0.221038,0.442076,-0.3811,53.100002,-170.1,-32.7,,,,,,
881493,2.1832218,8.984107,-2.346515,-0.213416,0.33536798,-0.396344,55.500004,-172.5,-31.500002,,,,,,
881515,2.2107365,8.982313,-2.305243,-0.289636,0.259148,-0.442076,50.7,-170.1,-30.900002,,,,,,
881535,2.3273742,9.06067,-2.2693543,-0.297258,0.28201398,-0.510674,57.9,-167.70001,-32.7,,,,,,
881555,2.3279724,8.897377,-2.2956727,-0.41158798,0.35061198,-0.541162,53.100002,-174.90001,-30.300001,,,,,,
881578,2.3650572,8.897975,-2.3309631,-0.243904,0.49543,-0.442076,50.7,-177.3,-31.500002,,,,,,
881598,2.3871887,8.942238,-2.2496157,-0.182928,0.617382,-0.45731997,57.9,-174.90001,-30.300001,,,,,,
881658,2.1443427,9.180897,-2.4290586,0.106708,0.884152,-1.265252,55.500004,-177.3,-30.300001,,,,,,
881694,2.0073678,9.106727,-2.4625547,0.20579399,0.716468,-1.463424,57.9,-177.3,-30.900002,,,,,,
881716,1.8931226,9.085194,-2.5026302,0.198172,0.503052,-1.417692,62.7,-165.3,-29.7,,,,,,
881756,1.9188427,9.2484865,-2.4493954,0.068598,0.30488,-1.1204339,62.7,-172.5,-32.100002,,,,,,
881777,1.8159621,9.173718,-2.5295467,-0.289636,0.106708,-1.06708,67.5,-170.1,-29.7,,,,,,
881797,1.836299,8.999061,-2.3883848,-0.03811,-0.03811,-0.80030996,62.7,-174.90001,-28.500002,,,,,,
881817,2.096491,9.08938,-2.3608704,-0.007622,0.221038,-0.503052,62.7,-177.3,-32.100002,,,,,,
881860,2.196381,8.549855,-2.1575017,-0.434454,0.967994,-0.007622,62.7,-172.5,-30.300001,,,,,,
881880,2.1515203,8.1580715,-2.1575017,-0.46494198,1.41007,0.160062,65.100006,-170.1,-30.900002,,,,,,
881901,2.0558174,7.8416543,-2.3273742,-0.121952,1.6387299,0.15244,62.7,-172.5,-30.900002,,,,,,
881941,2.7849536,9.291553,-2.8860397,0.632626,1.745438,0.053354,60.300003,-170.1,-30.300001,,,,,,
881983,2.6431937,8.9242935,-3.1330729,0.899396,1.196654,-0.57164997,62.7,-165.3,-31.500002,,,,,,
882003,2.6120903,8.8919935,-3.1851113,0.853664,0.41921,-1.1204339,67.5,-170.1,-30.900002,,,,,,
882023,2.6378105,9.171925,-3.4022372,1.074702,0.129574,-1.4024479,65.100006,-174.90001,-27.900002,,,,,,
882043,2.6629324,9.066053,-3.393265,0.853664,-0.45731997,-1.532022,60.300003,-172.5,-29.7,,,,,,
882063,2.5863702,8.686233,-3.1324747,0.579272,-0.731712,-1.509156,65.100006,-174.90001,-27.900002,,,,,,
882083,2.527154,8.507986,-2.9835372,0.182928,-0.518296,-1.3414719,69.9,-170.1,-28.500002,,,,,,
882103,2.5008357,8.659316,-3.14683,-0.099086,-0.17530599,-1.3872039,69.9,-167.70001,-28.500002,,,,,,
882123,2.397357,8.301626,-3.0469403,-0.60976,-0.11432999,-1.532022,72.3,-172.5,-27.900002,,,,,,
882143,2.2950745,8.029471,-3.0906048,-0.53354,0.099086,-1.463424,77.100006,-172.5,-27.300001,,,,,,
882166,2.2448306,8.195157,-3.1235025,-0.365856,-0.045732,-1.189032,74.700005,-172.5,-27.900002,,,,,,
882190,2.24184,8.186783,-3.1205118,-0.358234,-0.144818,-1.1204339,77.100006,-167.70001,-27.300001,,,,,,
882211,2.2238955,8.318375,-3.1791298,-0.137196,-0.289636,-1.089946,69.9,-172.5,-29.1,,,,,,
882231,2.180231,8.367422,-3.171354,0.045732,-0.602138,-1.059458,77.100006,-170.1,-29.1,,,,,,
882251,2.1748478,8.514565,-3.2114296,0.251526,-0.868908,-1.06708,81.9,-172.5,-27.900002,,,,,,
882271,2.32558,9.006837,-3.2592812,0.55640596,-1.211898,-1.06708,77.100006,-170.1,-27.300001,,,,,,
882291,2.5421076,9.667785,-3.4441073,0.602138,-1.3872039,-1.150922,74.700005,-172.5,-27.300001,,,,,,
882311,2.4493954,9.3729,-3.3226843,0.19055,-1.920744,-1.3490939,77.100006,-172.5,-27.900002,,,,,,
882335,2.0683784,8.562417,-2.4984431,-0.060976,-1.79117,-0.60976,81.9,-174.90001,-27.900002,,,,,,
882355,1.9391795,9.450659,-2.5833795,-0.213416,-1.3948259,-0.34298998,81.9,-170.1,-29.1,,,,,,
882418,0.7829692,9.317273,-2.046247,-0.617382,-0.81555396,-1.265252,89.100006,-165.3,-28.500002,,,,,,
882439,0.656761,9.369909,-2.0259101,-0.56402797,-0.769822,-1.48629,86.700005,-167.70001,-27.300001,,,,,,
882480,0.049645867,8.894386,-2.1682682,-0.579272,-0.289636,-1.4024479,89.100006,-170.1,-30.300001,,,,,,
882500,-0.15192832,9.110315,-2.1515203,0.365856,-0.26677,-1.059458,86.700005,-172.5,-29.1,,,,,,
882520,-0.17585403,9.53739,-2.2992616,0.57164997,-0.33536798,-1.3948259,89.100006,-162.90001,-29.7,,,,,,
882540,-0.19918162,9.392639,-2.4858823,0.503052,-0.19055,-1.699706,84.3,-167.70001,-27.300001,,,,,,
882560,-0.037683006,9.375891,-2.5080135,0.594516,-0.213416,-1.6311079,96.3,-172.5,-29.1,,,,,,
882580,0.07835673,9.326843,-2.455975,0.373478,0.11432999,-1.288118,93.9,-170.1,-27.300001,,,,,,
882600,0.35230622,9.603186,-2.497247,0.289636,0.312502,-0.91463995,96.3,-170.1,-26.1,,,,,,
882620,0.3911855,9.307105,-2.2472231,-0.358234,0.716468,-0.731712,93.9,-170.1,-27.300001,,,,,,
882684,0.39597064,9.182093,-2.171857,-0.33536798,0.99086,-0.518296,98.700005,-167.70001,-27.300001,,,,,,
882714,0.48688838,8.973341,-2.0306954,-0.708846,0.785066,-1.211898,96.3,-165.3,-28.500002,,,,,,
882777,0.3660635,8.838758,-2.3327575,-0.083841994,0.899396,-1.577754,105.9,-167.70001,-28.500002,,,,,,
882818,0.4133168,9.226356,-2.6808767,0.442076,0.731712,-1.554888,101.100006,-162.90001,-29.1,,,,,,
882838,0.20396675,8.812441,-2.6413994,0.07622,0.769822,-1.577754,105.9,-160.5,-27.300001,,,,,,
882858,0.21114446,9.409986,-3.0439496,0.320124,0.739334,-1.29574,101.100006,-165.3,-27.900002,,,,,,
882905,0.33914706,9.347778,-3.0529218,0.03811,0.47256398,-2.080806,108.3,-160.5,-27.900002,,,,,,
882925,0.50363636,9.401611,-3.1486247,-0.068598,0.853664,-1.989342,113.100006,-153.3,-26.7,,,,,,
882945,0.48808467,8.906349,-3.217411,-0.007622,1.25763,-1.684462,110.700005,-160.5,-27.300001,,,,,,
882967,0.5096178,8.9787245,-3.2867956,0.099086,1.3872039,-1.471046,108.3,-160.5,-28.500002,,,,,,
882987,0.60173184,9.172523,-3.460257,0.259148,1.493912,-1.211898,110.700005,-165.3,-27.300001,,,,,,
883009,0.9863378,9.264636,-3.794021,0.525918,1.33385,-0.82317597,115.50001,-158.1,-26.1,,,,,,
883071,1.3464198,9.360339,-3.8508444,0.70122397,0.868908,-0.365856,117.9,-162.90001,-26.1,,,,,,
883092,1.3751307,8.923097,-3.5846708,0.213416,0.632626,-0.594516,115.50001,-162.90001,-26.1,,,,,,
883112,1.4911704,8.878236,-3.609793,-0.15244,0.594516,-0.525918,113.100006,-155.70001,-25.500002,,,,,,
883132,1.5617512,8.4278345,-3.4668367,-0.442076,0.548784,-0.663114,117.9,-158.1,-26.7,,,,,,
883152,1.644295,8.261551,-3.3795078,-0.26677,0.41158798,-0.525918,115.50001,-162.90001,-24.900002,,,,,,
883172,1.673604,7.8631873,-3.2987585,-0.40396598,0.510674,-0.67835796,115.50001,-158.1,-24.900002,,,,,,
883193,1.8404859,8.073734,-3.3603673,-0.030488,0.40396598,-0.47256398,108.3,-165.3,-23.7,,,,,,
883213,2.1539128,8.418862,-3.460257,0.213416,0.28201398,-0.442076,108.3,-160.5,-25.500002,,,,,,
883235,2.162885,8.162259,-3.363956,0.007622,0.259148,-0.49543,115.50001,-160.5,-25.500002,,,,,,
883256,2.2932801,8.478079,-3.3711338,0.28201398,0.45731997,-0.23628199,115.50001,-162.90001,-25.500002,,,,,,
883276,2.313617,8.691017,-3.4758089,0.320124,0.525918,-0.34298998,115.50001,-158.1,-26.1,,,,,,
883297,2.1066597,8.781337,-3.4943511,0.327746,0.41158798,-1.18141,117.9,-160.5,-24.900002,,,,,,
883317,2.196979,9.7670765,-3.9268086,0.81555396,0.388722,-1.3414719,117.9,-155.70001,-26.1,,,,,,
883338,1.7065018,8.755018,-3.5332305,-0.20579399,-0.617382,-2.8048959,120.3,-155.70001,-26.7,,,,,,
883358,1.1747528,7.854215,-3.258683,0.0,-0.55640596,-2.309466,120.3,-155.70001,-24.300001,,,,,,
883380,0.7943339,8.406899,-3.3250768,0.07622,-0.396344,-1.661596,122.700005,-158.1,-24.900002,,,,,,
883400,0.48928094,9.512268,-3.6247463,0.22865999,-0.198172,-1.173788,127.50001,-162.90001,-23.7,,,,,,
883420,0.11304902,10.090672,-3.5595489,-0.259148,-0.655492,-1.432936,125.100006,-155.70001,-24.900002,,,,,,
883440,-0.13338588,10.47468,-3.5368195,-0.396344,-0.548784,-1.554888,127.50001,-160.5,-25.500002,,,,,,
883460,-0.9450659,9.4321165,-2.8758714,-1.310984,-0.617382,-2.652456,127.50001,-150.90001,-23.1,,,,,,
883480,-1.1849213,9.524231,-2.7012136,-0.998482,-0.11432999,-1.8292799,132.3,-150.90001,-24.300001,,,,,,
883500,-1.1466401,9.654028,-2.5474908,-1.455802,0.35061198,-1.821658,137.1,-155.70001,-24.900002,,,,,,
883520,-1.7100908,8.705373,-2.4781063,-1.8902559,0.739334,-2.13416,134.70001,-158.1,-25.500002,,,,,,
883540,-2.2035587,8.037846,-2.647979,-0.92988396,0.663114,-1.8673899,139.5,-155.70001,-26.1,,,,,,
883560,-1.9989938,8.186783,-2.7251394,0.373478,-0.259148,-0.47256398,137.1,-155.70001,-26.7,,,,,,
883581,-1.8835522,8.282486,-2.7478688,0.541162,-0.434454,-0.46494198,139.5,-158.1,-24.900002,,,,,,
883601,-1.4989463,8.717934,-2.8298144,0.792688,-0.785066,-0.434454,134.70001,-155.70001,-23.7,,,,,,
883621,-0.90977544,9.455444,-3.0636883,0.586894,-0.998482,-0.69360197,139.5,-153.3,-24.300001,,,,,,
883641,-0.5419175,9.167737,-2.899199,-0.182928,-1.1280559,-1.478668,141.90001,-150.90001,-24.300001,,,,,,
883664,-0.35589507,9.06067,-3.087614,-0.442076,-0.16768399,-1.21952,139.5,-153.3,-25.500002,,,,,,
883684,-0.39716694,9.4105835,-3.2215981,-0.41158798,0.03811,-1.227142,144.3,-158.1,-25.500002,,,,,,
883704,-0.669322,9.540978,-3.496744,-0.30488,0.11432999,-2.118916,141.90001,-150.90001,-25.500002,,,,,,
883724,-0.54789895,9.625317,-3.242533,-0.327746,-0.121952,-2.2637339,149.1,-150.90001,-24.300001,,,,,,
883744,-0.80988556,9.040931,-3.263468,-1.059458,0.07622,-2.492394,149.1,-153.3,-24.300001,,,,,,
883764,-1.1735566,8.177213,-3.142045,-0.891774,0.23628199,-1.928366,149.1,-155.70001,-25.500002,,,,,,
883788,-1.2937832,8.861488,-3.5416045,-0.129574,0.19055,-0.846042,149.1,-143.70001,-27.900002,,,,,,
883808,-1.321896,8.723317,-3.5535674,-0.251526,-0.045732,-0.434454,151.5,-150.90001,-25.500002,,,,,,
883828,-0.90798104,9.188672,-3.451285,0.106708,-0.3811,0.312502,146.70001,-143.70001,-25.500002,,,,,,
883850,-0.58378756,8.858498,-3.128886,-0.69360197,-0.17530599,0.594516,146.70001,-153.3,-24.900002,,,,,,
883870,-0.42408335,8.719728,-3.1217082,-0.94512796,0.26677,0.967994,146.70001,-146.1,-26.7,,,,,,
883890,-0.27993092,8.770571,-3.033781,-0.731712,0.47256398,1.1356779,146.70001,-146.1,-26.1,,,,,,
883913,-0.011962859,9.31488,-3.0511272,-0.510674,0.548784,0.884152,149.1,-146.1,-26.1,,,,,,
883933,-0.03409415,9.399219,-2.9757612,-0.442076,0.41158798,0.388722,139.5,-155.70001,-27.300001,,,,,,
883973,-0.17226517,9.014014,-2.8836472,-0.312502,0.251526,0.007622,151.5,-150.90001,-27.900002,,,,,,
883993,-0.20695747,9.0654545,-2.882451,-0.22865999,0.243904,0.15244,144.3,-148.5,-26.1,,,,,,
884013,-0.16090046,9.115101,-2.894414,-0.20579399,0.160062,0.17530599,139.5,-150.90001,-26.7,,,,,,
884033,-0.09570287,8.91891,-2.802898,-0.30488,0.17530599,0.106708,141.90001,-148.5,-25.500002,,,,,,
884055,0.0071777157,8.927882,-2.773589,-0.20579399,0.26677,0.15244,144.3,-150.90001,-24.900002,,,,,,
884076,0.032897864,9.04751,-2.8316088,-0.121952,0.358234,0.060976,141.90001,-150.90001,-27.300001,,,,,,
884096,-0.0765623,9.059473,-2.9350874,-0.07622,0.320124,-0.17530599,141.90001,-153.3,-25.500002,,,,,,
884118,-0.1447506,8.99607,-2.9021897,0.007622,0.221038,-0.35061198,151.5,-158.1,-26.1,,,,,,
884138,-0.17764847,8.900966,-2.9374802,0.022866,0.20579399,-0.487808,144.3,-153.3,-26.1,,,,,,
884158,-0.24164976,9.12168,-3.1139324,0.144818,0.251526,-0.449698,146.70001,-153.3,-25.500002,,,,,,
884241,-0.3744375,9.045118,-3.2646644,0.015244,-0.182928,-0.297258,141.90001,-148.5,-25.500002,,,,,,
884276,-0.44800907,8.936256,-3.2269814,-0.198172,-0.099086,-0.259148,139.5,-150.90001,-26.7,,,,,,
884297,-0.46236452,8.929676,-3.2538977,-0.213416,-0.068598,-0.251526,146.70001,-160.5,-25.500002,,,,,,
884338,-0.38879293,9.069044,-3.2269814,-0.160062,-0.030488,-0.289636,146.70001,-146.1,-27.300001,,,,,,
884361,-0.3355582,9.095961,-3.1695597,-0.221038,0.060976,-0.320124,146.70001,-155.70001,-25.500002,,,,,,
884381,-0.3343619,8.9865,-3.1725502,-0.53354,0.137196,-0.327746,146.70001,-150.90001,-24.900002,,,,,,
884401,-0.35529694,8.774159,-3.1522136,-0.503052,0.221038,-0.28201398,149.1,-153.3,-24.300001,,,,,,
884422,-0.39597064,8.852516,-3.2939734,-0.243904,0.312502,-0.15244,146.70001,-153.3,-26.1,,,,,,
884442,-0.27454764,9.025379,-3.3902743,-0.121952,0.243904,-0.106708,149.1,-146.1,-26.7,,,,,,
884464,-0.07835673,8.913527,-3.317301,-0.30488,0.144818,-0.22865999,153.90001,-148.5,-26.7,,,,,,
884484,0.079553016,8.720924,-3.2335608,-0.55640596,0.28201398,-0.221038,146.70001,-143.70001,-26.7,,,,,,
884504,0.11903045,8.798085,-3.4142,-0.625004,0.57164997,-0.297258,141.90001,-155.70001,-25.500002,,,,,,
884526,0.20277047,8.9356575,-3.5386138,-0.861286,0.68597996,-0.68597996,149.1,-150.90001,-27.300001,,,,,,
884546,0.577208,9.150392,-3.8053856,-0.92226195,0.60976,-1.25763,151.5,-148.5,-26.1,,,,,,
884566,0.89183116,8.704177,-3.794021,-1.532022,0.777444,-1.577754,151.5,-155.70001,-27.300001,,,,,,
884586,0.9953099,8.125772,-3.899892,-1.996964,1.554888,-1.699706,151.5,-148.5,-27.300001,x,,,,,
884610,1.1107515,8.347085,-4.504615,-2.2865999,2.088428,-1.493912,151.5,-150.90001,-29.1,x,,,,,
884630,1.121518,8.805263,-4.827612,-2.195136,2.568614,-2.2027578,156.3,-148.5,-26.1,x,,,,,
884650,1.0981905,8.625221,-4.8958,-2.865872,2.964958,-2.980202,156.3,-150.90001,-27.300001,x,,,,,
884670,1.4947593,8.576174,-5.030382,-3.8186219,4.169234,-3.50612,151.5,-146.1,-26.7,x,,,,,
884691,1.53962,8.321365,-5.23076,-4.108258,5.510706,-3.8262439,158.70001,-143.70001,-27.900002,x,,,,,
884754,1.5174887,7.2590632,-4.87008,-6.196686,8.704324,-6.143332,168.3,-146.1,-27.300001,x,,,,,
884777,1.6628375,6.439607,-4.732507,-6.51681,9.306461,-6.730226,170.70001,-138.90001,-27.900002,x,,,,,
884797,1.3948694,5.803781,-4.664319,-7.027484,10.36592,-7.3171196,177.90001,-143.70001,-29.7,x,,,,,
884817,1.004282,5.2223864,-4.659534,-7.248522,10.525982,-8.247004,185.1,-129.3,-29.1,x,,,,,
884837,0.5359361,4.52555,-4.3144054,-7.446694,9.695184,-9.512256,185.1,-134.1,-30.900002,x,,,,,
884858,-1.0766573,3.0463421,-2.1903996,-6.394858,7.6219997,-10.533604,201.90001,-124.50001,-30.900002,x,,,,,
884878,-1.7800735,5.5615335,-1.3565882,-5.44973,8.04121,-8.483286,209.1,-122.100006,-30.900002,x,,,,,
884898,-3.5398102,6.396541,-0.9977025,-7.057972,8.658592,-11.173852,218.70001,-122.100006,-30.900002,x,,,,,
884918,-5.2439194,6.201546,0.41570938,-4.740884,6.8674216,-11.39489,223.50002,-112.50001,-30.300001,x,,,,,
884939,-5.2642565,8.075528,1.0443577,-5.960404,8.948228,-9.687562,230.70001,-107.700005,-31.500002,x,,,,,
885000,-7.1382384,11.1924515,1.4373375,-2.469528,6.996996,-6.5244317,242.70001,-98.100006,-27.900002,x,,,,,
885022,-8.233438,11.348567,0.5987411,-1.661596,6.227174,-6.150954,254.70001,-90.9,-27.900002,x,,,,,
885042,-8.241214,12.424027,1.16279,-0.69360197,1.71495,-3.2469718,254.70001,-93.3,-27.300001,x,,,,,
885062,-7.8338785,13.311672,1.3715419,-0.67835796,0.861286,-2.111294,254.70001,-90.9,-26.7,x,,,,,
885082,-9.083399,12.906131,1.3667567,-0.045732,-1.227142,-1.75306,266.7,-86.100006,-28.500002,x,,,,,
885123,-8.8166275,14.137109,1.9236279,0.846042,-3.54423,0.95274997,257.1,-81.3,-29.1,x,,,,,
885143,-8.88661,14.540855,1.7507645,1.044214,-4.0777698,1.8521459,259.5,-81.3,-28.500002,x,,,,,
885163,-9.013416,13.484535,1.6682208,1.6158639,-4.794238,2.500016,254.70001,-86.100006,-29.1,x,,,,,
885203,-9.457238,11.290546,0.96241206,2.85825,-7.3628516,5.625036,249.90001,-95.700005,-30.900002,x,,,,,
885293,-4.6236453,8.183194,-0.59754485,5.94516,-10.205858,9.71805,233.1,-117.3,-32.7,x,,,,,
885313,-3.5254548,8.105435,-1.0491427,6.158576,-10.091528,9.489389,218.70001,-126.9,-31.500002,x,,,,,
885357,-2.6336236,7.0389466,-2.3441224,5.0686297,-7.4695597,5.846074,206.70001,-131.70001,-32.100002,x,,,,,
885377,-2.2992616,6.4246535,-3.1067545,5.571682,-6.692116,4.8857017,204.3,-131.70001,-32.100002,x,,,,,
885397,-1.5324423,6.64477,-3.025407,5.320156,-7.835416,5.320156,192.3,-134.1,-32.100002,x,,,,,
885421,-0.9211402,6.5568433,-2.8483567,4.5884438,-6.577786,4.5427117,187.5,-136.5,-33.300003,x,,,,,
885441,-0.6782941,6.387569,-3.3023474,5.0228977,-5.343022,4.245454,189.90001,-134.1,-31.500002,x,,,,,
885463,-0.105273165,6.702192,-3.1737466,4.260698,-5.03052,4.634176,182.70001,-143.70001,-31.500002,x,,,,,
885485,0.09869359,6.8553166,-3.309525,3.117398,-2.560992,3.833866,175.5,-141.3,-32.100002,x,,,,,
885505,0.15970418,7.278802,-3.551773,2.873494,-1.94361,3.513742,175.5,-138.90001,-30.300001,x,,,,,
885525,0.27215505,7.806962,-3.5206695,2.378064,-1.471046,2.660078,170.70001,-141.3,-29.7,x,,,,,
885545,0.36068022,7.752531,-3.698318,1.8902559,-0.907018,1.471046,168.3,-143.70001,-31.500002,x,,,,,
885567,0.39836323,7.5485644,-3.7647119,2.073184,-0.541162,0.785066,168.3,-141.3,-29.1,x,,,,,
885587,0.4360462,7.4875536,-3.7348046,1.989342,-0.388722,0.907018,168.3,-148.5,-30.300001,x,,,,,
885607,0.2841179,7.9553013,-4.1331677,1.8369019,0.121952,1.303362,168.3,-143.70001,-30.900002,x,,,,,
885631,0.099889874,7.9660683,-4.3784065,1.8750119,-0.34298998,1.013726,158.70001,-148.5,-30.300001,x,,,,,
885651,0.34692293,8.240018,-4.2862926,2.378064,-0.72409,1.303362,163.5,-153.3,-29.7,x,,,,,
885671,0.46475708,9.1192875,-4.459754,1.288118,0.243904,0.91463995,161.1,-150.90001,-29.1,x,,,,,
885691,0.45877567,9.015211,-4.435828,1.265252,0.17530599,0.3811,161.1,-148.5,-27.900002,x,,,,,
885711,0.19080761,8.723317,-3.953725,0.792688,-0.289636,-0.091464,163.5,-143.70001,-26.1,x,,,,,
885731,-0.14833945,8.406899,-3.6618314,-0.41158798,0.57164997,-0.30488,165.90001,-146.1,-27.900002,,,,,,
885751,-0.23507018,8.86089,-3.823928,0.022866,0.891774,0.274392,158.70001,-148.5,-27.300001,,,,,,
885774,-0.2075556,9.287366,-3.3854892,-0.365856,0.625004,-0.426832,165.90001,-150.90001,-29.7,,,,,,
885794,-0.3355582,9.301722,-3.3232822,-0.099086,0.7622,-0.594516,161.1,-148.5,-28.500002,,,,,,
885814,-0.46714967,9.444677,-3.2066445,-0.144818,0.69360197,-0.884152,158.70001,-146.1,-28.500002,,,,,,
885836,-0.4498035,9.007435,-2.978154,-0.396344,0.846042,-1.021348,161.1,-150.90001,-26.7,,,,,,
885856,-0.60651696,8.823207,-2.970378,-0.30488,1.1128119,-0.785066,158.70001,-146.1,-27.900002,,,,,,
885899,-0.7919413,9.01222,-3.2198036,0.007622,1.478668,-0.47256398,158.70001,-143.70001,-26.7,,,,,,
885919,-0.773997,8.93805,-3.279618,0.07622,1.417692,-0.525918,158.70001,-148.5,-27.300001,,,,,,
885941,-0.7129864,8.880031,-3.2688513,0.17530599,1.3719599,-0.449698,156.3,-146.1,-28.500002,,,,,,
885961,-0.7686137,8.952406,-3.3089268,0.182928,1.4024479,-0.312502,156.3,-146.1,-26.7,,,,,,
885981,-0.77280074,8.984706,-3.325675,0.121952,1.3795819,-0.23628199,161.1,-143.70001,-26.7,,,,,,
886003,-0.82902616,9.081605,-3.296366,-0.030488,1.250008,-0.358234,165.90001,-146.1,-24.300001,,,,,,
886023,-0.8278299,8.963172,-3.158793,-0.15244,1.1051899,-0.46494198,163.5,-143.70001,-24.900002,,,,,,
886045,-0.81168,8.850123,-3.0726604,-0.129574,1.1128119,-0.41158798,163.5,-146.1,-25.500002,,,,,,
886065,-0.84517604,8.813637,-3.0642865,-0.137196,1.1051899,-0.243904,161.1,-148.5,-26.1,,,,,,
886085,-0.75366014,8.811842,-2.9685836,0.060976,0.87653,0.0,168.3,-146.1,-27.300001,,,,,,
886105,-0.69085515,9.0110235,-2.9512374,0.251526,0.716468,0.060976,161.1,-146.1,-24.900002,,,,,,
886145,-0.69982725,8.75442,-2.97935,0.3811,0.480186,-0.068598,163.5,-143.70001,-26.7,,,,,,
886165,-0.64360183,9.131848,-3.0684733,0.632626,0.30488,0.129574,158.70001,-153.3,-25.500002,,,,,,
886185,-0.6292464,9.176709,-3.1635783,0.160062,0.137196,-0.053354,163.5,-146.1,-26.1,,,,,,
886207,-0.6872663,8.905152,-3.1312785,0.07622,0.099086,-0.060976,161.1,-146.1,-25.500002,,,,,,
886227,-0.7297344,8.939845,-3.2820106,0.121952,0.091464,0.0,161.1,-143.70001,-25.500002,,,,,,
886249,-0.7716044,8.711354,-3.2317665,0.015244,-0.03811,0.083841994,153.90001,-146.1,-24.300001,,,,,,
886269,-0.66752756,9.157569,-3.3065343,0.312502,-0.16768399,0.121952,161.1,-146.1,-23.1,,,,,,
886289,-0.62027425,9.07981,-3.2395422,-0.07622,-0.23628199,-0.243904,161.1,-148.5,-24.300001,,,,,,
886312,-0.719566,8.723317,-3.196476,-0.26677,-0.106708,-0.487808,163.5,-143.70001,-26.1,,,,,,
886332,-0.7901469,8.824403,-3.1773355,-0.11432999,0.03811,-0.426832,156.3,-143.70001,-24.900002,,,,,,
886355,-0.8433816,8.954799,-3.276029,-0.068598,0.106708,-0.53354,156.3,-148.5,-23.7,,,,,,
886376,-0.9271216,8.983509,-3.200065,-0.083841994,0.144818,-0.586894,161.1,-148.5,-24.300001,,,,,,
886396,-0.9941136,8.9865,-3.2574866,-0.182928,0.182928,-0.602138,158.70001,-143.70001,-26.1,,,,,,
886418,-0.9229346,8.993678,-3.1534097,-0.213416,0.121952,-0.503052,163.5,-141.3,-24.300001,,,,,,
886438,-1.0593112,8.966163,-3.2162147,-0.259148,0.129574,-0.46494198,161.1,-143.70001,-24.300001,,,,,,
886458,-1.0407687,9.020595,-3.2395422,-0.099086,0.015244,-0.373478,161.1,-148.5,-24.300001,,,,,,
886478,-0.9049903,9.128858,-3.175541,-0.11432999,0.060976,-0.28201398,165.90001,-143.70001,-26.1,,,,,,
886501,-0.9002052,8.9356575,-3.1869059,-0.47256398,0.327746,-0.259148,163.5,-143.70001,-24.900002,,,,,,
886521,-0.7925394,9.100147,-3.1725502,-0.30488,0.33536798,-0.15244,165.90001,-141.3,-24.900002,,,,,,
886541,-0.6591536,9.1294565,-3.0295942,-0.3811,0.388722,-0.23628199,163.5,-141.3,-25.500002,,,,,,
886561,-0.63522786,9.049305,-3.0248091,-0.777444,0.7622,-0.327746,158.70001,-148.5,-27.300001,,,,,,
886625,-0.7099957,8.917115,-3.0864177,-0.739334,0.92226195,-0.57164997,161.1,-146.1,-26.1,,,,,,
886647,-0.87747574,8.702382,-3.1139324,-0.60976,0.68597996,-0.69360197,163.5,-143.70001,-23.7,,,,,,
886667,-0.84039086,8.729299,-3.0840251,-0.320124,0.396344,-0.548784,168.3,-146.1,-24.900002,,,,,,
886687,-0.8140726,8.954201,-3.099577,-0.160062,0.373478,-0.47256398,168.3,-143.70001,-26.1,,,,,,
886708,-0.9378882,8.761,-3.0900066,-0.17530599,0.17530599,-0.655492,165.90001,-146.1,-24.900002,,,,,,
886728,-0.81048375,9.081007,-3.1653726,0.121952,0.17530599,-0.708846,161.1,-146.1,-25.500002,,,,,,
886748,-0.86371845,9.014613,-3.1516154,-0.243904,0.23628199,-0.830798,168.3,-138.90001,-24.300001,,,,,,
886768,-0.89422375,9.069044,-3.3077307,-0.07622,0.373478,-0.792688,165.90001,-150.90001,-26.1,,,,,,
886788,-0.93071043,8.876442,-3.2987585,-0.068598,0.312502,-0.80030996,163.5,-143.70001,-24.300001,,,,,,
886808,-0.9229346,8.903358,-3.3573766,0.099086,0.297258,-0.56402797,168.3,-138.90001,-23.7,,,,,,
886830,-0.8511574,9.056482,-3.3777134,0.106708,0.22865999,-0.449698,173.1,-143.70001,-26.1,,,,,,
886850,-0.8589333,8.963771,-3.3358433,-0.11432999,0.16768399,-0.548784,165.90001,-143.70001,-25.500002,,,,,,
886892,-0.840989,8.784925,-3.3448155,-0.41921,0.129574,-0.34298998,163.5,-141.3,-23.1,,,,,,
886918,-0.80510044,8.824403,-3.3322544,-0.503052,0.099086,-0.289636,170.70001,-136.5,-26.7,,,,,,
886938,-0.8272317,8.662905,-3.3478062,-0.487808,0.068598,-0.396344,168.3,-141.3,-25.500002,x,,,,,
886980,-0.40972793,8.907545,-3.7467675,-0.632626,0.510674,-0.35061198,170.70001,-141.3,-24.900002,x,,,,,
887000,-0.053832866,9.061268,-4.229469,-1.21952,1.44818,-0.373478,168.3,-141.3,-25.500002,x,,,,,
887020,-0.029907148,8.7627945,-5.0429435,-2.164648,3.58234,-0.99086,165.90001,-141.3,-26.1,x,,,,,
887040,-0.111254595,8.179007,-6.2428184,-1.79117,5.3963757,-1.692084,163.5,-141.3,-26.7,x,,,,,
887061,0.3355582,7.8913,-6.702192,-2.370442,3.170752,-1.554888,168.3,-143.70001,-27.300001,x,,,,,
887081,0.5401231,7.333831,-5.282799,-3.064044,2.2713559,-1.227142,165.90001,-136.5,-25.500002,x,,,,,
887101,1.1741546,8.302822,-5.067467,-3.056422,3.7881339,-0.899396,168.3,-136.5,-25.500002,x,,,,,
887121,1.8500562,8.977528,-4.4286504,-4.275942,4.68753,-1.920744,177.90001,-138.90001,-26.1,x,,,,,
887141,2.0785468,8.541482,-3.731216,-6.0137577,7.042728,-4.0015497,173.1,-138.90001,-28.500002,x,,,,,
887163,1.7716994,7.730998,-3.8460593,-6.798824,9.009204,-5.571682,175.5,-138.90001,-27.300001,x,,,,,
887183,1.6257526,6.815241,-3.5374177,-6.791202,8.887252,-6.654006,180.3,-136.5,-29.7,x,,,,,
887203,1.4522911,5.458653,-2.8770678,-6.4939437,8.468041,-7.50767,187.5,-131.70001,-27.300001,x,,,,,
887223,1.3039516,4.1433363,-2.380609,-6.150954,8.300358,-7.8277936,189.90001,-131.70001,-28.500002,x,,,,,
887243,1.0353855,3.283805,-2.301654,-5.762232,9.10829,-7.614378,197.1,-124.50001,-27.900002,x,,,,,
887263,0.41092423,3.8592184,-2.7783742,-4.53509,9.420792,-7.233278,199.50002,-124.50001,-27.900002,x,,,,,
887284,-0.24045348,4.8898187,-3.0935955,-3.2393498,8.19365,-7.8430376,206.70001,-124.50001,-27.900002,x,,,,,
887304,-1.405636,5.2552843,-2.6144829,-2.59148,6.036624,-8.72719,211.50002,-122.100006,-28.500002,x,,,,,
887344,-3.5487823,7.1519957,-0.58797455,-3.605206,4.009172,-6.4177237,221.1,-117.3,-27.300001,x,,,,,
887364,-5.0315785,10.052989,0.045458864,-3.3079479,5.0076537,-5.4725957,225.90001,-107.700005,-27.900002,x,,,,,
887384,-7.290765,11.410175,-0.13577846,-4.76375,6.981752,-7.629622,228.3,-110.100006,-26.1,x,,,,,
887426,-7.09577,11.82409,0.18123733,-1.425314,4.817104,-5.670768,237.90001,-90.9,-25.500002,x,,,,,
887455,-8.590529,13.163332,0.38520408,-0.861286,2.080806,-5.251558,240.3,-98.100006,-25.500002,x,,,,,
887475,-9.633093,13.259633,0.16867632,-1.18141,-0.617382,-5.114362,247.50002,-86.100006,-26.1,x,,,,,
887517,-10.273704,14.168811,0.5873764,-0.594516,-4.870458,-1.3567159,254.70001,-86.100006,-26.7,x,,,,,
887537,-10.061961,14.735252,0.79792273,-0.67073596,-6.1052217,0.083841994,259.5,-83.700005,-29.1,x,,,,,
887557,-10.079308,13.7842045,1.2124358,0.198172,-6.5549197,0.632626,252.3,-86.100006,-30.900002,x,,,,,
887579,-9.211402,13.150771,1.5725179,0.91463995,-6.6158957,3.071666,259.5,-86.100006,-30.900002,x,,,,,
887641,-8.399123,10.895772,0.06938458,3.025934,-5.731744,6.93602,247.50002,-100.50001,-30.300001,x,,,,,
887661,-7.439104,9.41477,-0.42767224,3.910086,-6.5854077,7.5915117,240.3,-102.9,-32.7,x,,,,,
887681,-6.4336257,8.680849,-1.1705658,4.298808,-7.01224,8.285114,235.50002,-110.100006,-30.900002,x,,,,,
887701,-5.3850813,8.003153,-1.9320018,4.489358,-7.416206,8.186028,228.3,-112.50001,-32.100002,x,,,,,
887721,-4.3568735,7.0987606,-2.234662,4.61131,-8.292736,7.77444,225.90001,-119.700005,-32.7,x,,,,,
887761,-2.5839777,5.722434,-2.9853315,5.266802,-8.132674,7.3476076,211.50002,-119.700005,-33.9,x,,,,,
887781,-1.0898165,6.5753856,-2.664727,4.824726,-8.140296,6.9588857,201.90001,-126.9,-31.500002,x,,,,,
887801,-0.9576269,6.279305,-2.828618,4.565578,-7.134192,5.8613176,199.50002,-131.70001,-30.900002,x,,,,,
887821,-0.732127,5.6231422,-3.3077307,5.5030837,-6.0442457,4.253076,194.70001,-134.1,-33.300003,x,,,,,
887841,-0.46535522,5.0895987,-3.4088168,5.8765616,-6.280528,3.955818,192.3,-134.1,-32.100002,x,,,,,
887861,-0.09450659,4.973559,-3.5595489,6.5701637,-5.8918056,4.626554,189.90001,-129.3,-30.300001,x,,,,,
887885,0.9492529,7.0443296,-3.443509,6.318638,-5.663146,5.86894,182.70001,-146.1,-29.7,x,,,,,
887905,1.1113496,7.542583,-3.6905422,5.5335717,-4.489358,4.83997,177.90001,-143.70001,-29.1,x,,,,,
887926,1.2578946,7.4361134,-3.9489398,5.045764,-3.955818,3.7042918,175.5,-136.5,-30.300001,x,,,,,
887946,1.5324423,7.6215377,-4.0691667,4.64942,-3.589962,3.62045,173.1,-146.1,-27.900002,x,,,,,
887966,1.3302699,7.3900566,-3.970473,3.1936178,-2.583858,3.1783738,168.3,-143.70001,-28.500002,x,,,,,
887986,0.9953099,7.3912525,-4.404725,2.652456,-1.6082419,2.865872,165.90001,-146.1,-27.900002,x,,,,,
888007,0.75605273,8.098258,-4.7845454,2.865872,-1.310984,2.560992,165.90001,-148.5,-26.1,x,,,,,
888027,0.72435117,8.7627945,-4.685852,1.9054999,-1.280496,0.708846,165.90001,-146.1,-26.1,x,,,,,
888047,0.76083785,8.729299,-4.471717,1.585376,-1.234764,0.007622,163.5,-143.70001,-27.900002,x,,,,,
888069,0.8421853,8.801076,-4.179823,0.975616,-0.373478,-0.81555396,161.1,-146.1,-26.1,x,,,,,
888089,0.27873462,8.694008,-4.07455,0.091464,0.708846,-1.3719599,165.90001,-148.5,-26.1,x,,,,,
888109,-0.24404234,8.512173,-4.2767224,-0.099086,1.425314,-1.585376,158.70001,-148.5,-26.7,x,,,,,
888131,-0.3786245,8.7304945,-3.9064717,0.69360197,1.044214,-1.074702,170.70001,-146.1,-26.1,x,,,,,
888151,-0.6041244,8.948219,-3.6791775,0.46494198,1.250008,-1.02897,168.3,-148.5,-24.300001,,,,,,
888171,-0.83082056,9.004444,-3.715066,0.11432999,1.501534,-1.150922,165.90001,-146.1,-23.7,,,,,,
888193,-0.96241206,8.831581,-3.7467675,-0.106708,1.471046,-1.25763,163.5,-141.3,-26.7,,,,,,
888213,-1.0425632,8.694008,-3.6187649,-0.137196,1.1204339,-0.975616,168.3,-148.5,-24.900002,,,,,,
888233,-1.1789398,8.755018,-3.5218658,-0.15244,0.884152,-0.655492,163.5,-143.70001,-24.900002,,,,,,
888253,-1.1753509,8.90276,-3.443509,-0.137196,0.640248,-0.53354,168.3,-146.1,-25.500002,,,,,,
888273,-1.1496308,8.921901,-3.299955,-0.22865999,0.548784,-0.579272,163.5,-141.3,-26.1,,,,,,
888293,-1.1771454,9.082203,-3.3298619,-0.442076,0.708846,-0.57164997,168.3,-138.90001,-24.300001,,,,,,
888313,-1.2238005,8.830983,-3.3322544,-0.426832,0.739334,-0.777444,170.70001,-143.70001,-26.1,,,,,,
888333,-1.1986785,8.941041,-3.209037,-0.137196,0.67835796,-0.480186,165.90001,-143.70001,-26.7,,,,,,
888353,-1.1663787,9.02837,-3.1145306,-0.274392,0.853664,-0.358234,170.70001,-141.3,-25.500002,,,,,,
888373,-1.108957,8.973341,-3.176139,-0.34298998,1.25763,-0.198172,163.5,-143.70001,-24.900002,,,,,,
888393,-1.1017793,8.855507,-3.154008,-0.297258,1.250008,-0.060976,168.3,-146.1,-25.500002,,,,,,
888413,-1.0664889,8.91891,-3.1599894,-0.35061198,1.204276,0.129574,168.3,-143.70001,-25.500002,,,,,,
888433,-1.1861175,8.716738,-3.241935,-0.53354,1.036592,0.053354,168.3,-138.90001,-24.300001,,,,,,
888453,-1.2441374,8.853114,-3.3113196,0.030488,0.64787,0.121952,168.3,-141.3,-24.300001,,,,,,
888475,-1.150229,8.707766,-3.2544959,0.091464,0.320124,0.030488,165.90001,-141.3,-23.1,,,,,,
888496,-1.0814425,8.927882,-3.2855992,0.251526,0.26677,0.083841994,168.3,-143.70001,-24.300001,,,,,,
888516,-1.0922091,8.890199,-3.376517,0.045732,0.312502,-0.144818,165.90001,-138.90001,-24.300001,,,,,,
888538,-1.2543058,8.746046,-3.560745,0.17530599,0.365856,-0.19055,170.70001,-143.70001,-23.7,,,,,,
888558,-1.271652,8.60967,-3.6032133,0.23628199,0.251526,-0.160062,170.70001,-138.90001,-24.900002,,,,,,
888580,-1.2495207,8.728701,-3.552371,0.518296,0.03811,0.388722,165.90001,-138.90001,-21.900002,,,,,,
888604,-1.196286,8.987697,-3.560745,0.426832,0.022866,0.480186,170.70001,-146.1,-25.500002,,,,,,
888625,-1.2094451,9.0433235,-3.6534572,0.137196,0.068598,0.213416,170.70001,-143.70001,-24.300001,,,,,,
888646,-1.196286,8.841151,-3.6373074,-0.07622,0.0,0.030488,168.3,-143.70001,-23.1,,,,,,
888666,-1.0503391,8.953004,-3.610391,0.015244,0.03811,-0.091464,168.3,-138.90001,-23.1,,,,,,
888686,-0.9797582,8.826198,-3.4578645,-0.312502,0.251526,-0.274392,168.3,-138.90001,-23.7,,,,,,
888706,-1.000095,8.8256,-3.5254548,-0.434454,0.640248,-0.373478,168.3,-150.90001,-23.1,,,,,,
888727,-1.0802462,8.647353,-3.4865754,-0.480186,0.975616,-0.617382,168.3,-143.70001,-24.300001,,,,,,
888747,-1.1777436,8.599502,-3.5739043,-0.312502,1.1051899,-0.60976,165.90001,-146.1,-24.300001,,,,,,
888767,-1.2572966,8.534902,-3.6289334,-0.213416,1.1051899,-0.60976,168.3,-143.70001,-25.500002,,,,,,
888788,-1.3039516,8.604286,-3.5828764,0.47256398,0.72409,-0.274392,165.90001,-141.3,-24.300001,,,,,,
888828,-1.1496308,8.990687,-3.6719997,0.17530599,0.746956,-0.11432999,165.90001,-131.70001,-25.500002,,,,,,
888848,-1.3242885,8.742457,-3.770095,-0.16768399,0.663114,-0.358234,165.90001,-141.3,-24.300001,,,,,,
888872,-1.2333708,8.817225,-3.7186549,0.07622,0.297258,-0.22865999,168.3,-143.70001,-21.900002,,,,,,
888892,-1.1484345,8.752626,-3.6343167,-0.129574,0.20579399,-0.053354,165.90001,-146.1,-23.1,,,,,,
888912,-1.1364716,8.892591,-3.6755886,-0.289636,0.23628199,0.144818,165.90001,-146.1,-22.5,,,,,,
888932,-1.108957,8.979322,-3.6660182,-0.312502,0.182928,0.045732,168.3,-141.3,-22.5,,,,,,
888952,-1.0563204,8.924891,-3.6492703,-0.586894,0.129574,-0.16768399,165.90001,-141.3,-23.7,,,,,,
889016,-0.8756813,8.890797,-3.468631,-0.41158798,0.594516,-0.243904,170.70001,-141.3,-24.300001,,,,,,
889036,-0.8876442,8.842347,-3.5069122,-0.34298998,0.70122397,-0.602138,168.3,-134.1,-21.900002,,,,,,
889056,-0.9576269,8.666493,-3.4829865,-0.388722,0.80030996,-0.716468,165.90001,-141.3,-22.5,,,,,,
889079,-1.0634983,8.598904,-3.5870633,-0.259148,0.769822,-0.56402797,168.3,-141.3,-23.7,,,,,,
889100,-1.0814425,8.7950945,-3.5655303,-0.129574,0.602138,-0.30488,163.5,-143.70001,-23.1,,,,,,
889120,-1.1286958,8.732887,-3.5756986,-0.365856,0.49543,-0.274392,168.3,-136.5,-24.900002,,,,,,
889140,-1.0784518,8.707168,-3.5667264,-0.33536798,0.35061198,-0.243904,161.1,-141.3,-23.7,,,,,,
889161,-1.0557224,8.64197,-3.5451934,-0.22865999,0.243904,-0.26677,165.90001,-148.5,-23.7,,,,,,
889181,-0.99471176,8.726308,-3.5631378,-0.106708,0.160062,-0.16768399,161.1,-143.70001,-24.900002,,,,,,
889201,-0.9157569,8.788515,-3.5661285,-0.091464,0.182928,-0.17530599,170.70001,-143.70001,-22.5,,,,,,
889221,-0.8140726,8.847133,-3.65585,-0.182928,0.243904,-0.259148,161.1,-138.90001,-23.7,,,,,,
889241,-0.8056986,8.698195,-3.6785793,-0.274392,0.30488,-0.365856,161.1,-143.70001,-21.900002,,,,,,
889261,-0.5736191,8.844142,-3.8771627,-0.23628199,0.33536798,-0.449698,165.90001,-141.3,-23.1,,,,,,
889321,0.18662061,8.355459,-4.7743773,-1.6082419,1.8597679,-1.3643379,170.70001,-138.90001,-24.300001,x,,,,,
889345,0.3283805,7.8978796,-5.7098727,-1.242386,2.59148,-1.67684,165.90001,-134.1,-23.7,x,,,,,
889365,0.6304427,7.8506265,-5.8426604,-1.570132,1.821658,-0.87653,170.70001,-143.70001,-22.5,x,,,,,
889386,0.7309307,7.501311,-5.6201515,-2.347576,2.111294,-0.396344,168.3,-138.90001,-23.7,x,,,,,
889406,1.0132542,7.2399225,-5.5364113,-2.85825,2.347576,0.07622,163.5,-134.1,-24.300001,x,,,,,
889426,1.2638761,7.342205,-4.9269037,-3.88722,2.576236,0.045732,170.70001,-138.90001,-24.300001,x,,,,,
889447,1.4170007,7.957096,-4.6673098,-4.733262,3.92533,-1.082324,170.70001,-143.70001,-25.500002,x,,,,,
889467,1.6119953,8.544473,-4.6308227,-5.586926,4.984788,-3.1936178,175.5,-146.1,-23.7,x,,,,,
889487,1.5677327,7.4941335,-4.0727553,-6.768336,6.0290017,-6.333882,173.1,-136.5,-27.300001,x,,,,,
889507,1.1388642,5.919821,-4.087111,-7.218034,7.9954777,-8.19365,177.90001,-134.1,-25.500002,x,,,,,
889527,0.24882747,4.7630124,-4.0721574,-6.0976,9.237864,-9.047314,182.70001,-138.90001,-27.900002,x,,,,,
889547,-0.047253296,5.19547,-3.9926043,-4.5579557,9.60372,-8.07932,197.1,-129.3,-27.300001,x,,,,,
889567,-0.5347398,5.3282576,-3.673794,-5.0076537,10.259212,-8.704324,197.1,-126.9,-27.300001,x,,,,,
889587,-1.0814425,4.271937,-3.3783114,-5.464974,10.800374,-9.573232,199.50002,-124.50001,-26.1,x,,,,,
889607,-2.1222112,4.158888,-2.4200864,-4.26832,10.975679,-8.734812,206.70001,-122.100006,-26.7,x,,,,,
889627,-3.443509,5.7930145,-2.4918637,-3.6966698,11.006167,-7.881148,221.1,-112.50001,-25.500002,x,,,,,
889650,-4.204945,5.5705056,-2.0863228,-3.407034,9.992442,-8.010722,213.90001,-112.50001,-24.300001,x,,,,,
889670,-4.003371,7.4851613,-0.32538977,-1.928366,7.0351057,-4.519846,218.70001,-105.3,-24.900002,x,,,,,
889690,-5.083019,11.635077,1.2273893,-4.80186,9.786648,-2.675322,237.90001,-110.100006,-23.1,x,,,,,
889710,-8.367422,11.193647,-1.8147658,-2.2561119,12.317152,-7.210412,228.3,-100.50001,-21.900002,x,,,,,
889734,-7.4528613,11.637469,-0.6262557,0.503052,2.97258,-2.2408679,230.70001,-102.9,-21.300001,x,,,,,
889794,-6.536506,12.034039,-0.64360183,-1.570132,-3.094532,-2.393308,233.1,-105.3,-21.900002,x,,,,,
889814,-6.8816347,12.983292,-1.0431614,-0.045732,-3.140264,0.396344,240.3,-105.3,-22.5,x,,,,,
889834,-5.480784,15.6193075,-0.7943339,-1.1280559,-5.114362,2.416174,237.90001,-102.9,-23.1,x,,,,,
889854,-5.734995,15.013987,0.30804363,-1.94361,-5.510706,0.442076,233.1,-102.9,-21.900002,x,,,,,
889914,-7.092779,12.562199,0.1363766,0.388722,-7.9192576,4.9619217,230.70001,-105.3,-26.1,x,,,,,
889938,-6.880439,11.388642,-0.39357808,0.975616,-7.8277936,6.410102,228.3,-117.3,-27.900002,x,,,,,
889958,-6.2499957,11.103926,-0.8816627,2.035074,-8.247004,7.553402,230.70001,-119.700005,-27.300001,x,,,,,
889978,-5.473606,10.264731,-1.1705658,2.2789779,-8.19365,7.3171196,216.3,-117.3,-29.1,x,,,,,
889999,-4.7713866,9.375891,-1.7549515,2.7439198,-7.9345016,7.08846,216.3,-122.100006,-29.7,x,,,,,
890020,-4.1690564,8.414676,-1.9732736,2.637212,-7.5915117,6.6158957,209.1,-124.50001,-32.100002,x,,,,,
890042,-3.1564004,7.6915207,-2.506817,2.507638,-7.400962,6.66925,201.90001,-129.3,-30.300001,x,,,,,
890062,-2.6766899,7.1645565,-2.7287283,2.55337,-6.8369336,5.9832697,192.3,-136.5,-29.1,x,,,,,
890084,-2.2526064,6.894794,-3.1970742,3.2317278,-6.890288,5.79272,189.90001,-131.70001,-28.500002,x,,,,,
890104,-1.8303175,6.5658154,-2.7873464,3.2774599,-7.3323636,5.670768,182.70001,-136.5,-30.300001,x,,,,,
890125,-1.0066746,6.910944,-2.7119803,3.7042918,-6.9741297,6.181442,175.5,-138.90001,-30.300001,x,,,,,
890145,-0.43365365,7.1932673,-2.7843556,3.2088618,-5.899428,5.495462,175.5,-143.70001,-29.7,x,,,,,
890165,-0.31701577,6.664509,-2.819048,2.7362978,-4.855214,4.009172,168.3,-143.70001,-31.500002,x,,,,,
890185,-0.12082488,6.437813,-3.0128462,3.6661818,-4.413138,3.414656,168.3,-141.3,-30.900002,x,,,,,
890205,0.22609805,6.5568433,-2.8674974,3.346058,-4.108258,3.368924,163.5,-146.1,-30.900002,x,,,,,
890225,0.36905423,6.588545,-3.0002851,2.7896519,-2.987824,2.903982,153.90001,-150.90001,-28.500002,x,,,,,
890245,0.44322395,6.8325872,-3.5122955,2.82014,-2.36282,2.560992,161.1,-148.5,-28.500002,x,,,,,
890265,0.69564027,6.956403,-3.7706933,3.041178,-2.660078,2.042696,161.1,-153.3,-30.300001,x,,,,,
890285,0.8649147,7.177716,-3.8017967,3.1936178,-2.660078,2.2256238,158.70001,-146.1,-27.900002,x,,,,,
890305,1.3661586,8.16525,-4.242628,3.2164838,-2.118916,2.446662,158.70001,-146.1,-29.7,x,,,,,
890329,1.3942713,8.44219,-4.4280524,2.599102,-1.783548,1.082324,151.5,-155.70001,-26.7,x,,,,,
890392,1.0820407,8.604286,-4.6140747,1.585376,-0.716468,-0.045732,146.70001,-150.90001,-24.300001,x,,,,,
890412,0.97796375,8.604286,-4.2958627,1.021348,-0.312502,-0.548784,146.70001,-155.70001,-27.300001,x,,,,,
890432,0.72734183,8.7089615,-4.2193007,0.320124,0.373478,-1.06708,151.5,-148.5,-24.900002,x,,,,,
890452,0.44860724,8.545669,-4.041054,0.19055,0.746956,-1.5244,149.1,-150.90001,-26.7,x,,,,,
890513,-0.15551718,8.500808,-3.5242584,0.388722,1.25763,-0.373478,151.5,-153.3,-25.500002,,,,,,
890535,-0.3744375,9.021193,-3.5990262,0.289636,1.471046,-0.22865999,151.5,-148.5,-24.900002,,,,,,
890556,-0.4342518,9.073829,-3.476407,-0.083841994,1.3567159,-0.80793196,153.90001,-148.5,-23.7,,,,,,
890576,-0.5317491,8.7843275,-3.5081086,-0.373478,1.501534,-1.074702,158.70001,-146.1,-24.900002,,,,,,
890596,-0.65317214,8.825002,-3.5541656,-0.053354,1.478668,-0.884152,153.90001,-148.5,-26.7,,,,,,
890616,-0.70461243,9.029567,-3.5697172,0.26677,1.211898,-0.82317597,149.1,-146.1,-24.900002,,,,,,
890640,-0.67709786,9.1294565,-3.5021272,0.22865999,1.051836,-0.602138,156.3,-143.70001,-25.500002,,,,,,
890660,-0.7710063,8.950611,-3.4746125,-0.129574,1.006104,-0.80030996,161.1,-146.1,-24.900002,,,,,,
890680,-0.71657526,8.84474,-3.4303498,-0.121952,0.975616,-0.69360197,163.5,-148.5,-25.500002,,,,,,
890700,-0.78895056,8.768776,-3.4542756,-0.144818,0.891774,-0.487808,158.70001,-141.3,-24.300001,,,,,,
890763,-0.52516955,9.044519,-3.3041418,-0.022866,0.64787,-0.121952,156.3,-150.90001,-24.300001,,,,,,
890783,-0.7895487,8.883021,-3.410013,-0.358234,1.036592,-0.602138,156.3,-150.90001,-23.7,,,,,,
890803,-0.974973,8.75442,-3.4716218,-0.16768399,0.92226195,-0.586894,158.70001,-146.1,-23.1,,,,,,
890827,-1.0090672,8.878236,-3.59783,-0.060976,0.594516,-0.442076,153.90001,-146.1,-24.300001,,,,,,
890847,-1.0850314,8.817225,-3.5451934,-0.121952,0.41158798,-0.320124,158.70001,-143.70001,-22.5,,,,,,
890867,-0.99889874,8.966163,-3.6307278,-0.198172,0.221038,-0.213416,156.3,-148.5,-23.7,,,,,,
890887,-0.9378882,8.81902,-3.6331203,-0.40396598,0.060976,-0.16768399,153.90001,-141.3,-24.900002,,,,,,
890907,-0.8266336,8.7627945,-3.543997,-0.365856,-0.053354,-0.030488,158.70001,-143.70001,-23.7,,,,,,
890931,-0.77758586,8.933864,-3.4913604,-0.33536798,0.022866,0.060976,161.1,-146.1,-26.1,,,,,,
890951,-0.6896588,8.847731,-3.434537,-0.53354,0.11432999,-0.198172,158.70001,-141.3,-25.500002,,,,,,
890973,-0.64659256,8.769374,-3.381302,-0.518296,0.297258,-0.23628199,156.3,-141.3,-24.300001,,,,,,
890994,-0.77220255,8.822011,-3.434537,-0.442076,0.56402797,-0.26677,156.3,-146.1,-24.900002,,,,,,
891015,-0.79792273,8.775953,-3.3645542,-0.373478,0.617382,-0.327746,161.1,-148.5,-24.300001,,,,,,
891035,-0.8529519,8.85431,-3.384891,-0.33536798,0.69360197,-0.49543,156.3,-148.5,-23.1,,,,,,
891056,-0.89422375,8.824403,-3.4548738,-0.28201398,0.777444,-0.68597996,156.3,-138.90001,-24.900002,,,,,,
891076,-0.92951417,8.789711,-3.4698274,-0.243904,0.67835796,-0.708846,153.90001,-141.3,-24.300001,,,,,,
891097,-0.8816627,8.684438,-3.506314,-0.480186,0.312502,-0.625004,163.5,-146.1,-23.7,,,,,,
891117,-0.95942134,8.591725,-3.3693395,-0.274392,0.320124,-0.15244,163.5,-143.70001,-25.500002,,,,,,
891138,-0.9025977,8.900368,-3.460257,-0.121952,0.41921,-0.030488,158.70001,-146.1,-23.1,,,,,,
891158,-0.91755134,8.93506,-3.489566,-0.121952,0.518296,-0.312502,158.70001,-146.1,-23.7,,,,,,
891180,-0.95284176,8.933266,-3.5368195,-0.15244,0.579272,-0.46494198,158.70001,-146.1,-24.300001,,,,,,
891200,-0.995908,8.794497,-3.5326324,-0.243904,0.586894,-0.449698,161.1,-146.1,-24.300001,,,,,,
891220,-0.9994969,8.851319,-3.5715117,-0.16768399,0.67073596,-0.22865999,161.1,-146.1,-23.7,,,,,,
891240,-0.97616935,9.0110235,-3.564334,-0.182928,0.594516,-0.121952,158.70001,-148.5,-23.1,,,,,,
891260,-1.0048802,8.894984,-3.5715117,-0.34298998,0.594516,-0.213416,161.1,-143.70001,-25.500002,,,,,,
891282,-0.9492529,8.878835,-3.535025,-0.320124,0.525918,-0.182928,163.5,-143.70001,-23.7,,,,,,
891302,-0.9271216,8.778944,-3.4865754,-0.358234,0.41921,-0.17530599,158.70001,-143.70001,-24.900002,,,,,,
891322,-0.87328875,8.757411,-3.4716218,-0.45731997,0.41158798,-0.07622,156.3,-138.90001,-21.900002,,,,,,
891344,-0.8152689,8.829188,-3.552371,-0.274392,0.221038,0.022866,156.3,-150.90001,-24.900002,,,,,,
891364,-0.6890607,8.792702,-3.465042,-0.320124,0.129574,0.015244,158.70001,-148.5,-24.300001,,,,,,
891386,-0.65317214,8.858498,-3.4524813,-0.358234,0.274392,0.015244,158.70001,-146.1,-23.7,,,,,,
891406,-0.6920514,8.749037,-3.4668367,-0.480186,0.35061198,-0.17530599,161.1,-143.70001,-25.500002,,,,,,
891426,-0.6968366,8.707168,-3.5457916,-0.373478,0.373478,-0.22865999,153.90001,-143.70001,-23.1,,,,,,
891446,-0.6669294,8.718532,-3.5691192,-0.17530599,0.198172,-0.251526,158.70001,-148.5,-23.7,,,,,,
891466,-0.66513497,8.692214,-3.5774932,-0.19055,0.068598,-0.243904,158.70001,-146.1,-24.300001,,,,,,
891486,-0.652574,8.711354,-3.6379056,-0.20579399,0.015244,-0.182928,163.5,-146.1,-24.300001,,,,,,
891506,-0.45877567,8.879433,-3.7336085,-0.23628199,-0.068598,-0.22865999,153.90001,-148.5,-23.7,,,,,,
891526,-0.41989636,8.739467,-3.7910302,-0.56402797,-0.03811,-0.426832,158.70001,-138.90001,-24.900002,,,,,,
891547,-0.14116174,8.688624,-3.8891256,-0.70122397,0.15244,-0.47256398,161.1,-146.1,-23.7,,,,,,
891567,0.25181818,8.961976,-4.204945,-1.089946,0.625004,-0.579272,153.90001,-143.70001,-24.300001,,,,,,
891587,0.2936882,8.6006975,-4.401136,-1.8369019,1.044214,-1.059458,156.3,-141.3,-23.1,,,,,,
891611,0.5963485,8.341104,-4.4944463,-2.149404,1.234764,-1.158544,165.90001,-138.90001,-26.1,,,,,,
891631,0.80091345,8.192764,-4.7971067,-2.7058098,1.920744,-1.326228,161.1,-148.5,-26.1,x,,,,,
891651,1.1047701,7.9212074,-5.203844,-2.7515419,2.393308,-1.48629,158.70001,-143.70001,-25.500002,x,,,,,
891671,1.6879594,7.8643837,-5.19547,-2.827762,1.8750119,-1.18141,161.1,-143.70001,-26.7,x,,,,,
891692,2.0803413,7.1053405,-4.7797604,-4.4360037,3.3003259,-1.768304,165.90001,-148.5,-26.7,x,,,,,
891712,2.2143252,6.8678775,-4.639795,-4.4360037,4.5579557,-2.492394,161.1,-148.5,-25.500002,x,,,,,
891734,2.3375428,7.29555,-4.3365364,-4.832348,5.60217,-3.35368,163.5,-138.90001,-26.1,x,,,,,
891754,2.3118227,7.5677047,-4.573401,-5.243936,8.071698,-5.25918,173.1,-141.3,-26.1,x,,,,,
891774,1.9128612,7.1765194,-4.6451783,-5.4268637,9.253108,-7.324742,175.5,-143.70001,-28.500002,x,,,,,
891794,1.4833946,5.8540254,-4.125392,-5.8613176,10.533604,-8.948228,180.3,-138.90001,-27.900002,x,,,,,
891816,0.5790024,4.634412,-4.229469,-6.189064,12.675385,-10.007686,185.1,-134.1,-27.300001,x,,,,,
891901,-2.744878,6.6501536,-2.9087694,-5.274424,11.92843,-8.330846,211.50002,-119.700005,-26.1,x,,,,,
891921,-3.2616737,6.2852864,-1.6909502,-6.0594897,11.554952,-10.800374,216.3,-112.50001,-26.1,x,,,,,
891961,-6.1321616,10.103831,-0.16688189,-3.376546,10.106771,-6.311016,228.3,-105.3,-24.300001,x,,,,,
891983,-7.1107235,10.958577,1.7501663,-6.219552,9.977198,-9.093046,228.3,-105.3,-24.300001,x,,,,,
892003,-9.548755,10.261143,-0.47731808,-0.861286,10.945191,-8.948228,235.50002,-98.100006,-22.5,x,,,,,
892025,-9.288562,13.729176,-0.96241206,0.068598,6.196686,-3.071666,240.3,-90.9,-21.300001,x,,,,,
892085,-9.094764,15.129428,-0.50602895,-0.792688,-3.628072,-0.846042,245.1,-90.9,-24.300001,x,,,,,
892193,-7.3368216,12.029253,0.3660635,0.80793196,-9.405548,8.53664,240.3,-102.9,-27.900002,x,,,,,
892213,-6.1895833,11.151179,0.42527965,1.6539739,-10.59458,8.498529,233.1,-110.100006,-30.300001,x,,,,,
892253,-5.096178,9.50509,-0.68367743,4.237832,-10.945191,7.614378,221.1,-112.50001,-32.7,x,,,,,
892273,-4.103859,8.993678,-0.6753034,4.72564,-11.486354,7.233278,216.3,-119.700005,-32.100002,x,,,,,
892293,-3.6068022,8.138931,-1.2357634,5.015276,-9.94671,6.394858,211.50002,-126.9,-31.500002,x,,,,,
892313,-3.2150185,7.719035,-2.0468452,5.4268637,-9.336949,6.082356,204.3,-122.100006,-32.100002,x,,,,,
892377,-2.0133493,6.5371046,-1.8291212,4.359784,-8.544262,5.14485,194.70001,-126.9,-32.7,x,,,,,
892397,-2.029499,5.4867654,-1.6765947,4.207344,-7.896392,3.894842,185.1,-143.70001,-32.7,x,,,,,
892417,-1.0694796,6.552058,-1.8721875,4.443626,-7.08846,5.129606,182.70001,-141.3,-31.500002,x,,,,,
892438,-0.70521057,6.4120927,-2.021125,3.6966698,-5.8765616,3.84911,185.1,-148.5,-33.300003,x,,,,,
892458,-0.36845607,6.163863,-2.4296567,4.0625257,-4.832348,3.407034,175.5,-143.70001,-30.900002,x,,,,,
892478,-0.14355431,5.9150357,-2.488873,4.4207597,-4.253076,3.117398,175.5,-143.70001,-32.100002,x,,,,,
892500,0.16508746,6.178219,-2.727532,4.9771657,-3.422278,3.7576458,170.70001,-141.3,-30.900002,x,,,,,
892520,0.61309654,7.3649344,-2.9291062,4.695152,-2.55337,4.176856,163.5,-143.70001,-30.300001,x,,,,,
892540,0.72076225,7.5019093,-3.3029454,3.879598,-1.730194,2.949714,163.5,-148.5,-30.900002,x,,,,,
892560,0.5108141,7.3146906,-3.6749904,3.7957559,-1.166166,2.2332458,158.70001,-150.90001,-30.300001,x,,,,,
892580,0.63403153,7.7136517,-4.00696,4.0625257,-0.92988396,1.935988,156.3,-148.5,-27.300001,x,,,,,
892600,0.6968366,8.202334,-4.5028205,3.643316,-0.518296,1.425314,156.3,-148.5,-27.300001,x,,,,,
892620,0.47014037,8.56122,-5.1643662,3.559474,-0.46494198,1.036592,153.90001,-146.1,-27.300001,x,,,,,
892662,0.28830492,8.557034,-5.2014513,2.187514,-1.8445239,0.3811,156.3,-146.1,-26.7,x,,,,,
892726,0.1794429,8.573183,-4.38379,0.594516,0.030488,-0.41158798,153.90001,-150.90001,-26.7,x,,,,,
892746,-0.11903045,8.540285,-4.4119024,0.45731997,1.044214,-0.640248,153.90001,-141.3,-24.900002,x,,,,,
892766,-0.5371324,8.513369,-4.5153813,0.72409,1.196654,-0.60976,151.5,-138.90001,-26.1,,,,,,
892786,-0.4731311,8.661709,-4.334742,1.021348,0.99086,-0.22865999,151.5,-146.1,-24.900002,,,,,,
892807,-0.40135393,8.699989,-4.130177,0.739334,0.891774,0.03811,156.3,-148.5,-24.300001,,,,,,
892828,-0.25181818,8.8602915,-4.0685687,0.358234,1.280496,0.297258,153.90001,-146.1,-24.900002,,,,,,
892849,-0.21353704,9.122278,-4.075746,0.015244,1.44818,0.106708,153.90001,-138.90001,-23.1,,,,,,
892869,-0.18602246,9.027174,-3.869985,-0.442076,1.585376,-0.34298998,156.3,-146.1,-23.7,,,,,,
892889,-0.25779963,8.991285,-3.7593286,-0.746956,1.814036,-0.68597996,151.5,-153.3,-26.1,,,,,,
892909,-0.2464349,9.068445,-3.5158844,-0.95274997,1.9131219,-0.899396,153.90001,-148.5,-23.7,,,,,,
892929,-0.3828115,9.0110235,-3.3161047,-1.288118,2.080806,-1.21952,153.90001,-150.90001,-25.500002,,,,,,
892949,-0.5419175,8.747243,-3.321488,-1.3795819,2.164648,-1.29574,156.3,-146.1,-24.900002,,,,,,
892971,-0.68128484,8.597109,-3.1815224,-1.150922,1.8902559,-1.097568,151.5,-143.70001,-24.900002,,,,,,
892991,-0.6376204,8.794497,-3.0965862,-0.82317597,1.6539739,-0.663114,158.70001,-146.1,-24.300001,,,,,,
893013,-0.62027425,8.901564,-3.0672772,-0.7622,1.440558,-0.45731997,153.90001,-141.3,-24.900002,,,,,,
893033,-0.64360183,8.904554,-3.109147,-0.655492,1.3719599,-0.442076,153.90001,-146.1,-26.1,,,,,,
893053,-0.64838696,8.692214,-3.1701577,-0.388722,1.250008,-0.586894,158.70001,-146.1,-26.7,,,,,,
893075,-0.66513497,8.770571,-3.3789096,0.045732,1.242386,-0.45731997,153.90001,-146.1,-25.500002,,,,,,
893095,-0.660948,8.900966,-3.3759189,0.198172,1.158544,-0.23628199,153.90001,-143.70001,-23.7,,,,,,
893115,-0.7733989,9.037342,-3.4548738,0.068598,1.25763,-0.289636,158.70001,-143.70001,-25.500002,,,,,,
893135,-0.80749303,9.030165,-3.5320342,-0.15244,1.173788,-0.49543,163.5,-143.70001,-23.7,,,,,,
893155,-0.88285905,8.749037,-3.4704256,-0.274392,1.082324,-0.55640596,153.90001,-141.3,-23.7,,,,,,
893175,-0.78595984,8.868666,-3.4004428,-0.20579399,0.99086,-0.251526,158.70001,-146.1,-24.900002,,,,,,
893197,-0.82842803,8.916517,-3.397452,-0.480186,0.95274997,-0.198172,161.1,-143.70001,-23.1,,,,,,
893217,-0.8421853,8.883021,-3.4147983,-0.60976,0.81555396,-0.221038,156.3,-148.5,-23.7,,,,,,
893237,-0.9492529,8.902162,-3.4656403,-0.274392,0.69360197,-0.35061198,158.70001,-141.3,-24.300001,,,,,,
893257,-0.9420752,8.726308,-3.4865754,-0.17530599,0.525918,-0.388722,161.1,-148.5,-22.5,,,,,,
893277,-0.91515875,8.923097,-3.5057158,0.091464,0.396344,-0.182928,161.1,-153.3,-23.1,,,,,,
893297,-0.9025977,8.897377,-3.4273593,-0.144818,0.297258,-0.144818,153.90001,-150.90001,-23.7,,,,,,
893317,-0.9229346,9.002051,-3.4985383,-0.274392,0.388722,-0.106708,156.3,-146.1,-24.300001,,,,,,
893337,-0.97078604,8.827394,-3.5326324,-0.45731997,0.34298998,-0.137196,158.70001,-146.1,-23.1,,,,,,
893361,-0.870298,8.899769,-3.506314,-0.30488,0.213416,0.0,161.1,-148.5,-25.500002,,,,,,
893381,-0.77040815,8.90276,-3.4207797,-0.365856,0.144818,0.083841994,153.90001,-148.5,-22.5,,,,,,
893401,-0.7333233,8.891396,-3.321488,-0.3811,0.19055,0.068598,153.90001,-146.1,-23.7,,,,,,
893421,-0.73272514,8.83517,-3.2676551,-0.49543,0.20579399,0.007622,156.3,-146.1,-23.1,,,,,,
893441,-0.7123883,8.820814,-3.2957678,-0.396344,0.274392,0.007622,153.90001,-146.1,-25.500002,,,,,,
893464,-0.65317214,8.81902,-3.2317665,-0.121952,0.20579399,0.022866,158.70001,-146.1,-26.1,,,,,,
893484,-0.64120924,8.930275,-3.2239907,-0.030488,0.221038,-0.045732,156.3,-146.1,-24.900002,,,,,,
893524,-0.72554743,8.761599,-3.3029454,-0.121952,0.213416,-0.33536798,163.5,-148.5,-24.300001,,,,,,
893564,-0.7901469,9.186279,-3.3741245,0.099086,-0.160062,-0.060976,158.70001,-148.5,-23.1,,,,,,
893586,-0.75605273,9.162952,-3.3735263,-0.45731997,-0.251526,-0.449698,158.70001,-148.5,-24.900002,,,,,,
893628,-0.7602397,8.807057,-3.393265,-0.548784,-0.297258,-0.487808,156.3,-143.70001,-24.300001,,,,,,
893648,-0.66453683,8.850721,-3.2945714,-0.396344,-0.221038,-0.297258,161.1,-146.1,-24.900002,,,,,,
893668,-0.67590153,8.798085,-3.2784216,-0.3811,-0.068598,-0.274392,165.90001,-150.90001,-26.1,,,,,,
893688,-0.5664414,8.86747,-3.217411,-0.19055,0.060976,-0.221038,156.3,-143.70001,-24.900002,,,,,,
893710,-0.49885124,9.005641,-3.2604773,-0.182928,0.34298998,-0.243904,153.90001,-143.70001,-24.300001,,,,,,
893730,-0.5586655,8.727504,-3.3478062,-0.503052,0.40396598,-0.312502,161.1,-150.90001,-24.300001,,,,,,
893750,-0.5819931,8.659316,-3.4118075,0.03811,0.388722,-0.144818,151.5,-143.70001,-23.1,,,,,,
893770,-0.54072124,8.911134,-3.4710236,0.30488,0.28201398,0.030488,158.70001,-148.5,-23.7,,,,,,
893790,-0.46296266,8.71255,-3.4572663,0.07622,0.213416,-0.053354,158.70001,-143.70001,-23.1,,,,,,
893814,-0.2266962,8.887806,-3.527249,0.060976,0.182928,-0.129574,156.3,-146.1,-23.1,,,,,,
893834,-0.061010584,8.887806,-3.6719997,-0.182928,0.327746,-0.289636,151.5,-138.90001,-22.5,,,,,,
893857,0.0059814295,8.821412,-3.7186549,-0.35061198,0.327746,-0.55640596,151.5,-146.1,-24.900002,,,,,,
893877,0.09570287,8.722121,-3.694131,-0.655492,0.365856,-0.716468,156.3,-148.5,-24.300001,,,,,,
893898,0.15970418,8.376992,-3.564334,-1.02897,0.41921,-1.021348,153.90001,-148.5,-23.7,,,,,,
893942,0.36127836,8.319571,-3.6672146,-2.7591639,1.8673899,-1.737816,163.5,-146.1,-24.900002,x,,,,,
893962,0.21413518,8.14252,-4.292274,-2.492394,2.6981878,-2.560992,161.1,-148.5,-24.900002,x,,,,,
893982,0.32359535,7.4379077,-4.919726,-2.347576,3.094532,-3.605206,163.5,-138.90001,-25.500002,x,,,,,
894002,0.94985104,6.9875064,-5.3856792,-3.033556,3.399412,-3.2088618,163.5,-141.3,-24.900002,x,,,,,
894023,2.1180243,8.045023,-5.73021,-3.932952,3.140264,-2.141782,168.3,-146.1,-25.500002,x,,,,,
894063,2.3614686,6.6106763,-5.581272,-4.443626,6.1052217,-4.862836,175.5,-136.5,-27.300001,x,,,,,
894085,2.4332457,6.7883244,-5.497532,-5.419242,6.676872,-6.128088,173.1,-141.3,-25.500002,x,,,,,
894105,2.2890933,5.8755584,-4.9819326,-5.5183277,8.048832,-8.025966,177.90001,-129.3,-26.7,x,,,,,
894125,1.9708811,5.883334,-4.9562125,-5.769854,9.489389,-8.780544,187.5,-129.3,-26.7,x,,,,,
894167,-0.05443101,2.9805465,-3.9764545,-6.9588857,10.373542,-12.134224,204.3,-122.100006,-27.300001,x,,,,,
894187,-2.238251,1.8261305,-2.8381884,-5.67839,10.083906,-10.411652,216.3,-119.700005,-26.7,x,,,,,
894207,-2.9225266,5.928195,-2.9099655,-3.628072,10.44214,-6.17382,213.90001,-119.700005,-26.7,x,,,,,
894229,-5.1697497,6.125582,-1.3852991,-5.0076537,8.856764,-11.379645,225.90001,-107.700005,-26.1,x,,,,,
894249,-5.2606673,8.537892,-0.27873462,-2.7820299,5.647902,-5.655524,230.70001,-105.3,-25.500002,x,,,,,
894269,-6.5825634,11.08658,1.1520233,-7.5457797,9.550365,-6.17382,233.1,-100.50001,-27.300001,x,,,,,
894289,-7.9116373,11.543561,-0.98514146,-4.085392,10.754642,-8.262248,237.90001,-100.50001,-24.900002,x,,,,,
894309,-8.256765,12.530498,-0.017346146,-3.033556,5.343022,-7.0198617,242.70001,-100.50001,-25.500002,x,,,,,
894351,-9.7234125,13.727381,0.6753034,-2.7286758,2.995446,-4.390272,249.90001,-90.9,-24.900002,x,,,,,
894373,-9.92379,14.783104,0.15611531,-2.2332458,0.64787,-3.2393498,252.3,-95.700005,-25.500002,x,,,,,
894393,-9.839452,13.923573,0.4982531,-1.1432999,-2.118916,-2.835384,252.3,-90.9,-26.1,x,,,,,
894413,-9.811937,13.995948,0.7524639,-0.20579399,-3.35368,-0.777444,254.70001,-86.100006,-25.500002,x,,,,,
894433,-9.975828,14.483434,0.33316565,0.30488,-4.375028,1.1432999,249.90001,-86.100006,-29.1,x,,,,,
894453,-10.066746,12.361222,-0.26497734,0.907018,-6.5244317,2.51526,249.90001,-88.5,-27.900002,x,,,,,
894473,-9.87534,11.858185,-0.23207948,1.509156,-7.256144,3.84911,254.70001,-90.9,-27.900002,x,,,,,
894493,-8.704775,11.847418,-0.59275967,2.903982,-8.597616,6.654006,249.90001,-100.50001,-29.7,x,,,,,
894515,-7.751933,11.21877,-0.7524639,2.835384,-8.80341,7.77444,237.90001,-100.50001,-29.7,x,,,,,
894536,-6.820026,10.362827,-1.2788297,3.08691,-8.902495,8.26987,233.1,-102.9,-29.7,x,,,,,
894601,-3.8801534,7.786027,-2.167072,3.01069,-8.61286,7.416206,221.1,-119.700005,-32.7,x,,,,,
894622,-3.3346472,6.727314,-2.6156793,3.2164838,-8.468041,6.814068,211.50002,-119.700005,-32.7,x,,,,,
894642,-2.56065,5.9975796,-2.4290586,3.6661818,-9.1768875,6.722604,204.3,-126.9,-32.7,x,,,,,
894662,-1.6879594,5.7032933,-2.4075255,4.283564,-8.932983,7.149436,201.90001,-129.3,-32.7,x,,,,,
894682,-0.9558325,5.9796352,-2.2238955,4.5884438,-8.30798,7.4848037,192.3,-136.5,-33.9,x,,,,,
894726,0.22729433,5.638694,-2.3327575,5.0381417,-5.83083,6.6311398,175.5,-138.90001,-33.300003,x,,,,,
894746,0.69803286,6.500618,-2.2442324,4.87808,-5.343022,6.9588857,180.3,-143.70001,-32.7,x,,,,,
894768,0.92951417,6.48387,-2.2514102,4.054904,-4.291186,5.853696,168.3,-148.5,-32.7,x,,,,,
894788,1.3045498,7.1525936,-2.6431937,4.298808,-3.422278,5.274424,165.90001,-148.5,-33.300003,x,,,,,
894808,1.5976399,7.684941,-2.811272,3.948196,-2.606724,4.1921,161.1,-146.1,-30.900002,x,,,,,
894828,1.6353229,8.164053,-3.150419,3.635694,-1.707328,3.35368,156.3,-153.3,-30.300001,x,,,,,
894851,1.4905723,8.749037,-3.5451934,3.399412,-1.044214,2.431418,158.70001,-148.5,-30.300001,x,,,,,
894871,1.1340791,8.428432,-3.6402981,2.7058098,-1.06708,1.1051899,153.90001,-150.90001,-28.500002,x,,,,,
894891,0.4372425,7.802775,-3.7072902,2.454284,-0.548784,0.47256398,153.90001,-153.3,-30.300001,x,,,,,
894911,-0.07058087,7.8972816,-4.226478,2.2561119,0.007622,0.396344,151.5,-143.70001,-28.500002,x,,,,,
894931,-0.28770676,8.098856,-4.610486,2.2942219,-0.11432999,0.060976,149.1,-153.3,-28.500002,x,,,,,
894951,-0.23566833,8.476284,-4.8676877,2.538126,-0.137196,-0.11432999,151.5,-148.5,-29.1,x,,,,,
894971,0.015551717,8.365029,-4.5787845,1.94361,-0.388722,-0.091464,151.5,-148.5,-27.900002,x,,,,,
894991,0.14774132,8.502005,-4.4579597,1.8597679,-0.11432999,0.251526,149.1,-150.90001,-27.300001,x,,,,,
895011,0.21772404,8.615053,-4.2151136,0.99086,0.602138,0.518296,151.5,-150.90001,-27.900002,x,,,,,
895031,0.17884475,8.717934,-4.175038,0.388722,1.493912,0.55640596,153.90001,-148.5,-26.1,x,,,,,
895052,0.047851436,8.710756,-4.146327,0.182928,1.722572,0.19055,153.90001,-148.5,-26.1,x,,,,,
895072,0.17585403,9.033155,-3.874172,0.312502,1.699706,-0.015244,146.70001,-150.90001,-25.500002,x,,,,,
895092,0.20935003,9.328039,-3.6528592,-0.022866,1.8369019,-0.449698,151.5,-148.5,-27.300001,x,,,,,
895114,-0.053832866,8.864479,-3.309525,-0.55640596,2.035074,-1.280496,149.1,-153.3,-26.7,,,,,,
895134,-0.16748004,8.886012,-3.2311683,-0.64787,1.996964,-1.425314,149.1,-148.5,-26.1,,,,,,
895154,-0.23447205,8.818421,-3.209037,-0.777444,1.8521459,-1.425314,151.5,-155.70001,-26.7,,,,,,
895174,-0.36127836,8.841749,-3.1270914,-0.7622,1.6006199,-1.1204339,156.3,-150.90001,-25.500002,,,,,,
895194,-0.3702505,8.923695,-3.1318767,-0.830798,1.3414719,-0.93750596,153.90001,-150.90001,-26.1,,,,,,
895214,-0.25181818,9.061866,-3.0888102,-0.754578,1.234764,-0.81555396,151.5,-148.5,-26.1,,,,,,
895236,-0.3283805,9.049305,-3.176139,-0.746956,1.29574,-0.91463995,156.3,-146.1,-26.1,,,,,,
895256,-0.43664438,8.9242935,-3.104362,-0.632626,1.189032,-0.868908,156.3,-150.90001,-25.500002,,,,,,
895276,-0.5449082,8.906349,-3.2030556,-0.53354,1.089946,-0.716468,151.5,-148.5,-26.7,,,,,,
895299,-0.6364241,8.789711,-3.1725502,-0.426832,0.853664,-0.45731997,153.90001,-148.5,-26.7,,,,,,
895319,-0.71418273,9.095961,-3.305936,0.083841994,0.68597996,-0.373478,158.70001,-146.1,-26.1,,,,,,
895339,-0.72076225,8.97693,-3.2431312,0.060976,0.53354,-0.518296,161.1,-146.1,-25.500002,,,,,,
895359,-0.7183697,8.932069,-3.2299721,-0.007622,0.442076,-0.47256398,163.5,-146.1,-26.1,,,,,,
895379,-0.7410991,8.947022,-3.2180092,-0.129574,0.434454,-0.213416,151.5,-148.5,-26.1,,,,,,
895441,-0.81168,9.073829,-3.1910927,-0.16768399,0.053354,-0.20579399,153.90001,-148.5,-25.500002,,,,,,
895461,-0.7620341,9.113306,-3.1025677,-0.327746,0.007622,-0.28201398,156.3,-143.70001,-26.1,,,,,,
895481,-0.8248392,8.984107,-3.1564004,-0.487808,0.16768399,-0.312502,156.3,-150.90001,-25.500002,,,,,,
895501,-0.8296243,8.961976,-3.142045,-0.442076,0.243904,-0.137196,158.70001,-148.5,-26.1,,,,,,
895525,-0.7877543,9.022388,-3.100175,-0.358234,0.312502,0.15244,161.1,-143.70001,-25.500002,,,,,,
895546,-0.79672647,9.070838,-3.0672772,-0.434454,0.3811,0.11432999,156.3,-150.90001,-25.500002,,,,,,
895566,-0.72435117,8.936256,-3.0248091,-0.41921,0.41921,0.083841994,153.90001,-148.5,-25.500002,,,,,,
895586,-0.7058087,8.764589,-3.0804362,-0.289636,0.442076,0.17530599,151.5,-146.1,-25.500002,,,,,,
895606,-0.7177716,8.937452,-3.1312785,0.022866,0.373478,0.198172,153.90001,-148.5,-26.1,,,,,,
895626,-0.7333233,9.003846,-3.2012613,0.099086,0.320124,0.137196,158.70001,-150.90001,-24.900002,,,,,,
895646,-0.702818,9.005641,-3.1611855,0.106708,0.16768399,-0.030488,153.90001,-143.70001,-26.1,,,,,,
895686,-0.6005356,9.04751,-3.16298,0.03811,0.251526,-0.11432999,151.5,-146.1,-24.900002,,,,,,
895708,-0.66214424,8.985304,-3.1857095,-0.091464,0.373478,-0.20579399,156.3,-146.1,-24.900002,,,,,,
895728,-0.6663313,8.908143,-3.2066445,-0.16768399,0.3811,-0.144818,149.1,-148.5,-23.7,,,,,,
895750,-0.6154891,8.90575,-3.259879,-0.068598,0.3811,-0.053354,153.90001,-158.1,-26.7,,,,,,
895771,-0.61190027,9.001453,-3.2628698,-0.030488,0.358234,-0.11432999,149.1,-153.3,-24.300001,,,,,,
895791,-0.56285256,9.083399,-3.3208897,-0.213416,0.289636,-0.22865999,153.90001,-148.5,-23.7,,,,,,
895811,-0.6011337,8.733485,-3.2449257,-0.434454,0.297258,-0.28201398,151.5,-150.90001,-25.500002,,,,,,
895895,-0.5556748,8.840553,-3.3376377,-0.15244,0.541162,-0.358234,146.70001,-146.1,-24.300001,,,,,,
895915,-0.619078,8.939845,-3.4285555,-0.137196,0.518296,-0.449698,153.90001,-146.1,-24.900002,,,,,,
895935,-0.5347398,8.922499,-3.3962557,-0.16768399,0.358234,-0.49543,156.3,-141.3,-23.1,,,,,,
895975,-0.4886828,8.963771,-3.3310583,-0.259148,0.358234,-0.30488,146.70001,-143.70001,-23.7,,,,,,
895995,-0.44741094,8.961378,-3.296366,-0.327746,0.33536798,-0.373478,158.70001,-146.1,-25.500002,,,,,,
896015,-0.41870007,8.644362,-3.2497108,-0.41921,0.320124,-0.129574,153.90001,-146.1,-24.300001,,,,,,
896036,-0.4731311,8.670082,-3.3412266,-0.34298998,0.320124,0.045732,151.5,-148.5,-23.7,,,,,,
896056,-0.4761218,8.764589,-3.4453034,-0.396344,0.160062,0.259148,149.1,-150.90001,-24.900002,,,,,,
896076,-0.26796806,8.953602,-3.5751004,-0.41158798,0.045732,0.19055,151.5,-146.1,-23.1,,,,,,
896096,-0.06998273,8.850721,-3.7533472,-0.655492,-0.022866,-0.045732,153.90001,-146.1,-24.300001,,,,,,
896116,0.0807493,8.819618,-4.015932,-0.82317597,0.07622,-0.083841994,153.90001,-148.5,-24.900002,,,,,,
896140,0.43484995,8.614455,-4.1355605,-1.204276,0.106708,-0.312502,153.90001,-146.1,-25.500002,,,,,,
896160,0.57601166,8.008536,-4.5327272,-1.989342,0.83842,-0.92226195,144.3,-150.90001,-24.900002,x,,,,,
896181,0.723753,7.724418,-5.341417,-1.3872039,2.01983,-1.21952,156.3,-148.5,-26.7,x,,,,,
896201,1.1221162,8.220877,-5.6374974,-1.8673899,0.83842,-1.044214,153.90001,-150.90001,-27.900002,x,,,,,
896221,1.564742,8.222074,-5.4532695,-2.949714,1.242386,-1.5244,158.70001,-146.1,-25.500002,x,,,,,
896281,2.5510798,8.032462,-4.71875,-5.838452,5.708878,-4.489358,163.5,-146.1,-28.500002,x,,,,,
896301,2.3704405,7.2261653,-4.2276745,-6.4786997,7.3476076,-5.94516,156.3,-148.5,-29.7,x,,,,,
896321,2.1347723,6.27452,-3.953725,-7.210412,9.131156,-7.4238276,170.70001,-146.1,-29.7,x,,,,,
896341,1.6574541,5.015429,-3.7431786,-7.20279,11.074766,-9.03207,177.90001,-143.70001,-30.300001,x,,,,,
896362,0.7716044,3.5966337,-3.3573766,-6.410102,11.24245,-9.779026,182.70001,-136.5,-29.7,x,,,,,
896405,-0.4761218,3.903481,-2.385394,-5.495462,12.23331,-9.840002,192.3,-131.70001,-29.1,x,,,,,
896425,-1.8153639,3.2150185,-1.4379357,-4.207344,12.019894,-10.480249,201.90001,-122.100006,-29.1,x,,,,,
896445,-3.154606,6.5945263,-1.7980177,-2.355198,12.141846,-8.468041,211.50002,-114.9,-26.7,x,,,,,
896467,-4.5147834,7.632304,-0.31282878,-2.40093,10.373542,-9.001582,218.70001,-114.9,-25.500002,x,,,,,
896507,-6.330745,9.555334,-1.2016692,-1.8521459,10.929948,-8.003099,230.70001,-107.700005,-24.900002,x,,,,,
896567,-6.962384,14.534276,0.001196286,-2.85825,2.126538,-4.489358,237.90001,-102.9,-23.1,x,,,,,
896607,-8.56122,15.540353,-0.681883,-1.5244,-0.739334,0.137196,247.50002,-93.3,-21.300001,x,,,,,
896633,-7.5228443,16.433979,0.8021097,-2.82014,-3.109776,-0.518296,247.50002,-98.100006,-24.900002,x,,,,,
896653,-8.972743,14.489415,-0.123815596,-1.417692,-3.2241058,-0.7622,240.3,-95.700005,-24.900002,x,,,,,
896696,-8.208316,13.387038,0.21054633,0.28201398,-7.5915117,3.361302,245.1,-100.50001,-26.7,x,,,,,
896716,-8.070145,13.123855,-0.4258778,2.088428,-9.291218,5.586926,240.3,-102.9,-26.7,x,,,,,
896736,-6.8768497,12.758389,-0.38221335,3.1936178,-11.067143,7.179924,235.50002,-110.100006,-29.1,x,,,,,
896756,-6.2990437,11.722406,-0.71896785,3.2469718,-11.006167,8.132674,228.3,-112.50001,-30.300001,x,,,,,
896776,-5.702097,11.213387,-1.5671346,4.024416,-10.93757,9.062558,223.50002,-114.9,-29.7,x,,,,,
896796,-4.6338134,10.871846,-1.53962,4.054904,-11.66166,9.009204,221.1,-119.700005,-30.900002,x,,,,,
896816,-4.1995616,9.457238,-1.677791,3.910086,-10.350676,7.4085836,206.70001,-126.9,-31.500002,x,,,,,
896837,-4.1780286,8.363833,-2.4667416,4.161612,-9.397925,6.806446,209.1,-129.3,-30.300001,x,,,,,
896877,-2.8381884,7.3158865,-1.9654979,3.551852,-9.832379,5.75461,197.1,-136.5,-33.9,x,,,,,
896897,-2.3530943,6.173434,-1.836897,3.2469718,-8.186028,4.0625257,192.3,-136.5,-32.7,x,,,,,
896920,-2.0767524,5.4275494,-2.4828916,3.605206,-6.646384,3.7728899,187.5,-138.90001,-32.7,x,,,,,
896940,-1.6245563,5.2433214,-2.2191105,3.856732,-6.3719916,3.917708,185.1,-134.1,-30.900002,x,,,,,
896960,-1.3757288,5.4933453,-2.205353,4.138746,-6.082356,3.940574,182.70001,-141.3,-32.100002,x,,,,,
896980,-0.99889874,5.6040015,-2.1939883,4.024416,-5.4116197,3.2698379,182.70001,-136.5,-32.100002,x,,,,,
897000,-0.8128763,5.334837,-2.5337336,4.0167937,-4.474114,2.7667859,180.3,-143.70001,-31.500002,x,,,,,
897020,-0.15432088,6.1321616,-2.8728807,4.710396,-4.176856,3.2393498,175.5,-141.3,-31.500002,x,,,,,
897060,0.12142302,6.5155716,-3.0642865,2.7744079,-2.179892,1.775926,168.3,-141.3,-30.300001,x,,,,,
897082,0.14355431,6.680659,-3.6247463,3.1783738,-1.760682,1.669218,170.70001,-143.70001,-29.7,x,,,,,
897102,0.14654502,7.6083784,-3.806582,3.2241058,-1.6006199,2.080806,168.3,-146.1,-30.300001,x,,,,,
897122,0.28351977,8.405704,-4.304835,2.500016,-1.166166,1.6082419,163.5,-148.5,-29.1,x,,,,,
897142,0.20157418,7.7333903,-3.9961932,1.684462,-1.661596,0.487808,163.5,-146.1,-29.7,x,,,,,
897162,0.36426908,8.248391,-3.895107,1.821658,-1.288118,1.150922,158.70001,-146.1,-28.500002,x,,,,,
897182,0.18123733,8.479275,-4.104457,1.173788,-0.503052,0.868908,165.90001,-148.5,-28.500002,x,,,,,
897202,0.010766573,9.078614,-4.320985,1.684462,-0.099086,0.70122397,161.1,-148.5,-29.7,x,,,,,
897222,-0.17106889,9.413574,-4.438819,1.6006199,-0.274392,-0.320124,163.5,-148.5,-27.300001,x,,,,,
897242,-0.50423455,8.714943,-4.322181,1.242386,0.251526,-1.227142,165.90001,-146.1,-29.7,x,,,,,
897264,-0.6477888,8.571987,-4.2904797,0.998482,0.46494198,-1.044214,163.5,-146.1,-26.1,x,,,,,
897284,-0.76801556,8.17482,-4.0679703,0.70122397,0.853664,-0.57164997,158.70001,-141.3,-27.900002,x,,,,,
897305,-0.6059188,8.861488,-4.154103,0.983238,1.29574,0.20579399,165.90001,-141.3,-27.900002,x,,,,,
897326,-0.55986184,9.057081,-3.8939106,0.60976,1.6311079,0.11432999,163.5,-153.3,-26.1,x,,,,,
897346,-0.42647594,9.164148,-3.6618314,0.11432999,2.088428,0.16768399,163.5,-146.1,-27.900002,x,,,,,
897369,-0.3493155,9.115101,-3.5655303,-0.449698,2.652456,-0.198172,161.1,-150.90001,-27.300001,x,,,,,
897389,-0.37802637,8.618642,-3.4716218,-0.83842,3.033556,-0.45731997,161.1,-143.70001,-27.300001,x,,,,,
897411,-0.64659256,8.952406,-3.523062,-0.320124,3.170752,-0.213416,158.70001,-146.1,-25.500002,x,,,,,
897431,-0.65616286,8.932069,-3.38848,-0.137196,2.888738,-0.373478,165.90001,-146.1,-24.900002,x,,,,,
897451,-0.73691213,8.772365,-3.3484044,-0.045732,2.7058098,-0.548784,170.70001,-150.90001,-24.900002,x,,,,,
897473,-0.677696,8.786122,-3.1988685,0.16768399,2.47715,-0.46494198,163.5,-138.90001,-27.300001,x,,,,,
897493,-0.66274244,8.912929,-3.1593912,0.213416,2.339954,-0.426832,156.3,-141.3,-26.1,x,,,,,
897535,-0.79373574,8.701784,-3.2287757,0.0,1.974098,-0.274392,163.5,-148.5,-24.900002,x,,,,,
897555,-0.736314,9.136036,-3.3609653,0.22865999,1.699706,-0.11432999,163.5,-141.3,-24.900002,x,,,,,
897577,-0.92951417,8.803469,-3.3280675,-0.289636,1.493912,-0.53354,161.1,-148.5,-23.1,,,,,,
897597,-0.94805664,8.913527,-3.5463896,-0.198172,1.06708,-0.625004,163.5,-143.70001,-24.900002,,,,,,
897617,-0.96659905,8.85431,-3.518277,-0.3811,0.899396,-0.579272,158.70001,-138.90001,-23.1,,,,,,
897637,-0.9133643,8.90575,-3.518277,-0.35061198,0.548784,-0.28201398,165.90001,-143.70001,-24.300001,,,,,,
897657,-0.8350076,8.817225,-3.3513951,-0.426832,0.259148,-0.15244,156.3,-143.70001,-25.500002,,,,,,
897677,-0.8840553,9.001453,-3.3322544,-0.548784,0.26677,0.007622,168.3,-141.3,-24.300001,,,,,,
897697,-0.88884044,8.973341,-3.3585727,-0.754578,0.106708,-0.045732,158.70001,-143.70001,-26.1,,,,,,
897718,-0.88046646,8.9464245,-3.334049,-0.716468,0.091464,-0.099086,156.3,-148.5,-23.7,,,,,,
897778,-0.778184,8.799281,-3.241935,-0.45731997,0.144818,0.213416,158.70001,-143.70001,-25.500002,,,,,,
897835,-0.6878644,9.094166,-3.460257,0.099086,0.160062,0.33536798,165.90001,-138.90001,-26.1,,,,,,
897855,-0.75126755,8.871656,-3.4560702,-0.091464,-0.030488,0.015244,156.3,-150.90001,-25.500002,,,,,,
897896,-0.6262557,8.925489,-3.4357333,-0.251526,-0.16768399,0.060976,163.5,-136.5,-24.900002,,,,,,
897958,-0.6687238,8.909938,-3.368143,-0.213416,0.22865999,-0.274392,161.1,-148.5,-23.7,,,,,,
897979,-0.69803286,8.9242935,-3.2808142,-0.358234,0.365856,-0.34298998,163.5,-143.70001,-23.7,,,,,,
897999,-0.72554743,8.893189,-3.3370397,-0.525918,0.617382,-0.47256398,161.1,-146.1,-26.1,,,,,,
898019,-0.8188577,8.765187,-3.3842928,-0.373478,0.625004,-0.57164997,156.3,-146.1,-23.7,,,,,,
898040,-0.8110819,8.858498,-3.3005528,-0.198172,0.602138,-0.49543,161.1,-143.70001,-24.300001,,,,,,
898060,-0.7835673,8.863282,-3.3537877,-0.28201398,0.663114,-0.312502,158.70001,-146.1,-25.500002,,,,,,
898080,-0.748875,8.979322,-3.3741245,-0.297258,0.739334,-0.106708,158.70001,-146.1,-24.300001,,,,,,
898104,-0.65795726,9.021193,-3.4124057,-0.49543,0.785066,-0.129574,161.1,-141.3,-26.1,,,,,,
898124,-0.6501814,8.817225,-3.4656403,-0.617382,0.777444,-0.20579399,158.70001,-141.3,-24.300001,,,,,,
898145,-0.4982531,8.708364,-3.6223538,-0.60976,0.72409,-0.099086,161.1,-146.1,-26.1,,,,,,
898165,-0.3858022,8.7627945,-3.6534572,-0.716468,0.640248,0.030488,158.70001,-148.5,-24.300001,,,,,,
898187,0.09211402,8.872853,-3.7629175,-1.539644,0.91463995,-0.11432999,165.90001,-153.3,-24.300001,,,,,,
898207,0.19738717,8.44877,-4.1050553,-2.614346,1.56251,-0.53354,163.5,-148.5,-26.1,x,,,,,
898227,0.06579573,8.001957,-4.65116,-2.7820299,2.179892,-0.83842,161.1,-148.5,-26.1,x,,,,,
898247,0.18183546,7.931376,-5.083617,-2.55337,1.9054999,-0.579272,156.3,-141.3,-27.300001,x,,,,,
898267,0.2171259,7.739372,-5.534617,-2.32471,1.8902559,-0.640248,161.1,-150.90001,-24.900002,x,,,,,
898291,0.64120924,7.373308,-6.066366,-2.55337,2.6905658,-0.998482,158.70001,-141.3,-26.7,x,,,,,
898311,1.3464198,7.752531,-6.498225,-3.2545938,1.798792,-0.754578,156.3,-148.5,-27.900002,x,,,,,
898331,1.6891557,7.7256145,-6.1088343,-4.0777698,1.8978779,-1.310984,156.3,-146.1,-26.7,x,,,,,
898351,2.0881171,7.9253945,-6.0597863,-4.314052,3.147886,-1.707328,151.5,-148.5,-27.300001,x,,,,,
898371,2.196979,7.418169,-5.4113994,-5.853696,3.483254,-3.597584,161.1,-146.1,-29.1,x,,,,,
898412,1.6688188,5.297154,-4.3078256,-7.759196,8.1250515,-6.394858,168.3,-141.3,-30.300001,x,,,,,
898438,0.5167955,3.7180567,-3.0983806,-7.1113257,8.826276,-7.5762677,180.3,-138.90001,-30.900002,x,,,,,
898458,0.5425157,5.442503,-1.9966012,-5.4573517,9.466524,-5.899428,182.70001,-136.5,-32.7,x,,,,,
898500,-2.6994193,2.715569,-0.5568711,-7.01224,13.422341,-11.128119,197.1,-136.5,-30.900002,x,,,,,
898520,-3.8592184,5.852231,-1.2429411,-2.2180018,13.651002,-5.701256,206.70001,-126.9,-29.7,x,,,,,
898540,-2.4822934,12.852896,1.552181,-7.218034,10.609824,-2.957336,209.1,-122.100006,-30.300001,x,,,,,
898560,-4.568018,10.193553,0.849363,-6.8979096,15.045828,-11.135742,206.70001,-119.700005,-28.500002,x,,,,,
898583,-7.915226,7.187286,0.9043922,-4.778994,12.027515,-9.497012,216.3,-119.700005,-29.1,x,,,,,
898603,-6.9169254,13.638856,1.0981905,-3.140264,8.53664,-2.2942219,225.90001,-112.50001,-28.500002,x,,,,,
898623,-6.4976273,14.6909895,1.9302074,-3.894842,6.4939437,-2.621968,216.3,-117.3,-26.7,x,,,,,
898643,-8.441592,14.992454,1.2812222,-1.5929979,4.184478,-3.84911,225.90001,-114.9,-26.7,x,,,,,
898683,-8.67427,15.999726,1.5701253,-0.769822,-2.62959,-1.928366,230.70001,-105.3,-26.7,x,,,,,
898705,-7.5587325,17.011187,1.3829066,-0.35061198,-4.4817357,0.23628199,228.3,-102.9,-27.300001,x,,,,,
898725,-9.511071,14.226233,0.8649147,0.20579399,-6.143332,0.091464,225.90001,-107.700005,-29.7,x,,,,,
898745,-9.096559,13.875721,0.14415246,1.5929979,-8.605238,3.6661818,230.70001,-112.50001,-29.7,x,,,,,
898769,-6.3768024,14.227428,1.4092249,1.1051899,-10.625068,6.714982,221.1,-112.50001,-29.7,x,,,,,
898789,-5.4993267,12.312773,1.2315763,0.91463995,-8.932983,7.644866,221.1,-117.3,-32.100002,x,,,,,
898809,-6.2523885,10.218077,0.032897864,1.8750119,-7.942124,7.4390717,221.1,-124.50001,-32.7,x,,,,,
898829,-5.1494126,9.323853,-0.6992291,3.84911,-9.253108,8.170784,206.70001,-126.9,-31.500002,x,,,,,
898852,-3.5679228,9.054688,-0.2506219,4.336918,-10.632689,8.262248,206.70001,-124.50001,-32.100002,x,,,,,
898872,-2.68626,8.405105,-0.7847636,4.657042,-9.832379,7.5000477,197.1,-131.70001,-33.9,x,,,,,
898892,-2.1018744,7.538994,-0.85414815,4.550334,-9.214998,6.0442457,187.5,-138.90001,-33.300003,x,,,,,
898912,-1.8141676,6.565217,-1.2824185,4.291186,-8.277492,4.489358,185.1,-143.70001,-33.300003,x,,,,,
898932,-1.7884475,5.532224,-1.7693069,4.672286,-7.73633,3.902464,180.3,-141.3,-33.9,x,,,,,
898952,-1.4325525,5.723032,-1.9864328,4.809482,-8.376577,4.9619217,180.3,-141.3,-34.5,x,,,,,
898975,-0.7733989,6.468318,-2.0923042,4.024416,-8.033587,4.809482,173.1,-148.5,-32.7,x,,,,,
898995,-0.56883395,5.920419,-2.2938783,3.88722,-7.294254,3.589962,175.5,-148.5,-33.300003,x,,,,,
899036,0.30146405,6.43542,-2.1784368,3.7652678,-7.294254,3.490876,161.1,-150.90001,-33.9,x,,,,,
899056,0.7177716,7.116107,-2.2071476,3.155508,-5.9527817,3.445144,158.70001,-146.1,-33.9,x,,,,,
899076,0.6095077,7.4779835,-2.7377005,2.51526,-4.108258,2.347576,151.5,-155.70001,-34.5,x,,,,,
899096,0.50363636,8.089884,-3.0756512,3.2088618,-3.6585598,1.6158639,149.1,-150.90001,-30.900002,x,,,,,
899116,0.5221788,8.3201685,-2.949443,2.903982,-3.50612,0.68597996,149.1,-153.3,-30.900002,x,,,,,
899136,0.2936882,8.18439,-3.2814124,2.454284,-2.2027578,-0.015244,153.90001,-155.70001,-32.7,x,,,,,
899157,0.0017944289,7.9164224,-3.3753207,2.59148,-1.8369019,-0.19055,151.5,-153.3,-30.300001,x,,,,,
899177,-0.022729432,8.582753,-3.5547638,3.2088618,-1.06708,0.487808,156.3,-153.3,-30.900002,x,,,,,
899197,-0.10048802,9.23473,-4.0272965,2.7286758,-0.221038,0.26677,153.90001,-153.3,-29.7,x,,,,,
899217,-0.20516303,9.242505,-4.611084,2.812518,0.33536798,-0.26677,151.5,-150.90001,-29.1,x,,,,,
899237,-0.42767224,8.486452,-4.5333257,2.492394,-0.07622,-0.55640596,146.70001,-148.5,-29.7,x,,,,,
899257,-0.29488447,8.362039,-4.5411015,2.43904,0.053354,0.35061198,149.1,-155.70001,-29.1,x,,,,,
899280,-0.08972145,8.506789,-4.5494757,1.94361,0.480186,0.868908,156.3,-153.3,-27.300001,x,,,,,
899300,0.05203844,8.488247,-4.3706307,1.326228,0.80793196,1.158544,153.90001,-150.90001,-27.900002,x,,,,,
899322,0.32359535,8.653933,-4.1816177,0.861286,1.326228,0.92226195,139.5,-158.1,-27.900002,x,,,,,
899342,0.4677478,8.8579,-3.911855,0.579272,1.6234859,0.442076,146.70001,-150.90001,-28.500002,x,,,,,
899362,0.54610455,9.088782,-3.7539454,0.274392,1.8978779,-0.083841994,144.3,-153.3,-26.7,x,,,,,
899382,0.28830492,8.771169,-3.5445952,-0.20579399,2.2637339,-0.746956,144.3,-153.3,-27.300001,,,,,,
899402,0.08134744,8.60967,-3.5529692,-0.129574,2.32471,-1.021348,146.70001,-155.70001,-26.7,,,,,,
899422,-0.04246815,8.647353,-3.4536774,0.106708,2.164648,-1.059458,149.1,-148.5,-27.300001,,,,,,
899466,-0.31821206,9.127662,-3.4793978,-0.160062,1.730194,-1.250008,149.1,-153.3,-28.500002,,,,,,
899486,-0.36247465,8.68384,-3.3830967,-0.33536798,1.6006199,-1.1432999,153.90001,-150.90001,-26.7,,,,,,
899506,-0.3074455,8.990088,-3.393265,-0.068598,1.5244,-0.655492,153.90001,-153.3,-27.900002,,,,,,
899528,-0.36666164,9.068445,-3.383695,-0.35061198,1.56251,-0.586894,146.70001,-153.3,-26.7,,,,,,
899548,-0.31223062,9.096559,-3.4076204,-0.373478,1.425314,-0.746956,149.1,-155.70001,-26.1,,,,,,
899568,-0.30565107,8.859096,-3.2826085,-0.503052,1.3719599,-0.899396,149.1,-148.5,-25.500002,,,,,,
899588,-0.3355582,8.845338,-3.2108314,-0.487808,1.471046,-0.640248,146.70001,-153.3,-26.1,,,,,,
899608,-0.38520408,8.865077,-3.2407386,-0.45731997,1.417692,-0.579272,151.5,-143.70001,-27.300001,,,,,,
899630,-0.47731808,8.857301,-3.2359536,-0.20579399,1.18141,-0.602138,153.90001,-148.5,-24.900002,,,,,,
899650,-0.39896137,9.0217905,-3.1659708,-0.007622,1.006104,-0.55640596,146.70001,-148.5,-24.900002,,,,,,
899670,-0.31223062,9.027174,-3.0828288,-0.26677,0.998482,-0.640248,151.5,-153.3,-26.1,,,,,,
899690,-0.31103435,8.861488,-3.1647744,-0.480186,1.097568,-0.56402797,146.70001,-153.3,-24.300001,,,,,,
899710,-0.33017492,8.901564,-3.1976724,-0.259148,0.907018,-0.503052,156.3,-146.1,-26.7,,,,,,
899730,-0.14594689,8.914722,-3.142045,-0.16768399,0.67835796,-0.49543,153.90001,-143.70001,-24.300001,,,,,,
899750,0.099291734,8.952406,-3.0660808,-0.198172,0.617382,-0.60976,153.90001,-150.90001,-26.1,,,,,,
899770,0.3588858,9.003248,-3.0732586,-0.33536798,0.846042,-0.731712,151.5,-146.1,-26.1,,,,,,
899794,0.43185923,8.978126,-3.1976724,-0.449698,0.94512796,-0.975616,149.1,-143.70001,-26.7,,,,,,
899856,0.93071043,8.513369,-3.309525,-0.480186,0.95274997,-0.853664,153.90001,-148.5,-25.500002,,,,,,
899876,0.83859646,8.556436,-3.481192,-0.525918,1.02897,-0.92988396,161.1,-141.3,-26.1,,,,,,
899896,0.66274244,8.921901,-3.7054956,0.022866,0.868908,-1.059458,156.3,-150.90001,-24.900002,,,,,,
899938,0.33256748,10.000951,-3.631326,0.56402797,0.35061198,-0.93750596,158.70001,-148.5,-24.900002,,,,,,
899958,-0.053832866,10.767172,-3.6163723,-0.259148,0.731712,-1.265252,161.1,-148.5,-24.300001,,,,,,
899978,-0.4067372,10.9005575,-3.6032133,-0.716468,0.853664,-2.080806,156.3,-143.70001,-24.300001,,,,,,
899998,-0.75186574,9.687524,-3.3478062,-0.716468,0.67835796,-2.446662,163.5,-143.70001,-24.900002,,,,,,
900018,-1.3446254,9.712646,-3.1109416,-0.007622,0.83842,-1.516778,158.70001,-146.1,-26.7,,,,,,
900038,-1.945161,9.39563,-3.0487347,-0.20579399,0.67073596,-1.570132,170.70001,-141.3,-23.7,,,,,,
900058,-2.5295467,8.671279,-2.89561,-0.3811,0.449698,-1.775926,163.5,-146.1,-24.300001,,,,,,
900080,-2.7371023,8.167044,-2.7867482,-0.396344,0.55640596,-1.6006199,161.1,-146.1,-25.500002,,,,,,
900100,-2.794524,8.199942,-2.6982229,-0.15244,0.663114,-1.227142,168.3,-146.1,-26.1,,,,,,
900120,-2.7377005,8.464919,-2.6826713,-0.07622,0.72409,-1.1128119,170.70001,-143.70001,-24.300001,,,,,,
900140,-2.5911553,8.551052,-2.86989,-0.060976,0.70122397,-1.021348,170.70001,-141.3,-24.900002,,,,,,
900162,-2.5235653,7.769279,-2.6384087,-0.26677,0.23628199,-0.983238,175.5,-141.3,-24.300001,,,,,,
900182,-2.5080135,7.3081107,-2.3524964,0.137196,0.28201398,0.099086,165.90001,-138.90001,-24.900002,,,,,,
900202,-2.3243835,7.8171306,-2.413507,0.07622,0.434454,0.579272,168.3,-141.3,-25.500002,,,,,,
900224,-2.221503,8.336319,-2.5827813,-0.434454,0.548784,0.144818,168.3,-146.1,-25.500002,,,,,,
900244,-1.9631052,8.366824,-2.5098078,-0.632626,0.548784,-0.45731997,168.3,-143.70001,-25.500002,,,,,,
900264,-1.4277673,9.536194,-2.890825,-0.30488,0.69360197,-0.274392,168.3,-150.90001,-23.7,,,,,,
900284,-1.1998748,9.645056,-2.7251394,-0.777444,0.510674,-1.166166,170.70001,-138.90001,-24.900002,,,,,,
900307,-1.5324423,8.820814,-2.7030082,-0.853664,0.716468,-0.868908,168.3,-143.70001,-24.900002,,,,,,
900348,-1.5796956,9.290955,-2.96978,-0.33536798,0.56402797,-0.68597996,175.5,-136.5,-23.7,,,,,,
900368,-1.5850788,9.415368,-3.0475385,-0.213416,0.388722,-0.769822,168.3,-141.3,-26.7,,,,,,
900388,-1.5204794,9.211402,-3.0086591,-0.251526,0.320124,-0.891774,165.90001,-138.90001,-24.900002,,,,,,
900408,-1.3015591,9.301722,-2.9476485,-0.213416,0.396344,-0.80793196,177.90001,-138.90001,-24.300001,,,,,,
900429,-1.1825286,9.401611,-3.0385664,-0.327746,0.632626,-0.525918,175.5,-141.3,-24.300001,,,,,,
900469,-0.8391946,9.288562,-2.978752,-0.320124,0.82317597,-0.091464,180.3,-136.5,-24.900002,,,,,,
900489,-0.6764997,9.445874,-3.213224,-0.129574,0.91463995,0.11432999,173.1,-138.90001,-23.7,,,,,,
900532,-0.99172103,8.714345,-3.405826,0.007622,0.106708,0.129574,173.1,-141.3,-24.900002,,,,,,
900552,-1.1047701,8.647353,-3.530838,0.64787,-0.518296,0.373478,173.1,-141.3,-24.300001,,,,,,
900572,-0.75366014,9.025977,-3.6247463,0.846042,-1.051836,0.46494198,170.70001,-136.5,-24.900002,,,,,,
900595,-0.8140726,8.657521,-3.7431786,0.182928,-1.21952,0.121952,173.1,-141.3,-24.900002,x,,,,,
900616,-0.46415895,8.829188,-3.719253,0.15244,-1.3567159,0.198172,168.3,-146.1,-24.900002,x,,,,,
900636,0.004785144,8.906947,-3.6319242,-0.388722,-0.769822,0.015244,170.70001,-143.70001,-24.900002,x,,,,,
900656,-0.3481192,8.25856,-3.7348046,-1.1051899,0.33536798,-0.41158798,173.1,-141.3,-23.7,x,,,,,
900676,-0.4079335,8.772963,-4.457361,-0.93750596,0.899396,0.45731997,170.70001,-141.3,-23.7,x,,,,,
900697,0.5138048,9.074427,-3.7581322,-1.6234859,0.327746,-0.518296,168.3,-141.3,-24.900002,x,,,,,
900718,0.23985533,7.806364,-3.8394797,-2.7058098,2.6677,-1.814036,170.70001,-136.5,-26.1,x,,,,,
900738,-0.52696395,6.965973,-4.7558346,-1.097568,5.403998,-1.8978779,173.1,-136.5,-24.900002,x,,,,,
900782,-0.124413736,8.86089,-6.116012,-0.480186,5.03052,-0.259148,170.70001,-141.3,-24.300001,x,,,,,
900802,0.21951847,8.839356,-6.6483593,-0.861286,6.471078,-0.967994,173.1,-143.70001,-25.500002,x,,,,,
900822,1.1986785,9.859789,-7.3978324,-1.227142,5.823208,-0.259148,173.1,-138.90001,-24.300001,x,,,,,
900845,1.6251545,9.112708,-6.129171,-4.260698,4.9161897,-2.7286758,173.1,-138.90001,-24.300001,x,,,,,
900865,1.8650098,8.01392,-5.3019395,-5.731744,5.708878,-4.024416,180.3,-134.1,-24.300001,x,,,,,
900885,1.8171583,6.908551,-4.865893,-7.0198617,7.385718,-5.838452,173.1,-134.1,-24.300001,x,,,,,
900905,1.0808444,5.1482167,-4.4166875,-7.042728,7.972612,-7.789684,177.90001,-129.3,-25.500002,x,,,,,
900925,0.82364285,3.844265,-3.6893458,-6.4634557,7.301876,-7.782062,185.1,-134.1,-26.1,x,,,,,
900945,0.9606176,3.8329,-2.7269337,-6.4329677,6.775958,-6.676872,189.90001,-124.50001,-25.500002,x,,,,,
900965,-0.08374002,2.7251394,-1.6413043,-6.608274,7.01224,-7.294254,201.90001,-129.3,-27.900002,x,,,,,
900985,-0.6848737,3.0953898,-0.89601815,-5.647902,7.4085836,-6.280528,204.3,-117.3,-27.300001,x,,,,,
901005,0.34692293,4.6703005,-0.5096178,-7.057972,7.8735256,-6.272906,209.1,-122.100006,-26.7,x,,,,,
901025,-2.2705507,5.0967765,0.5945541,-6.181442,9.37506,-7.370474,213.90001,-119.700005,-27.300001,x,,,,,
901045,-3.8430686,8.216092,1.0006932,-5.67839,8.841519,-6.051868,213.90001,-112.50001,-26.7,x,,,,,
901069,-3.811367,9.459033,2.2460268,-6.4177237,9.497012,-7.2409,223.50002,-117.3,-25.500002,x,,,,,
901089,-7.948124,12.570573,1.3625697,-3.650938,11.806478,-8.42231,221.1,-107.700005,-26.1,x,,,,,
901109,-10.023082,13.529396,0.3564932,-3.628072,7.3476076,-7.5915117,233.1,-112.50001,-24.300001,x,,,,,
901133,-8.811244,15.602559,2.6551566,-4.314052,2.347576,-3.7652678,230.70001,-105.3,-27.900002,x,,,,,
901193,-7.358953,17.317436,1.7555497,-1.493912,-8.025966,2.538126,240.3,-102.9,-29.7,x,,,,,
901213,-8.991285,13.273391,2.5026302,0.663114,-10.792751,1.570132,230.70001,-107.700005,-29.7,x,,,,,
901255,-5.9108486,14.397302,1.1041719,2.85825,-13.658624,7.294254,228.3,-110.100006,-31.500002,x,,,,,
901275,-4.751648,12.275688,1.183725,3.08691,-13.513805,6.93602,223.50002,-122.100006,-33.9,x,,,,,
901295,-4.82821,9.951304,0.85235375,4.100636,-12.012272,6.722604,211.50002,-117.3,-32.7,x,,,,,
901315,-4.1002703,9.856798,0.22430362,4.626554,-10.739398,7.446694,211.50002,-122.100006,-33.300003,x,,,,,
901335,-3.832302,9.057679,-0.29009935,4.53509,-9.954331,6.1204658,209.1,-129.3,-34.5,x,,,,,
901355,-3.3854892,7.4211597,-0.95044917,4.314052,-9.7028055,5.167716,201.90001,-126.9,-34.5,x,,,,,
901376,-3.6050076,6.4414015,-1.4343468,4.786616,-9.390304,4.794238,189.90001,-129.3,-35.7,x,,,,,
901396,-3.2556922,5.651853,-2.3608704,5.899428,-8.010722,4.38265,194.70001,-134.1,-35.100002,x,,,,,
901416,-2.4021423,5.6751804,-2.5199764,6.394858,-9.557988,5.632658,187.5,-134.1,-35.7,x,,,,,
901436,-1.748372,6.0753384,-2.01634,5.541194,-8.910118,6.0290017,185.1,-143.70001,-33.9,x,,,,,
901456,-1.5784993,5.978439,-2.506817,5.0381417,-7.073216,4.984788,173.1,-143.70001,-33.9,x,,,,,
901476,-1.3326626,5.8115573,-2.6868582,4.984788,-6.5091877,4.283564,177.90001,-141.3,-33.9,x,,,,,
901498,-0.9516455,6.013131,-2.9338913,4.9161897,-5.586926,3.8109999,168.3,-138.90001,-33.9,x,,,,,
901518,-0.9259253,5.567515,-3.5200713,5.251558,-4.054904,2.843006,170.70001,-141.3,-33.300003,x,,,,,
901538,-0.21832219,6.3702226,-3.5027251,5.785098,-5.000032,4.03966,161.1,-143.70001,-34.5,x,,,,,
901558,0.53115094,7.5611253,-3.241935,4.923812,-4.0472817,4.0320377,158.70001,-153.3,-31.500002,x,,,,,
901625,0.19379832,8.636586,-4.422071,3.0488,-0.99086,0.015244,151.5,-146.1,-31.500002,x,,,,,
901645,0.5843857,9.161756,-4.3167977,2.385686,-1.02897,-0.480186,161.1,-150.90001,-30.300001,x,,,,,
901665,0.3774282,9.13783,-4.3030405,1.265252,-0.213416,-0.983238,158.70001,-153.3,-29.7,x,,,,,
901726,-0.5048327,8.886012,-4.535718,1.6082419,0.487808,-0.3811,156.3,-150.90001,-31.500002,x,,,,,
901746,-0.5000475,9.329834,-4.725928,1.432936,0.975616,-0.69360197,158.70001,-148.5,-27.900002,x,,,,,
901766,-0.6753034,8.944032,-4.5219607,0.81555396,0.967994,-1.196654,156.3,-143.70001,-27.900002,x,,,,,
901790,-0.7542583,8.573183,-4.4184823,0.23628199,1.417692,-0.7622,156.3,-150.90001,-28.500002,x,,,,,
901857,-0.5682358,8.785524,-3.5972319,-0.320124,1.3414719,-0.442076,158.70001,-148.5,-27.300001,x,,,,,
901897,-0.36367092,8.884217,-3.2180092,-0.060976,1.059458,-0.80030996,161.1,-146.1,-24.900002,,,,,,
901917,-0.40255022,8.912331,-3.0044723,-0.121952,1.189032,-1.204276,163.5,-148.5,-27.300001,,,,,,
901941,-0.48329952,8.769374,-2.9255173,0.022866,1.234764,-1.6234859,158.70001,-146.1,-24.900002,,,,,,
901981,-0.71657526,8.969153,-3.045744,-0.03811,1.3872039,-1.1280559,165.90001,-143.70001,-26.1,,,,,,
902001,-0.9366919,8.9787245,-3.1055584,0.022866,1.18141,-0.868908,168.3,-146.1,-27.900002,,,,,,
902021,-0.9516455,9.08639,-3.0720623,0.060976,1.1051899,-0.640248,163.5,-148.5,-27.900002,,,,,,
902043,-0.9857396,9.040333,-3.1695597,-0.16768399,1.196654,-0.67835796,165.90001,-146.1,-27.300001,,,,,,
902064,-0.9941136,8.856105,-3.2108314,-0.297258,1.272874,-0.480186,165.90001,-148.5,-26.1,,,,,,
902084,-1.16279,8.621035,-3.2933753,-0.57164997,1.29574,-0.20579399,158.70001,-146.1,-23.7,,,,,,
902104,-1.2495207,8.723915,-3.4626496,-0.022866,1.036592,0.34298998,165.90001,-146.1,-27.300001,,,,,,
902124,-1.0575168,9.061866,-3.397452,0.243904,0.708846,0.41921,161.1,-150.90001,-27.300001,,,,,,
902144,-0.86611104,9.095362,-3.3149083,0.03811,0.617382,0.34298998,158.70001,-146.1,-26.1,,,,,,
902167,-0.7410991,8.965565,-3.237748,-0.365856,0.67073596,0.23628199,161.1,-148.5,-27.300001,,,,,,
902187,-0.80988556,8.87704,-3.2407386,-0.510674,0.739334,0.144818,158.70001,-141.3,-24.900002,,,,,,
902249,-0.88046646,8.924891,-3.0726604,-0.396344,0.716468,-0.144818,161.1,-146.1,-26.7,,,,,,
902276,-1.033591,9.095362,-3.1869059,-0.541162,0.792688,-0.365856,161.1,-146.1,-24.300001,,,,,,
902296,-1.1286958,8.817225,-3.1426432,-0.640248,0.663114,-0.46494198,168.3,-143.70001,-27.300001,,,,,,
902340,-1.2662686,8.727504,-3.2245889,-0.15244,0.28201398,0.083841994,161.1,-143.70001,-26.7,,,,,,
902360,-1.2040617,9.011622,-3.2772253,-0.045732,0.19055,0.320124,163.5,-143.70001,-26.1,,,,,,
902380,-1.1436493,9.011622,-3.3029454,-0.137196,0.068598,0.30488,163.5,-146.1,-26.7,,,,,,
902400,-1.0503391,9.022986,-3.3268712,-0.060976,0.015244,0.358234,158.70001,-148.5,-24.900002,,,,,,
902420,-1.0658908,8.940443,-3.301151,-0.160062,0.015244,0.41921,163.5,-148.5,-24.900002,,,,,,
902440,-0.9941136,8.88661,-3.3155065,-0.11432999,-0.03811,0.57164997,158.70001,-148.5,-25.500002,,,,,,
902460,-0.9002052,8.909938,-3.212626,-0.106708,-0.083841994,0.617382,163.5,-148.5,-26.7,,,,,,
902480,-0.7847636,9.086988,-3.1994667,-0.083841994,-0.091464,0.518296,158.70001,-148.5,-25.500002,,,,,,
902523,-0.6406111,8.9464245,-3.087614,-0.19055,-0.20579399,0.068598,165.90001,-143.70001,-26.1,,,,,,
902543,-0.6005356,8.958387,-3.075053,-0.07622,-0.40396598,-0.129574,151.5,-143.70001,-26.1,,,,,,
902563,-0.66034985,8.851918,-3.0403607,-0.03811,-0.518296,-0.41921,156.3,-146.1,-26.1,,,,,,
902583,-0.5915634,8.878835,-3.145634,0.091464,-0.525918,-0.55640596,158.70001,-141.3,-27.300001,,,,,,
902603,-0.5484971,8.732289,-3.2616737,0.060976,-0.708846,-0.480186,158.70001,-148.5,-25.500002,,,,,,
902623,-0.6071151,8.727504,-3.299955,0.16768399,-0.67835796,-0.099086,156.3,-146.1,-26.7,,,,,,
902645,-0.51859,8.938648,-3.3125157,0.11432999,-0.16768399,0.137196,161.1,-143.70001,-27.300001,,,,,,
902665,-0.5682358,9.036146,-3.326273,-0.068598,0.099086,0.182928,163.5,-146.1,-24.900002,,,,,,
902686,-0.5371324,8.949415,-3.343619,-0.327746,0.30488,-0.106708,158.70001,-146.1,-25.500002,,,,,,
902706,-0.5778061,8.877638,-3.4088168,-0.40396598,0.434454,-0.221038,158.70001,-148.5,-26.1,,,,,,
902726,-0.5215807,8.764589,-3.3735263,-0.396344,0.320124,-0.23628199,158.70001,-146.1,-26.1,,,,,,
902746,-0.30804363,8.94762,-3.3980503,-0.41158798,0.358234,-0.16768399,156.3,-138.90001,-25.500002,,,,,,
902768,-0.27753833,8.784925,-3.4082186,-0.70122397,0.47256398,-0.221038,161.1,-148.5,-26.1,,,,,,
902789,-0.036486723,9.094764,-3.5762968,-0.68597996,0.716468,-0.259148,158.70001,-148.5,-25.500002,x,,,,,
902809,0.21832219,9.066651,-3.941164,-1.3948259,1.204276,-0.548784,163.5,-150.90001,-26.7,x,,,,,
902829,0.34034336,8.820216,-4.450184,-1.996964,1.8826339,-0.846042,156.3,-143.70001,-26.1,x,,,,,
902849,0.4426258,8.621633,-4.9053707,-1.966476,2.317088,-0.80793196,161.1,-146.1,-26.1,x,,,,,
902869,0.8062967,8.030069,-4.787536,-2.606724,1.94361,-0.82317597,163.5,-143.70001,-26.1,x,,,,,
902889,0.9091773,7.0539002,-4.640991,-2.85825,3.1783738,-0.907018,158.70001,-146.1,-26.7,x,,,,,
902913,1.3864954,7.062274,-5.1350574,-2.82014,3.445144,0.182928,161.1,-143.70001,-29.1,x,,,,,
902933,1.7806716,7.939152,-5.0722523,-2.614346,4.740884,-0.53354,153.90001,-146.1,-26.7,x,,,,,
902993,1.9607127,6.307418,-4.3359385,-4.9161897,7.9040136,-7.149436,168.3,-146.1,-27.300001,x,,,,,
903053,0.006579573,3.109147,-3.740188,-5.266802,11.951296,-8.452798,187.5,-129.3,-29.1,x,,,,,
903073,-0.62565756,3.1994667,-3.2102332,-4.87808,11.455866,-8.80341,187.5,-126.9,-26.7,x,,,,,
903093,-0.57601166,4.547083,-2.8914232,-2.40093,11.303426,-8.033587,192.3,-126.9,-29.1,x,,,,,
903113,-0.6447981,6.245809,-1.8751782,-3.589962,10.182992,-9.03207,206.70001,-126.9,-27.300001,x,,,,,
903133,-2.1353705,5.58845,-0.732127,-3.7881339,12.294286,-11.532085,206.70001,-114.9,-25.500002,x,,,,,
903153,-4.1056533,8.152091,-1.8835522,-2.32471,13.83393,-9.725672,216.3,-114.9,-24.300001,x,,,,,
903173,-4.6051025,10.999849,0.36127836,-4.641798,8.948228,-9.420792,218.70001,-112.50001,-23.7,x,,,,,
903197,-7.6526413,8.956593,0.45638308,-2.843006,12.172334,-12.469592,223.50002,-107.700005,-24.900002,x,,,,,
903218,-9.704271,11.994561,-1.2788297,-1.3795819,8.6204815,-8.109808,235.50002,-105.3,-20.7,x,,,,,
903238,-9.695897,15.283151,-0.30684733,-1.516778,1.3795819,-5.000032,242.70001,-95.700005,-21.300001,x,,,,,
903259,-10.246787,15.156344,-0.25301448,-0.625004,0.3811,-4.771372,242.70001,-90.9,-20.7,x,,,,,
903280,-10.911922,16.18515,-0.8607277,-0.297258,-3.361302,-0.731712,242.70001,-90.9,-23.1,x,,,,,
903300,-10.794686,16.873613,-1.1454438,-0.426832,-5.960404,0.83842,247.50002,-88.5,-21.900002,x,,,,,
903320,-9.753918,16.651104,-0.86132586,-0.365856,-8.407065,1.707328,245.1,-93.3,-24.300001,x,,,,,
903340,-9.366321,15.086362,-0.15432088,-0.365856,-9.253108,3.2545938,249.90001,-98.100006,-24.900002,x,,,,,
903360,-8.502603,14.9715185,-0.2685662,-0.068598,-9.253108,5.9375377,245.1,-98.100006,-27.300001,x,,,,,
903380,-8.0498085,13.293728,0.19140574,-0.15244,-9.314084,6.9588857,235.50002,-100.50001,-28.500002,x,,,,,
903402,-7.12149,11.950298,0.11424531,0.40396598,-8.3842,8.1250515,235.50002,-107.700005,-30.300001,x,,,,,
903422,-6.3277545,10.6415615,-0.13936731,0.53354,-7.599134,8.452798,228.3,-107.700005,-29.7,x,,,,,
903484,-4.124794,6.375606,-1.1526215,2.050318,-8.346089,7.477182,204.3,-124.50001,-33.300003,x,,,,,
903505,-3.5164826,5.254088,-1.710689,2.568614,-8.11743,7.179924,204.3,-129.3,-33.9,x,,,,,
903525,-2.9219284,4.681665,-2.318402,3.6814258,-8.300358,6.951264,192.3,-126.9,-33.9,x,,,,,
903546,-1.9864328,4.3706307,-2.6342216,4.26832,-9.314084,7.0808377,197.1,-136.5,-32.7,x,,,,,
903567,-1.1765472,4.5883546,-2.39317,4.718018,-9.10829,7.218034,185.1,-141.3,-33.9,x,,,,,
903587,-0.44202766,5.468223,-2.8716843,4.8857017,-7.9954777,7.5305357,173.1,-138.90001,-33.9,x,,,,,
903607,0.19499461,5.9640837,-2.8058887,4.550334,-7.5762677,6.9741297,177.90001,-143.70001,-32.7,x,,,,,
903631,0.49346796,5.4861674,-3.0559125,3.2774599,-5.4116197,5.190582,165.90001,-148.5,-32.100002,x,,,,,
903651,0.6238631,5.6715918,-3.4758089,4.580822,-5.000032,5.4421077,161.1,-150.90001,-31.500002,x,,,,,
903672,1.3918787,7.5049,-3.1522136,4.5427117,-5.266802,5.853696,158.70001,-150.90001,-31.500002,x,,,,,
903692,1.8034011,8.576772,-3.1450357,3.2164838,-3.833866,3.7805119,158.70001,-150.90001,-30.900002,x,,,,,
903715,1.5300497,8.259756,-3.5422027,2.492394,-2.492394,1.150922,153.90001,-150.90001,-31.500002,x,,,,,
903735,1.2196136,7.8081584,-3.3585727,1.996964,-2.47715,0.34298998,153.90001,-158.1,-29.1,x,,,,,
903755,1.0862277,8.483461,-3.5218658,1.8445239,-1.570132,0.663114,149.1,-153.3,-29.7,x,,,,,
903778,1.0282078,9.692308,-4.073354,1.425314,-0.731712,0.0,144.3,-148.5,-29.7,x,,,,,
903798,0.8152689,9.746739,-4.2486095,1.3795819,-0.853664,-1.1432999,151.5,-150.90001,-29.1,x,,,,,
903818,-0.06459944,8.207718,-4.183412,0.975616,-0.541162,-2.065562,151.5,-146.1,-30.300001,x,,,,,
903838,-0.36905423,7.7985883,-4.4920535,2.05794,-0.358234,-1.211898,156.3,-143.70001,-30.900002,x,,,,,
903861,-0.10108616,8.499612,-4.320985,2.2027578,-0.632626,-0.03811,151.5,-153.3,-29.7,x,,,,,
903881,0.086132586,8.653933,-4.0099506,1.547266,-0.34298998,0.20579399,158.70001,-141.3,-29.1,x,,,,,
903901,0.056225438,8.645558,-3.6875515,0.80793196,0.579272,0.777444,151.5,-150.90001,-27.900002,x,,,,,
903921,-0.026318291,8.775355,-3.853237,0.129574,1.8292799,0.95274997,151.5,-158.1,-26.7,x,,,,,
903941,-0.16389118,8.850721,-3.7587304,0.160062,1.8597679,0.731712,151.5,-146.1,-27.900002,x,,,,,
903961,-0.22430362,9.003846,-3.731814,0.053354,2.01983,0.53354,158.70001,-155.70001,-27.900002,,,,,,
903981,-0.2296869,9.412976,-3.7521508,0.274392,1.539644,0.015244,144.3,-153.3,-27.900002,,,,,,
904001,-0.18362989,8.929676,-3.459061,0.137196,1.288118,-0.72409,151.5,-148.5,-26.7,,,,,,
904021,-0.3271842,8.78672,-3.166569,0.045732,1.280496,-0.861286,146.70001,-150.90001,-27.300001,,,,,,
904041,-0.5281602,8.945229,-3.263468,-0.03811,1.5929979,-0.975616,151.5,-153.3,-26.7,,,,,,
904083,-0.75605273,8.856105,-3.2347572,-0.20579399,1.547266,-1.3872039,149.1,-150.90001,-27.900002,,,,,,
904103,-0.7805766,8.755617,-3.200065,-0.11432999,1.3719599,-1.150922,151.5,-148.5,-26.7,,,,,,
904123,-0.62565756,8.819618,-3.0355756,-0.091464,1.272874,-0.67073596,151.5,-150.90001,-27.300001,,,,,,
904147,-0.7249493,8.863282,-3.2066445,-0.510674,1.585376,-0.320124,153.90001,-150.90001,-26.7,,,,,,
904187,-0.64898515,8.801076,-3.3005528,0.30488,1.272874,0.007622,149.1,-148.5,-27.900002,,,,,,
904210,-0.59216154,8.988893,-3.2359536,0.487808,1.06708,0.17530599,158.70001,-148.5,-26.7,,,,,,
904230,-0.5473008,8.982313,-3.1611855,0.251526,1.044214,0.045732,144.3,-150.90001,-26.1,,,,,,
904252,-0.48509395,9.197046,-3.267057,0.129574,1.097568,-0.144818,153.90001,-150.90001,-25.500002,,,,,,
904274,-0.5796005,8.878236,-3.183317,-0.16768399,0.998482,-0.373478,151.5,-148.5,-25.500002,,,,,,
904294,-0.5514878,8.912331,-3.1569986,-0.19055,0.830798,-0.17530599,149.1,-148.5,-26.7,,,,,,
904314,-0.5514878,9.040931,-3.1133342,-0.15244,0.754578,-0.15244,151.5,-150.90001,-26.1,,,,,,
904336,-0.51141226,9.238318,-3.0529218,-0.487808,0.617382,-0.35061198,156.3,-153.3,-24.300001,,,,,,
904356,-0.6513777,8.958985,-3.1223063,-0.83842,0.640248,-0.525918,149.1,-148.5,-25.500002,,,,,,
904378,-0.67709786,9.083998,-3.2078407,-0.480186,0.46494198,-0.396344,151.5,-148.5,-25.500002,,,,,,
904398,-0.76622117,9.012818,-3.183317,-0.320124,0.33536798,-0.320124,153.90001,-150.90001,-24.300001,,,,,,
904418,-0.7434917,8.877638,-3.1737466,-0.198172,0.213416,-0.23628199,153.90001,-148.5,-24.900002,,,,,,
904438,-0.62446123,8.820216,-3.128886,-0.068598,0.221038,0.053354,153.90001,-143.70001,-26.7,,,,,,
904461,-0.63283527,8.907545,-3.1569986,-0.022866,0.320124,0.259148,149.1,-150.90001,-25.500002,,,,,,
904481,-0.598143,8.950013,-3.1851113,-0.030488,0.33536798,0.312502,146.70001,-148.5,-26.1,,,,,,
904505,-0.59754485,8.963172,-3.237748,-0.045732,0.297258,0.083841994,149.1,-150.90001,-26.7,,,,,,
904525,-0.59216154,8.832179,-3.2688513,-0.144818,0.20579399,0.0,151.5,-153.3,-26.1,,,,,,
904545,-0.5090197,8.881825,-3.237748,-0.068598,0.137196,0.068598,156.3,-150.90001,-26.7,,,,,,
904566,-0.5443101,8.884217,-3.3125157,-0.160062,0.121952,0.099086,158.70001,-150.90001,-24.300001,,,,,,
904587,-0.5275621,8.917713,-3.3442173,-0.053354,-0.015244,0.121952,151.5,-148.5,-24.300001,,,,,,
904607,-0.46535522,9.024781,-3.3723302,0.007622,-0.03811,0.030488,151.5,-148.5,-24.900002,,,,,,
904627,-0.38998923,8.945229,-3.4351351,-0.137196,-0.07622,0.03811,146.70001,-148.5,-25.500002,,,,,,
904671,-0.17106889,8.8256,-3.4088168,-0.33536798,-0.274392,0.243904,149.1,-150.90001,-26.1,,,,,,
904693,0.12082488,8.911732,-3.299955,-0.426832,-0.221038,0.015244,149.1,-153.3,-26.1,,,,,,
904713,0.19320019,8.813039,-3.3155065,-0.541162,-0.137196,-0.15244,149.1,-150.90001,-24.300001,,,,,,
904733,0.33137122,8.924891,-3.2239907,-0.40396598,-0.22865999,-0.449698,151.5,-153.3,-25.500002,,,,,,
904757,0.46954224,8.898573,-3.204252,-0.708846,-0.15244,-0.64787,141.90001,-150.90001,-26.1,,,,,,
904777,0.5257677,8.973341,-3.3137121,-0.80793196,-0.015244,-0.746956,146.70001,-148.5,-27.300001,,,,,,
904799,0.67470527,9.081605,-3.5033233,-1.06708,0.22865999,-0.655492,146.70001,-143.70001,-27.300001,,,,,,
904819,0.64898515,8.692812,-3.5954373,-1.570132,0.198172,-0.91463995,144.3,-146.1,-26.7,,,,,,
904839,0.79134315,8.601894,-3.7832544,-1.661596,0.548784,-0.746956,149.1,-153.3,-26.7,,,,,,
904859,0.73451954,8.382376,-4.1427383,-2.088428,0.846042,-0.891774,151.5,-153.3,-27.900002,x,,,,,
904879,0.5592637,7.6807537,-4.1612806,-2.2027578,0.777444,-0.95274997,146.70001,-150.90001,-27.900002,x,,,,,
904899,0.38759664,7.3027277,-4.398145,-2.179892,1.082324,-0.525918,149.1,-150.90001,-27.900002,x,,,,,
904919,0.1614986,7.241717,-4.7337036,-2.126538,1.478668,-0.327746,151.5,-153.3,-28.500002,x,,,,,
904941,0.23507018,8.540285,-5.547178,-0.907018,3.54423,-0.213416,151.5,-150.90001,-26.7,x,,,,,
904961,1.5623494,10.443576,-6.2972493,-1.6158639,3.940574,-0.868908,149.1,-150.90001,-29.1,x,,,,,
904981,1.3757288,8.404507,-5.624338,-3.6661818,4.321674,-4.984788,158.70001,-153.3,-30.300001,x,,,,,
905001,0.8972145,6.592732,-5.883334,-2.47715,7.400962,-5.251558,158.70001,-153.3,-29.1,x,,,,,
905021,1.5539755,8.080912,-5.61417,-2.97258,6.9588857,-3.536608,163.5,-146.1,-28.500002,x,,,,,
905045,0.9438696,6.651948,-5.0387564,-5.9527817,9.779026,-7.248522,158.70001,-146.1,-27.900002,x,,,,,
905105,-0.39297992,2.9093673,-1.8889354,-6.654006,8.239382,-9.062558,189.90001,-131.70001,-29.7,x,,,,,
905125,-1.309335,3.299955,-0.30923992,-5.5640597,11.01379,-8.292736,187.5,-129.3,-30.300001,x,,,,,
905145,-1.8034011,6.163863,-0.78715616,-4.222588,13.140327,-6.36437,192.3,-131.70001,-28.500002,x,,,,,
905165,-1.4403282,7.519255,0.49526238,-6.623518,12.827826,-7.134192,201.90001,-129.3,-27.900002,x,,,,,
905187,-4.249806,6.736286,0.89183116,-4.870458,15.404061,-8.513774,206.70001,-126.9,-27.900002,x,,,,,
905207,-5.3156967,10.436996,-0.45997193,-2.865872,14.512288,-6.242418,206.70001,-122.100006,-25.500002,x,,,,,
905229,-5.6697974,11.790594,0.77758586,-4.275942,10.358297,-7.85066,213.90001,-119.700005,-24.900002,x,,,,,
905249,-7.573686,11.058467,0.55746925,-1.493912,8.30798,-7.271388,223.50002,-112.50001,-26.1,x,,,,,
905269,-7.460039,13.108303,-0.32060462,-0.015244,4.397894,-4.199722,218.70001,-110.100006,-23.1,x,,,,,
905289,-6.464131,14.657494,0.6292464,-0.525918,0.03811,-2.919226,221.1,-110.100006,-23.1,x,,,,,
905309,-7.3194757,16.673235,0.36845607,-0.083841994,-1.089946,-1.920744,223.50002,-117.3,-24.300001,x,,,,,
905333,-7.1382384,17.084757,0.4970568,-0.67835796,-5.632658,-2.01983,223.50002,-105.3,-24.900002,x,,,,,
905395,-7.48875,14.918882,0.31701577,0.49543,-12.522945,4.15399,230.70001,-105.3,-28.500002,x,,,,,
905416,-6.333736,14.72628,0.49526238,0.243904,-11.966539,6.128088,225.90001,-112.50001,-30.900002,x,,,,,
905436,-6.0185146,13.44446,0.6011337,-0.579272,-11.1586075,6.082356,221.1,-114.9,-32.100002,x,,,,,
905456,-6.4695144,10.310788,0.13697474,-0.297258,-10.045795,5.282046,216.3,-114.9,-32.7,x,,,,,
905520,-3.4417148,6.904364,-1.0186375,2.408552,-9.56561,4.64942,204.3,-134.1,-33.300003,x,,,,,
905540,-3.4997346,5.247508,-1.7896438,3.3155699,-8.04121,3.490876,199.50002,-136.5,-36.9,x,,,,,
905560,-2.9637985,5.0692616,-2.317804,4.550334,-8.170784,4.740884,194.70001,-129.3,-35.100002,x,,,,,
905583,-1.9355906,6.8367743,-2.226288,4.519846,-8.6509695,5.4268637,189.90001,-134.1,-35.7,x,,,,,
905603,-1.7334183,5.6416845,-1.991816,4.0320377,-6.8369336,2.865872,187.5,-136.5,-35.100002,x,,,,,
905623,-1.1520233,5.4993267,-2.573211,4.9771657,-5.777476,3.3155699,185.1,-138.90001,-36.300003,x,,,,,
905645,-0.8685036,5.5872536,-2.552874,4.657042,-5.045764,3.4299,182.70001,-136.5,-37.5,x,,,,,
905665,-0.7757914,5.761313,-2.8597217,5.0228977,-4.222588,3.513742,175.5,-141.3,-34.5,x,,,,,
905706,-0.029907148,7.2518854,-2.945256,4.778994,-2.7134318,3.460388,170.70001,-143.70001,-33.9,x,,,,,
905726,0.093908444,7.9385533,-3.3394322,4.169234,-1.44818,2.149404,165.90001,-138.90001,-33.9,x,,,,,
905747,-0.32897863,8.173025,-3.6510646,3.7805119,-0.655492,0.998482,165.90001,-141.3,-31.500002,x,,,,,
905767,-0.09091773,8.573183,-3.6588407,2.919226,-0.853664,0.67835796,165.90001,-143.70001,-30.300001,x,,,,,
905787,-0.13518031,8.327347,-3.572708,1.996964,-0.099086,0.182928,165.90001,-141.3,-32.100002,x,,,,,
905807,-0.22250919,8.899769,-4.118214,1.79117,0.33536798,0.259148,163.5,-146.1,-30.300001,x,,,,,
905828,-0.48329952,8.628811,-4.2444224,1.3414719,0.11432999,-0.327746,168.3,-146.1,-28.500002,x,,,,,
905849,-0.48329952,8.691615,-4.3945565,1.6387299,-0.07622,-0.20579399,168.3,-148.5,-30.900002,x,,,,,
905869,-0.37922263,9.061268,-4.401136,1.8597679,-0.289636,0.144818,163.5,-148.5,-30.300001,x,,,,,
905889,-0.38041893,9.683336,-4.5129886,1.6234859,0.129574,0.426832,165.90001,-150.90001,-29.7,x,,,,,
905909,-0.6878644,9.137232,-4.4328375,0.83842,-0.07622,-0.41921,165.90001,-141.3,-30.300001,x,,,,,
905929,-0.7805766,8.6437645,-4.0261,0.87653,0.22865999,-0.160062,168.3,-146.1,-27.900002,x,,,,,
905950,-0.6896588,9.036744,-4.0440445,0.625004,0.632626,0.11432999,168.3,-146.1,-28.500002,x,,,,,
905970,-0.6639387,8.955995,-3.7922266,0.182928,0.960372,0.15244,158.70001,-143.70001,-29.7,x,,,,,
905990,-0.58259124,8.961378,-3.547586,-0.045732,1.082324,0.182928,168.3,-141.3,-30.300001,x,,,,,
906010,-0.4468128,9.009828,-3.2861974,-0.41158798,1.3872039,0.23628199,158.70001,-143.70001,-29.7,x,,,,,
906030,-0.46535522,8.79629,-3.2748327,-0.7622,1.821658,0.129574,161.1,-143.70001,-28.500002,x,,,,,
906050,-0.5203844,8.557034,-3.2281775,-0.586894,1.75306,0.17530599,165.90001,-146.1,-30.300001,x,,,,,
906110,-0.21652776,9.267627,-2.8046925,-0.030488,1.3719599,0.106708,161.1,-143.70001,-27.900002,x,,,,,
906174,-0.6364241,8.938648,-3.116923,-0.518296,2.36282,-0.716468,163.5,-143.70001,-27.900002,,,,,,
906194,-0.67291087,9.020595,-3.070268,-0.251526,2.32471,-0.541162,163.5,-143.70001,-27.900002,,,,,,
906214,-0.8056986,8.954201,-3.0559125,-0.365856,2.317088,-0.625004,158.70001,-150.90001,-26.7,,,,,,
906234,-0.9731786,8.73528,-3.049931,-0.297258,2.13416,-0.49543,161.1,-150.90001,-27.300001,,,,,,
906254,-1.0623019,8.638979,-3.0600994,-0.022866,1.6082419,-0.160062,158.70001,-143.70001,-27.900002,,,,,,
906274,-1.1245087,8.917115,-3.1354654,0.297258,1.3490939,0.121952,158.70001,-148.5,-26.7,,,,,,
906294,-1.0120579,9.152783,-3.2066445,0.426832,0.975616,0.274392,153.90001,-143.70001,-26.7,,,,,,
906314,-1.0126561,8.960181,-3.137858,-0.19055,0.861286,0.442076,153.90001,-146.1,-24.900002,,,,,,
906334,-1.0234226,8.869863,-3.2102332,-0.41921,0.769822,0.769822,153.90001,-150.90001,-27.300001,,,,,,
906357,-1.004282,8.977528,-3.3041418,-0.373478,0.46494198,0.975616,156.3,-146.1,-27.300001,,,,,,
906418,-0.5347398,9.049903,-3.0595014,0.022866,-0.632626,0.70122397,158.70001,-146.1,-27.300001,,,,,,
906438,-0.43066293,9.008632,-2.932097,-0.129574,-0.434454,0.548784,153.90001,-150.90001,-27.300001,,,,,,
906460,-0.4396351,8.999061,-2.9823408,-0.20579399,-0.243904,0.33536798,158.70001,-148.5,-27.300001,,,,,,
906480,-0.59216154,8.890199,-3.100773,-0.022866,-0.144818,0.144818,153.90001,-146.1,-24.900002,,,,,,
906500,-0.62805015,8.983509,-3.133671,0.083841994,-0.17530599,0.144818,149.1,-148.5,-26.7,,,,,,
906520,-0.6364241,9.039735,-3.1653726,0.091464,-0.251526,0.015244,153.90001,-150.90001,-28.500002,,,,,,
906540,-0.65077955,9.012818,-3.20485,-0.099086,-0.160062,-0.083841994,158.70001,-148.5,-26.7,,,,,,
906560,-0.69564027,8.9787245,-3.3017492,-0.19055,-0.091464,-0.129574,151.5,-148.5,-26.1,,,,,,
906584,-0.56883395,9.049305,-3.2497108,-0.11432999,-0.030488,0.091464,151.5,-153.3,-27.300001,,,,,,
906604,-0.5538804,8.962574,-3.1581948,-0.3811,0.121952,0.015244,149.1,-150.90001,-26.7,,,,,,
906624,-0.53832865,9.083998,-3.1067545,-0.396344,0.259148,0.015244,156.3,-150.90001,-26.7,,,,,,
906666,-0.619078,8.772365,-3.0738568,-0.754578,0.373478,-0.160062,156.3,-146.1,-26.7,,,,,,
906686,-0.65317214,8.864479,-3.0475385,-0.28201398,0.327746,0.007622,151.5,-155.70001,-26.7,,,,,,
906706,-0.656761,9.069044,-3.0086591,-0.144818,0.41921,-0.121952,153.90001,-148.5,-27.300001,,,,,,
906726,-0.63283527,9.030165,-2.96978,-0.16768399,0.434454,-0.320124,149.1,-148.5,-27.300001,,,,,,
906746,-0.59515226,8.957789,-2.9219284,-0.17530599,0.49543,-0.426832,153.90001,-146.1,-26.7,,,,,,
906766,-0.7315289,8.888405,-2.9727705,-0.259148,0.68597996,-0.426832,156.3,-148.5,-27.300001,,,,,,
906786,-0.86611104,8.985304,-3.100773,-0.045732,0.68597996,-0.358234,146.70001,-146.1,-27.900002,,,,,,
906806,-0.86371845,8.945229,-3.137858,-0.007622,0.510674,-0.23628199,151.5,-150.90001,-27.900002,,,,,,
906846,-0.6800886,9.051698,-3.1480265,-0.07622,0.434454,-0.03811,151.5,-150.90001,-27.900002,,,,,,
906890,-0.61309654,8.957789,-3.1743448,-0.22865999,0.434454,0.053354,153.90001,-146.1,-26.7,,,,,,
906910,-0.5508897,8.880629,-3.0894084,-0.251526,0.34298998,-0.083841994,149.1,-148.5,-27.900002,,,,,,
906930,-0.41570938,9.022986,-3.0523236,-0.137196,0.41158798,-0.091464,151.5,-148.5,-27.900002,,,,,,
906950,-0.3774282,8.985902,-3.1426432,-0.33536798,0.53354,-0.33536798,151.5,-153.3,-27.300001,,,,,,
906971,-0.38998923,8.893189,-3.2036538,-0.396344,0.602138,-0.46494198,149.1,-148.5,-24.900002,,,,,,
906991,-0.18662061,9.008033,-3.2742345,-0.426832,0.640248,-0.510674,156.3,-153.3,-27.900002,,,,,,
907011,-0.12202117,8.961976,-3.4243686,-0.868908,0.769822,-0.64787,151.5,-150.90001,-27.300001,,,,,,
907031,0.16448931,9.006239,-3.5254548,-1.1051899,0.853664,-0.67835796,158.70001,-153.3,-26.7,,,,,,
907051,0.23028505,8.744252,-3.5709136,-1.760682,1.1128119,-0.94512796,156.3,-150.90001,-27.300001,,,,,,
907071,0.2865105,8.618044,-3.6504664,-1.94361,1.318606,-0.94512796,156.3,-148.5,-26.7,,,,,,
907091,0.48329952,9.07024,-3.9321918,-1.814036,1.3414719,-0.868908,149.1,-150.90001,-27.300001,,,,,,
907114,0.38400778,8.345291,-3.8831441,-2.583858,1.44818,-1.234764,151.5,-148.5,-28.500002,,,,,,
907134,0.36905423,7.7513347,-3.908266,-2.560992,1.577754,-1.059458,153.90001,-150.90001,-27.300001,x,,,,,
907154,0.93370116,8.552846,-4.0906997,-2.7058098,1.951232,-0.03811,156.3,-148.5,-27.900002,x,,,,,
907175,1.2363615,9.100147,-4.6499634,-3.3079479,2.881116,-0.57164997,156.3,-146.1,-28.500002,x,,,,,
907195,1.1346772,7.668791,-4.757031,-3.109776,3.7805119,-2.47715,161.1,-148.5,-30.300001,x,,,,,
907216,1.2883999,7.6663985,-5.0770373,-2.62959,4.30643,-2.675322,161.1,-153.3,-27.300001,x,,,,,
907237,1.7411942,7.8207192,-5.016625,-3.490876,4.550334,-3.879598,158.70001,-143.70001,-28.500002,x,,,,,
907257,1.8626173,6.6106763,-4.7767696,-4.4969797,6.9893737,-6.234796,163.5,-143.70001,-29.1,x,,,,,
907279,1.5707234,5.1105337,-5.0895987,-4.161612,9.79427,-7.400962,173.1,-143.70001,-29.1,x,,,,,
907299,1.338644,4.798901,-4.6236453,-5.076252,10.304944,-7.20279,180.3,-138.90001,-29.1,x,,,,,
907319,0.85953146,3.9262104,-4.1947765,-5.769854,11.6845255,-8.109808,177.90001,-136.5,-29.1,x,,,,,
907339,0.22191104,3.262272,-3.740188,-5.7165,11.905563,-8.201272,182.70001,-131.70001,-29.7,x,,,,,
907359,-1.0856295,2.878264,-2.8525438,-5.838452,12.073248,-8.5899935,194.70001,-126.9,-30.300001,x,,,,,
907379,-2.2735415,5.0261955,-2.39317,-2.865872,11.455866,-6.82169,204.3,-124.50001,-27.900002,x,,,,,
907399,-1.7017168,8.217288,-1.2315763,-4.199722,8.91774,-6.753092,204.3,-126.9,-28.500002,x,,,,,
907419,-2.5415094,6.236837,1.1789398,-5.000032,10.968058,-11.516842,211.50002,-122.100006,-27.900002,x,,,,,
907439,-5.0519156,8.040836,2.3118227,-4.870458,12.225688,-8.864386,218.70001,-114.9,-27.300001,x,,,,,
907459,-7.1549864,11.106916,-0.16030231,-2.85825,15.556501,-7.16468,225.90001,-112.50001,-24.900002,x,,,,,
907479,-8.41946,13.154959,0.2213129,-2.378064,9.862867,-7.263766,221.1,-114.9,-23.7,x,,,,,
907499,-8.646755,13.35115,0.8625222,-1.539644,6.219552,-6.311016,223.50002,-112.50001,-24.300001,x,,,,,
907521,-8.911732,15.016379,0.33017492,-1.4024479,3.7042918,-3.064044,233.1,-102.9,-21.900002,x,,,,,
907541,-8.251981,17.090738,0.3953725,-2.62959,-0.099086,-1.6463519,237.90001,-102.9,-23.7,x,,,,,
907561,-9.888499,15.359714,0.56225437,-1.8369019,-2.89636,-2.97258,230.70001,-102.9,-23.7,x,,,,,
907622,-8.668886,14.736448,1.2949796,-1.196654,-10.106771,2.843006,233.1,-107.700005,-27.900002,x,,,,,
907642,-8.585146,14.400292,0.83740014,-0.579272,-9.779026,4.375028,237.90001,-105.3,-30.300001,x,,,,,
907662,-8.50978,13.227932,0.14953575,-0.03811,-10.335432,6.181442,240.3,-107.700005,-30.900002,x,,,,,
907682,-7.4642262,11.9156065,-0.72136045,0.655492,-10.975679,7.73633,233.1,-112.50001,-31.500002,x,,,,,
907705,-6.161471,10.5984955,-1.0353855,0.56402797,-12.103736,8.673836,218.70001,-117.3,-33.9,x,,,,,
907725,-4.7648067,9.450061,-1.1496308,1.3490939,-11.844587,8.46042,209.1,-122.100006,-35.100002,x,,,,,
907745,-3.9543233,8.059977,-1.0814425,1.280496,-11.143364,7.599134,206.70001,-124.50001,-36.300003,x,,,,,
907765,-2.9458542,7.047919,-1.6634356,1.966476,-10.1372595,6.676872,194.70001,-129.3,-38.100002,x,,,,,
907785,-2.664727,6.6627145,-1.5402181,2.2713559,-10.144882,6.067112,194.70001,-131.70001,-36.300003,x,,,,,
907805,-1.8979076,5.844455,-1.3876917,2.7286758,-9.466524,5.076252,189.90001,-131.70001,-35.7,x,,,,,
907825,-1.4331505,5.4066143,-1.4612633,3.368924,-8.61286,4.718018,185.1,-141.3,-39.9,x,,,,,
907845,-1.1603974,5.016027,-1.4953574,3.7805119,-8.018344,4.740884,180.3,-138.90001,-38.100002,x,,,,,
907865,-0.5096178,5.3330426,-1.6125934,4.83997,-7.4543157,5.320156,175.5,-143.70001,-38.100002,x,,,,,
907886,0.0071777157,5.297154,-1.5222739,5.0533857,-6.9588857,4.786616,165.90001,-146.1,-36.300003,x,,,,,
907906,0.5371324,5.4658303,-1.4175988,5.175338,-6.265284,4.489358,165.90001,-146.1,-36.300003,x,,,,,
907928,0.7961283,6.421065,-1.836897,5.205826,-4.5731997,4.550334,158.70001,-153.3,-36.9,x,,,,,
907948,1.0581149,7.542583,-2.3704405,4.862836,-3.7881339,3.902464,156.3,-148.5,-35.100002,x,,,,,
908012,0.6782941,7.936759,-2.9147508,3.6661818,-2.675322,1.8521459,149.1,-155.70001,-35.100002,x,,,,,
908042,0.7434917,9.143811,-3.2521033,2.660078,-2.042696,0.884152,146.70001,-162.90001,-33.300003,x,,,,,
908063,0.59754485,8.74485,-3.2724402,1.8292799,-1.21952,-0.40396598,144.3,-160.5,-33.9,x,,,,,
908083,0.38879293,8.86747,-3.4459016,1.6234859,-0.434454,-0.625004,146.70001,-155.70001,-35.100002,x,,,,,
908147,0.000598143,9.924388,-3.7928245,1.310984,1.3872039,-0.594516,146.70001,-153.3,-32.7,x,,,,,
908167,-0.2171259,9.574474,-3.9860249,0.655492,1.463424,-1.471046,146.70001,-150.90001,-32.100002,x,,,,,
908188,-0.4133168,9.115101,-3.7976098,1.150922,1.3719599,-1.493912,149.1,-160.5,-31.500002,x,,,,,
908208,-0.63941485,8.726906,-3.7371974,1.013726,1.3948259,-1.5244,146.70001,-155.70001,-30.900002,x,,,,,
908229,-0.77997845,8.764589,-3.768899,1.3643379,1.3567159,-1.166166,156.3,-155.70001,-33.300003,x,,,,,
908249,-0.7482768,9.120484,-3.6085966,1.3795819,1.280496,-1.173788,151.5,-150.90001,-30.900002,x,,,,,
908269,-0.65795726,9.3029175,-3.5505767,0.769822,1.6006199,-1.196654,149.1,-148.5,-30.300001,x,,,,,
908289,-0.598143,9.218579,-3.4901643,0.19055,1.8978779,-1.234764,158.70001,-146.1,-31.500002,x,,,,,
908313,-0.47372922,9.009828,-3.2604773,-0.28201398,2.416174,-0.87653,151.5,-150.90001,-30.900002,x,,,,,
908333,-0.539525,8.930873,-3.267057,-0.426832,2.530504,-0.769822,153.90001,-153.3,-30.300001,x,,,,,
908353,-0.539525,8.881227,-3.1462321,-0.320124,2.355198,-0.617382,151.5,-153.3,-29.7,x,,,,,
908373,-0.4743274,9.018202,-3.0828288,-0.213416,2.187514,-0.602138,163.5,-150.90001,-29.1,x,,,,,
908393,-0.3911855,9.204224,-3.0062666,-0.198172,2.073184,-0.67835796,156.3,-148.5,-29.1,x,,,,,
908413,-0.48569208,8.984706,-3.0110517,-0.34298998,2.012208,-1.006104,156.3,-148.5,-28.500002,,,,,,
908433,-0.5335435,8.910536,-2.932695,-0.137196,1.8978779,-1.013726,156.3,-146.1,-28.500002,,,,,,
908453,-0.58976895,8.832777,-2.9530318,-0.198172,1.9131219,-0.891774,151.5,-153.3,-27.300001,,,,,,
908473,-0.6573591,8.817823,-2.9464524,-0.243904,1.9054999,-0.55640596,158.70001,-153.3,-27.300001,,,,,,
908493,-0.71478087,8.933864,-2.9344895,-0.129574,1.775926,-0.426832,153.90001,-150.90001,-29.1,,,,,,
908516,-0.66274244,8.984706,-2.848955,-0.17530599,1.699706,-0.41158798,158.70001,-153.3,-28.500002,,,,,,
908537,-0.7387066,9.055286,-2.8250291,-0.312502,1.707328,-0.41158798,156.3,-146.1,-30.300001,,,,,,
908557,-0.74708056,9.104933,-2.7161672,-0.60976,1.722572,-0.068598,161.1,-148.5,-27.300001,,,,,,
908577,-0.74408984,9.229346,-2.7598317,-0.56402797,1.806414,0.083841994,158.70001,-143.70001,-27.300001,,,,,,
908597,-0.9420752,9.22157,-2.9428635,-0.87653,1.669218,0.23628199,156.3,-150.90001,-29.7,,,,,,
908617,-0.99889874,9.179102,-2.845366,-0.388722,0.92226195,0.297258,153.90001,-150.90001,-27.900002,,,,,,
908638,-1.0365818,9.184485,-2.8525438,-0.40396598,0.716468,0.251526,156.3,-153.3,-28.500002,,,,,,
908658,-0.92951417,9.115699,-2.8435717,-0.487808,0.17530599,0.243904,156.3,-153.3,-28.500002,,,,,,
908678,-0.757249,9.493127,-2.8477588,0.007622,-0.182928,0.365856,156.3,-148.5,-28.500002,,,,,,
908698,-0.66034985,9.109119,-2.8052905,-0.289636,-0.434454,0.213416,156.3,-143.70001,-27.300001,,,,,,
908718,-0.70461243,8.97693,-2.690447,0.053354,-0.55640596,0.487808,163.5,-150.90001,-27.900002,,,,,,
908738,-0.5538804,9.167139,-2.6431937,0.022866,-0.503052,0.45731997,156.3,-150.90001,-29.1,,,,,,
908758,-0.56285256,9.149195,-2.7293265,-0.030488,-0.41158798,0.41921,158.70001,-150.90001,-27.900002,,,,,,
908782,-0.62984455,9.089979,-2.8244312,0.030488,-0.297258,0.34298998,144.3,-153.3,-29.1,,,,,,
908802,-0.73451954,8.911732,-2.8716843,0.099086,-0.358234,0.388722,151.5,-153.3,-29.1,,,,,,
908822,-0.631639,8.997267,-2.7430837,0.251526,-0.365856,0.586894,149.1,-146.1,-29.1,,,,,,
908842,-0.59216154,9.171925,-2.856731,0.0,-0.243904,0.55640596,149.1,-150.90001,-27.900002,,,,,,
908904,-0.4342518,8.917713,-2.7646167,-0.16768399,-0.19055,0.426832,156.3,-153.3,-28.500002,,,,,,
908936,-0.34273592,8.957789,-2.8974047,0.022866,0.091464,0.16768399,144.3,-155.70001,-27.300001,,,,,,
908958,-0.25540704,9.088184,-2.9805465,0.137196,0.15244,-0.07622,146.70001,-148.5,-28.500002,,,,,,
909000,-0.28770676,8.527724,-3.28859,0.053354,0.26677,-0.23628199,139.5,-148.5,-27.900002,,,,,,
909020,-0.22490175,8.939247,-3.7090845,0.15244,0.198172,0.0,149.1,-148.5,-29.1,,,,,,
909040,-0.027514577,9.030763,-3.899892,0.007622,-0.182928,-0.243904,151.5,-150.90001,-27.300001,,,,,,
909060,0.13996546,9.029567,-3.9483418,-0.47256398,-0.358234,-0.23628199,151.5,-150.90001,-28.500002,,,,,,
909080,0.28770676,8.988893,-4.1074476,-1.29574,0.129574,-0.388722,149.1,-153.3,-29.7,,,,,,
909121,0.3648672,8.737673,-4.318592,-2.2561119,0.548784,-0.785066,153.90001,-150.90001,-28.500002,,,,,,
909141,0.40972793,8.538491,-4.339527,-2.7286758,0.503052,-0.69360197,149.1,-153.3,-30.300001,x,,,,,
909161,0.73691213,7.9917884,-3.9381733,-2.7972739,0.663114,-0.579272,151.5,-150.90001,-27.900002,x,,,,,
909181,0.6388167,7.761503,-4.1451306,-3.0488,1.730194,-0.182928,149.1,-148.5,-30.900002,x,,,,,
909201,0.20695747,7.57249,-4.6661134,-2.347576,2.103672,0.16768399,146.70001,-158.1,-31.500002,x,,,,,
909223,1.4636558,8.733485,-4.450184,-1.951232,0.785066,1.036592,149.1,-153.3,-32.100002,x,,,,,
909243,2.6204643,8.452956,-3.6827662,-3.50612,2.118916,-0.548784,151.5,-153.3,-32.7,x,,,,,
909285,2.705999,8.018704,-4.35149,-3.147886,6.36437,-2.812518,149.1,-150.90001,-32.100002,x,,,,,
909308,3.0391645,7.019806,-3.6959255,-6.486322,9.123534,-7.3933396,158.70001,-153.3,-32.100002,x,,,,,
909329,1.560555,4.681067,-3.7706933,-7.865904,11.905563,-10.6631775,161.1,-148.5,-32.7,x,,,,,
909349,0.1782466,2.7753835,-4.082326,-6.875044,11.85221,-12.012272,170.70001,-143.70001,-32.7,x,,,,,
909369,0.5233751,2.8351977,-2.769402,-6.78358,8.147918,-9.992442,180.3,-138.90001,-33.300003,x,,,,,
909389,-0.31940836,2.414105,-0.4498035,-6.676872,9.100668,-10.525982,189.90001,-131.70001,-33.300003,x,,,,,
909409,-1.2590909,4.1983657,-0.53832865,-4.61131,12.019894,-8.894874,197.1,-124.50001,-33.300003,x,,,,,
909432,-1.5587605,6.239229,1.0425632,-6.9893737,11.54733,-9.725672,204.3,-124.50001,-32.100002,x,,,,,
909472,-6.13276,9.252673,-0.5694321,-1.8673899,16.23486,-8.163162,221.1,-117.3,-31.500002,x,,,,,
909556,-8.463723,15.069614,1.3320644,-0.297258,5.510706,-5.403998,235.50002,-98.100006,-26.1,x,,,,,
909717,-7.3248587,10.557223,-0.75186574,2.59148,-13.536672,10.152504,225.90001,-107.700005,-32.7,x,,,,,
909737,-5.8929048,9.693505,-0.19977975,3.2927039,-12.759228,9.87049,216.3,-117.3,-33.9,x,,,,,
909777,-4.561438,6.5987134,-1.7220536,4.123502,-8.750056,8.353712,199.50002,-124.50001,-34.5,x,,,,,
909800,-3.9967914,6.1859946,-2.338141,4.939056,-8.948228,8.506152,199.50002,-129.3,-35.100002,x,,,,,
909820,-2.8340013,6.882233,-2.3309631,5.670768,-9.275973,8.6509695,187.5,-136.5,-35.7,x,,,,,
909840,-1.9553294,6.8505316,-2.216718,5.343022,-8.567128,7.16468,185.1,-136.5,-35.100002,x,,,,,
909860,-1.5545735,5.882138,-2.2496157,5.137228,-7.210412,5.5945477,175.5,-138.90001,-35.100002,x,,,,,
909924,-0.3062492,5.752341,-2.878264,4.68753,-5.617414,6.0899777,158.70001,-146.1,-35.100002,x,,,,,
910074,0.89841074,7.763896,-3.6056058,1.684462,-0.594516,1.044214,141.90001,-146.1,-31.500002,x,,,,,
