time,sensor_accX,sensor_accY,sensor_accZ,sensor_gyroX,sensor_gyroY,sensor_gyroZ,sensor_magX,sensor_magY,sensor_magZ,label_Boxing_slip_left,label_Boxing_slip_right,label_Boxing_pullback,label_Boxing_roll_left,label_Boxing_roll_right,label_Boxing_recording_cut
980441,-0.20994818,8.554043,-2.648577,-0.373478,0.11432999,-1.8826339,122.700005,-155.70001,-27.900002,,,,,,
980463,-0.023925718,8.8704605,-2.643792,-0.19055,0.327746,-1.570132,134.70001,-158.1,-27.300001,,,,,,
980483,0.22310732,9.598998,-2.9069748,-0.068598,0.69360197,-1.478668,134.70001,-153.3,-26.7,,,,,,
980503,0.3881948,9.707262,-2.9051805,-0.434454,0.548784,-1.935988,134.70001,-160.5,-26.1,,,,,,
980523,0.47372922,9.543969,-2.857329,-0.518296,0.586894,-2.2027578,129.90001,-155.70001,-28.500002,,,,,,
980543,0.33256748,9.278992,-2.7759814,-0.69360197,0.746956,-2.332332,134.70001,-150.90001,-27.900002,,,,,,
980563,0.08852516,9.440491,-3.0092573,-0.487808,0.94512796,-2.576236,134.70001,-153.3,-27.300001,,,,,,
980585,-0.27993092,9.057679,-3.1390543,-0.251526,0.68597996,-3.0488,132.3,-153.3,-26.1,,,,,,
980605,-0.33914706,8.951808,-3.3824985,0.548784,0.221038,-2.7896519,141.90001,-155.70001,-27.900002,,,,,,
980625,-0.39776507,8.824403,-3.4136019,0.975616,-0.19055,-2.164648,144.3,-158.1,-27.900002,,,,,,
980648,-0.5233751,8.959583,-3.526651,1.29574,-0.510674,-1.234764,144.3,-153.3,-26.7,,,,,,
980668,-0.49586052,8.921303,-3.5457916,1.196654,-0.899396,-0.57164997,139.5,-153.3,-28.500002,,,,,,
980688,-0.7171734,8.921901,-3.5828764,0.94512796,-0.94512796,-0.320124,139.5,-155.70001,-26.7,,,,,,
980708,-0.6453963,9.052894,-3.769497,0.81555396,-1.173788,-0.373478,144.3,-150.90001,-26.7,,,,,,
980748,-0.41271865,8.622829,-3.4949493,0.891774,-1.29574,0.17530599,144.3,-150.90001,-27.300001,,,,,,
980768,-0.059216153,9.576867,-3.509903,0.99086,-1.1432999,0.41158798,146.70001,-158.1,-26.1,,,,,,
980788,0.11544159,9.939342,-3.3711338,-0.160062,-0.579272,-1.1356779,149.1,-143.70001,-25.500002,,,,,,
980808,-0.043066293,9.252673,-3.1139324,-0.746956,0.182928,-2.042696,146.70001,-153.3,-27.900002,,,,,,
980828,-0.36546534,8.918312,-3.2036538,-0.884152,1.089946,-2.461906,146.70001,-148.5,-24.900002,,,,,,
980871,-1.267465,8.449368,-3.3890781,-0.396344,1.760682,-1.966476,153.90001,-155.70001,-25.500002,,,,,,
980893,-1.5085166,8.031265,-3.397452,0.213416,1.44818,-1.211898,158.70001,-146.1,-26.1,,,,,,
980913,-1.5342367,8.089286,-3.527249,0.55640596,1.158544,-0.091464,158.70001,-150.90001,-26.1,,,,,,
980934,-1.2704557,8.59352,-3.627737,0.632626,0.830798,0.53354,153.90001,-150.90001,-26.1,,,,,,
980995,-0.5861801,9.0433235,-3.484781,-0.57164997,0.198172,-0.259148,149.1,-148.5,-24.900002,,,,,,
981017,-0.6083114,8.978126,-3.49794,-1.29574,0.3811,-1.097568,151.5,-150.90001,-24.900002,,,,,,
981037,-0.5682358,8.830384,-3.3711338,-1.1356779,0.480186,-1.432936,151.5,-150.90001,-27.300001,,,,,,
981059,-0.7686137,9.122876,-3.397452,-0.708846,0.830798,-1.6463519,153.90001,-148.5,-24.300001,,,,,,
981119,-1.2590909,8.617446,-3.2975621,-0.22865999,0.983238,-1.8369019,163.5,-146.1,-25.500002,,,,,,
981139,-1.351205,8.568398,-3.3190954,0.0,1.021348,-0.907018,158.70001,-146.1,-28.500002,,,,,,
981159,-1.2889981,8.971546,-3.3089268,0.068598,0.785066,-0.23628199,163.5,-141.3,-25.500002,,,,,,
981179,-1.1179292,9.371106,-3.4333405,-0.213416,0.53354,-0.221038,163.5,-143.70001,-25.500002,,,,,,
981199,-0.96001947,8.975135,-3.4183872,-0.525918,0.129574,-0.503052,168.3,-141.3,-24.300001,,,,,,
981221,-0.8062967,8.86747,-3.417789,-0.221038,-0.121952,-0.35061198,163.5,-143.70001,-25.500002,,,,,,
981241,-0.80809116,8.923097,-3.4464998,-0.19055,-0.182928,-0.144818,161.1,-150.90001,-25.500002,,,,,,
981261,-0.66513497,8.942238,-3.3513951,-0.198172,-0.41921,-0.11432999,165.90001,-143.70001,-26.1,,,,,,
981283,-0.5120104,9.180298,-3.3358433,-0.320124,-0.221038,-0.198172,161.1,-143.70001,-26.1,,,,,,
981303,-0.4898791,9.00265,-3.222196,-0.70122397,0.007622,-0.56402797,158.70001,-143.70001,-24.900002,,,,,,
981323,-0.48688838,9.030763,-3.1019695,-0.716468,0.274392,-0.754578,158.70001,-141.3,-26.7,,,,,,
981345,-0.5120104,9.015809,-3.049931,-0.94512796,0.579272,-1.044214,161.1,-146.1,-25.500002,,,,,,
981365,-0.5221788,8.908741,-2.9051805,-1.036592,0.708846,-1.272874,163.5,-146.1,-26.1,,,,,,
981385,-0.6382185,8.862086,-2.9428635,-0.92988396,0.884152,-1.737816,165.90001,-141.3,-25.500002,,,,,,
981405,-0.7082013,8.830983,-2.8926194,-0.792688,0.754578,-1.966476,161.1,-134.1,-25.500002,,,,,,
981426,-0.815867,8.923695,-2.974565,-0.289636,0.579272,-2.2637339,168.3,-146.1,-26.7,,,,,,
981446,-0.89661634,9.02837,-3.1940835,-0.083841994,0.487808,-2.530504,168.3,-143.70001,-26.7,,,,,,
981466,-0.995908,8.810646,-3.2479162,0.144818,0.007622,-2.660078,173.1,-141.3,-25.500002,,,,,,
981487,-1.0880221,8.691017,-3.1946816,0.22865999,-0.297258,-2.385686,173.1,-138.90001,-26.1,,,,,,
981507,-1.1119478,8.966762,-3.3137121,0.22865999,-0.243904,-1.760682,177.90001,-141.3,-27.300001,,,,,,
981527,-1.2010711,9.003846,-3.393265,-0.022866,-0.26677,-1.661596,175.5,-138.90001,-26.1,,,,,,
981547,-1.2866055,9.19286,-3.618167,0.121952,-0.274392,-1.3948259,177.90001,-134.1,-27.900002,,,,,,
981571,-1.4457116,9.00265,-3.5451934,0.22865999,-0.7622,-1.44818,170.70001,-134.1,-26.1,,,,,,
981591,-1.4498986,9.479968,-3.4758089,0.40396598,-0.87653,-0.99086,175.5,-134.1,-26.7,,,,,,
981611,-1.5121055,8.969153,-3.2712438,-0.40396598,-0.861286,-1.3414719,177.90001,-138.90001,-24.900002,,,,,,
981631,-1.5958455,8.969153,-3.317301,-0.16768399,-0.617382,-0.960372,180.3,-131.70001,-26.1,,,,,,
981651,-1.9403758,8.475686,-3.0648847,-0.3811,-0.632626,-1.089946,177.90001,-138.90001,-25.500002,,,,,,
981671,-1.978657,8.913527,-3.23057,-0.16768399,-0.47256398,-0.708846,175.5,-136.5,-24.300001,,,,,,
981695,-2.0289009,7.736381,-2.970976,-0.449698,-0.91463995,-0.80030996,180.3,-138.90001,-26.7,,,,,,
981715,-2.0187325,7.974442,-3.0738568,0.160062,-0.746956,0.221038,180.3,-134.1,-25.500002,,,,,,
981735,-2.167072,8.135343,-3.2144203,0.28201398,-0.7622,0.434454,187.5,-134.1,-26.7,,,,,,
981757,-1.9720774,8.592324,-3.2820106,0.586894,-1.013726,0.34298998,182.70001,-134.1,-24.300001,,,,,,
981777,-1.5928547,9.608569,-3.283805,0.769822,-0.998482,0.26677,180.3,-126.9,-25.500002,,,,,,
981799,-1.5707234,9.993175,-3.284403,-0.083841994,-0.60976,-0.640248,185.1,-138.90001,-25.500002,,,,,,
981819,-1.7250444,9.12826,-3.1432414,-0.708846,-0.274392,-1.3567159,185.1,-134.1,-26.7,,,,,,
981839,-1.9439646,8.484658,-2.948845,-0.70122397,0.33536798,-1.21952,182.70001,-134.1,-26.1,,,,,,
981859,-2.0851264,8.480471,-3.138456,-0.525918,1.082324,-0.731712,189.90001,-136.5,-26.7,,,,,,
981879,-2.3076355,8.527724,-3.2532997,-0.083841994,1.1356779,-0.663114,187.5,-136.5,-26.7,,,,,,
981899,-2.3501036,8.530715,-3.3496006,0.129574,1.158544,-0.56402797,187.5,-134.1,-26.7,,,,,,
981919,-2.426666,8.433816,-3.4381258,0.083841994,1.196654,-0.396344,189.90001,-136.5,-25.500002,,,,,,
981961,-2.3704405,8.539687,-3.5158844,-0.17530599,1.097568,-0.19055,185.1,-136.5,-26.1,,,,,,
981981,-2.3518982,8.691615,-3.5433989,-0.327746,0.975616,-0.15244,187.5,-134.1,-23.1,,,,,,
982023,-2.141352,8.573183,-3.3041418,-0.64787,1.036592,0.17530599,182.70001,-136.5,-26.1,,,,,,
982045,-2.0300972,9.161756,-3.4112093,-0.56402797,1.211898,0.35061198,187.5,-136.5,-26.7,,,,,,
982065,-1.8566358,9.516455,-3.5003326,-0.358234,0.983238,0.251526,187.5,-134.1,-26.7,,,,,,
982086,-1.8351027,8.75442,-3.2604773,-0.625004,0.785066,0.15244,182.70001,-134.1,-23.1,,,,,,
982107,-1.8751782,8.706569,-3.3783114,-0.091464,0.899396,0.81555396,177.90001,-134.1,-27.300001,,,,,,
982127,-1.8584303,8.807057,-3.421378,0.091464,0.72409,0.891774,180.3,-131.70001,-24.900002,,,,,,
982147,-1.6921464,8.865077,-3.5583525,0.045732,0.67073596,0.95274997,187.5,-134.1,-25.500002,,,,,,
982167,-1.6042194,8.672475,-3.5236602,0.068598,0.47256398,0.92226195,180.3,-136.5,-25.500002,,,,,,
982190,-1.4313561,8.529519,-3.3902743,-0.19055,0.49543,1.06708,182.70001,-141.3,-24.300001,,,,,,
982210,-1.3015591,8.719728,-3.467435,-0.33536798,0.72409,1.1204339,177.90001,-136.5,-25.500002,,,,,,
982230,-1.1203218,9.161756,-3.509903,-0.34298998,0.853664,0.80793196,170.70001,-134.1,-26.1,,,,,,
982253,-0.5700303,9.573876,-3.706692,-0.20579399,0.81555396,0.297258,177.90001,-136.5,-24.300001,,,,,,
982273,-0.6011337,8.668288,-3.0295942,-0.3811,0.41921,-0.442076,177.90001,-136.5,-25.500002,,,,,,
982293,-1.0018895,8.22626,-3.13726,-0.640248,1.25763,0.030488,175.5,-138.90001,-26.1,,,,,,
982313,-1.2489225,8.832777,-3.5206695,-0.40396598,1.432936,0.442076,175.5,-143.70001,-25.500002,,,,,,
982336,-1.3966638,9.011622,-3.7007105,0.221038,0.960372,-0.327746,175.5,-136.5,-26.1,,,,,,
982357,-1.3123257,8.954201,-3.5326324,0.19055,0.289636,-0.434454,175.5,-138.90001,-25.500002,,,,,,
982377,-1.305148,8.667689,-3.383695,-0.274392,0.312502,-0.41921,175.5,-138.90001,-24.900002,,,,,,
982398,-1.3506068,8.692812,-3.4524813,-0.47256398,0.46494198,-0.121952,177.90001,-138.90001,-24.300001,,,,,,
982419,-1.3829066,8.859694,-3.4710236,-0.70122397,0.426832,0.030488,170.70001,-141.3,-24.300001,,,,,,
982439,-1.2925869,8.77715,-3.322086,-0.861286,0.213416,-0.060976,177.90001,-141.3,-24.300001,,,,,,
982459,-1.2495207,8.6329975,-3.145634,-0.99086,0.26677,-0.11432999,170.70001,-138.90001,-23.7,,,,,,
982483,-1.2034637,9.06067,-3.100175,-0.907018,0.579272,-0.03811,175.5,-146.1,-26.7,,,,,,
982503,-1.2208098,8.813039,-3.041557,-1.089946,0.708846,-0.312502,175.5,-141.3,-25.500002,,,,,,
982524,-1.3308681,8.804067,-3.0481365,-0.731712,0.67073596,-0.289636,173.1,-138.90001,-27.300001,,,,,,
982544,-1.3506068,8.94762,-3.1037638,-0.396344,0.57164997,-0.373478,173.1,-143.70001,-26.1,,,,,,
982567,-1.2572966,8.900966,-3.116325,-0.365856,0.434454,-0.480186,170.70001,-138.90001,-26.7,,,,,,
982587,-1.1717621,8.890797,-3.0565107,-0.23628199,0.46494198,-0.49543,180.3,-143.70001,-24.900002,,,,,,
982607,-1.0814425,9.03794,-3.058305,-0.22865999,0.640248,-0.518296,175.5,-136.5,-25.500002,,,,,,
982627,-1.1418549,8.972743,-3.188102,-0.449698,0.94512796,-0.625004,175.5,-134.1,-25.500002,,,,,,
982649,-1.1322846,8.865675,-3.1701577,-0.33536798,1.097568,-0.640248,180.3,-136.5,-24.300001,,,,,,
982669,-1.2046599,8.931471,-3.234159,-0.358234,1.3719599,-0.625004,175.5,-138.90001,-26.1,,,,,,
982691,-1.2967739,8.920106,-3.237748,-0.358234,1.547266,-0.70122397,177.90001,-141.3,-25.500002,,,,,,
982711,-1.2955776,9.125867,-3.3400304,-0.221038,1.585376,-0.769822,175.5,-136.5,-27.300001,,,,,,
982733,-1.4068322,8.820814,-3.2975621,-0.41158798,1.5244,-0.853664,173.1,-138.90001,-24.900002,,,,,,
982753,-1.45588,8.813637,-3.3645542,-0.26677,1.48629,-0.67073596,173.1,-136.5,-24.300001,,,,,,
982795,-1.6173786,8.827992,-3.4644442,-0.28201398,1.1204339,-0.53354,177.90001,-136.5,-24.300001,,,,,,
982818,-1.4875816,8.850123,-3.4237704,-0.327746,0.81555396,-0.365856,177.90001,-141.3,-24.300001,,,,,,
982838,-1.363766,8.955397,-3.367545,-0.312502,0.655492,-0.22865999,180.3,-134.1,-25.500002,,,,,,
982860,-1.3500087,8.780141,-3.3376377,-0.640248,0.55640596,-0.289636,177.90001,-134.1,-24.300001,,,,,,
982921,-1.3661586,8.774757,-3.3226843,-0.388722,0.373478,-0.327746,177.90001,-138.90001,-23.7,,,,,,
982941,-1.4857872,8.705373,-3.368143,-0.30488,0.26677,-0.41158798,177.90001,-134.1,-23.7,,,,,,
982963,-1.5097128,8.577969,-3.3531895,-0.221038,0.083841994,-0.548784,177.90001,-138.90001,-26.7,,,,,,
982983,-1.5587605,8.737075,-3.4566681,-0.03811,-0.007622,-0.442076,175.5,-131.70001,-26.1,,,,,,
983003,-1.4504967,8.975734,-3.4267612,-0.053354,-0.251526,-0.510674,175.5,-136.5,-25.500002,,,,,,
983023,-1.4415245,8.902162,-3.421378,-0.221038,-0.19055,-0.57164997,180.3,-131.70001,-25.500002,,,,,,
983043,-1.3811121,8.801674,-3.3244786,-0.297258,-0.083841994,-0.525918,175.5,-131.70001,-25.500002,,,,,,
983063,-1.4624596,8.942836,-3.2969642,-0.41921,0.22865999,-0.525918,187.5,-134.1,-23.7,,,,,,
983083,-1.4899741,8.829786,-3.279618,-0.541162,0.297258,-0.579272,185.1,-131.70001,-27.300001,,,,,,
983107,-1.4869834,8.75442,-3.284403,-0.327746,0.358234,-0.46494198,182.70001,-134.1,-25.500002,,,,,,
983127,-1.4714317,8.772963,-3.1898966,-0.251526,0.3811,-0.274392,180.3,-134.1,-25.500002,,,,,,
983147,-1.5079185,8.778346,-3.2299721,-0.312502,0.396344,-0.251526,182.70001,-136.5,-24.300001,,,,,,
983190,-1.4271691,8.851319,-3.2556922,-0.068598,0.30488,-0.251526,177.90001,-141.3,-26.7,,,,,,
983217,-1.355392,8.955995,-3.2353554,-0.007622,0.243904,-0.41158798,180.3,-129.3,-23.7,,,,,,
983237,-1.3852991,8.799879,-3.1809244,-0.129574,0.320124,-0.503052,185.1,-129.3,-26.7,,,,,,
983279,-1.4301598,8.949415,-3.2263832,-0.03811,0.579272,-0.503052,177.90001,-134.1,-23.7,,,,,,
983303,-1.4899741,8.845937,-3.217411,-0.07622,0.525918,-0.518296,180.3,-138.90001,-26.1,,,,,,
983323,-1.6209675,8.624025,-3.1904945,-0.129574,0.388722,-0.442076,177.90001,-131.70001,-24.900002,,,,,,
983347,-1.5473958,9.104334,-3.0953898,0.060976,0.022866,-0.15244,182.70001,-129.3,-24.900002,,,,,,
983367,-1.6137897,8.936854,-3.0104535,-0.274392,-0.19055,-0.23628199,175.5,-138.90001,-24.900002,,,,,,
983387,-1.865608,8.768776,-2.6826713,0.106708,-0.861286,-0.160062,185.1,-126.9,-24.300001,,x,,,,
983409,-1.8057936,9.159962,-2.2388492,0.792688,-1.920744,0.297258,185.1,-136.5,-24.300001,,x,,,,
983429,-1.9349926,9.159364,-1.6161823,0.46494198,-2.6677,0.289636,180.3,-136.5,-24.900002,,x,,,,
983451,-2.2125309,8.365627,-1.1615937,-0.022866,-3.2012398,-0.015244,182.70001,-134.1,-23.7,,x,,,,
983471,-2.6144829,7.759709,-0.9534399,0.67835796,-3.856732,0.144818,177.90001,-131.70001,-24.300001,,x,,,,
983493,-2.7257376,7.8548136,-1.0407687,1.661596,-4.748506,0.396344,187.5,-131.70001,-24.300001,,x,,,,
983513,-2.4200864,7.8811316,-1.16279,2.6981878,-6.4024796,0.15244,180.3,-131.70001,-26.1,,x,,,,
983533,-2.0492377,7.3487844,-0.72076225,3.2393498,-8.277492,-0.07622,180.3,-136.5,-26.1,,x,,,,
983553,-1.1831268,8.762197,-1.2907926,4.070148,-8.902495,0.655492,180.3,-131.70001,-27.300001,,x,,,,
983574,-0.97078604,6.0896935,-0.5263658,1.974098,-11.73788,-2.141782,182.70001,-138.90001,-25.500002,,x,,,,
983594,-1.464254,4.9095573,-0.5748154,2.36282,-10.929948,-2.500016,192.3,-134.1,-26.7,,x,,,,
983614,-1.7675124,5.974252,-1.4445152,3.08691,-10.640312,-1.996964,197.1,-122.100006,-27.900002,,x,,,,
983637,-1.4140099,6.736884,-1.681978,2.919226,-11.92843,-3.330814,197.1,-131.70001,-27.900002,,x,,,,
983656,-1.83271,6.494038,-1.9816476,1.974098,-11.966539,-4.329296,199.50002,-136.5,-29.1,,x,,,,
983676,-2.6079032,5.615366,-2.204755,1.318606,-12.225688,-4.5731997,204.3,-122.100006,-29.7,,x,,,,
983696,-3.299955,6.602302,-3.0295942,1.1128119,-10.830862,-2.964958,204.3,-124.50001,-32.100002,,x,,,,
983716,-4.175038,7.1926694,-4.4651375,0.297258,-8.559505,-3.361302,206.70001,-122.100006,-30.900002,,x,,,,
983736,-4.3760138,6.484468,-5.2810044,2.004586,-9.382682,-3.6814258,209.1,-117.3,-31.500002,,x,,,,
983756,-4.6158695,7.51447,-4.9723625,2.47715,-9.268352,-1.082324,213.90001,-117.3,-32.100002,,x,,,,
983776,-5.046532,9.8645735,-6.0442348,2.149404,-4.664664,0.525918,218.70001,-119.700005,-35.100002,,x,,,,
983796,-4.91195,10.977119,-7.424749,2.7820299,-3.018312,-0.884152,211.50002,-117.3,-33.300003,,x,,,,
983818,-5.3749127,10.94482,-7.943937,1.8750119,-3.8033779,-1.44818,216.3,-117.3,-35.100002,,x,,,,
983838,-5.397642,12.603471,-8.378787,1.074702,-1.8826339,0.68597996,213.90001,-112.50001,-33.300003,,x,,,,
983860,-4.5040164,13.587416,-8.716738,0.198172,-1.074702,-0.47256398,209.1,-114.9,-34.5,,x,,,,
983881,-5.329454,12.431804,-8.269326,-0.518296,-0.426832,-2.073184,213.90001,-117.3,-34.5,,x,,,,
983901,-5.6368995,11.066243,-7.8506265,-0.72409,1.6539739,-1.288118,209.1,-122.100006,-34.5,,x,,,,
983921,-5.400035,11.950298,-7.2770076,-1.3719599,4.390272,0.121952,218.70001,-117.3,-33.9,,x,,,,
983984,-6.337923,9.401611,-8.594118,-3.841488,8.567128,-0.45731997,216.3,-117.3,-31.500002,,x,,,,
984004,-6.3199787,8.718532,-6.7494454,-4.939056,5.79272,1.051836,218.70001,-117.3,-32.100002,,x,,,,
984024,-5.425755,8.378188,-5.653049,-5.045764,7.721086,2.2484899,213.90001,-114.9,-31.500002,,x,,,,
984048,-4.5381107,7.769279,-5.7003026,-5.18296,9.992442,2.6905658,211.50002,-119.700005,-31.500002,,x,,,,
984068,-4.0691667,6.873261,-5.0429435,-4.740884,8.490908,3.079288,211.50002,-122.100006,-32.100002,,x,,,,
984090,-3.3615634,7.02818,-3.4662385,-4.413138,7.553402,4.298808,204.3,-122.100006,-29.7,,x,,,,
984110,-3.1474283,7.2273617,-2.7801685,-4.847592,10.678422,4.0167937,199.50002,-124.50001,-30.900002,,x,,,,
984132,-3.2640662,6.3959427,-3.4351351,-4.809482,11.577818,3.445144,197.1,-134.1,-29.1,,x,,,,
984152,-2.936882,6.3355303,-2.7263358,-3.932952,10.160126,3.856732,189.90001,-129.3,-29.7,,x,,,,
984172,-2.8017018,6.5664134,-2.2364566,-3.894842,10.182992,3.6585598,189.90001,-136.5,-29.7,,x,,,,
984193,-2.661138,6.6627145,-2.158698,-3.940574,9.56561,3.2241058,185.1,-131.70001,-27.900002,,x,,,,
984217,-2.1826236,6.927692,-1.5880696,-3.528986,8.033587,3.041178,180.3,-136.5,-28.500002,,x,,,,
984238,-1.238754,7.2823906,-0.65377027,-3.894842,6.4634557,2.93447,177.90001,-138.90001,-29.1,,x,,,,
984258,-0.9845433,6.6040964,0.3881948,-5.3658876,7.271388,1.8750119,177.90001,-136.5,-28.500002,,x,,,,
984278,-0.9965062,6.8158393,-0.25122005,-5.29729,8.993959,1.8826339,170.70001,-143.70001,-29.7,,x,,,,
984298,-0.6304427,7.6071825,-0.2560052,-4.626554,7.568646,1.3643379,168.3,-143.70001,-27.900002,,x,,,,
984319,-0.12979703,7.80756,0.03828115,-4.375028,6.9131536,0.137196,168.3,-143.70001,-29.7,,x,,,,
984360,-0.68427557,8.812441,-0.7010236,-1.288118,5.320156,-0.373478,170.70001,-148.5,-29.7,,x,,,,
984384,-0.75904346,10.0368395,-1.108359,-0.182928,3.841488,-0.388722,173.1,-146.1,-29.1,,x,,,,
984404,-1.4241784,9.504492,-1.2997646,-0.30488,2.416174,-1.6234859,175.5,-143.70001,-27.900002,,x,,,,
984426,-1.5641439,9.374097,-1.4170007,0.15244,1.440558,-1.3948259,173.1,-150.90001,-29.1,,x,,,,
984446,-1.7471756,9.877135,-1.9768625,0.274392,1.318606,-1.493912,175.5,-138.90001,-27.900002,,x,,,,
984486,-1.8333082,9.406396,-2.2185123,0.22865999,-0.221038,-1.440558,177.90001,-136.5,-26.7,,x,,,,
984506,-1.4995444,9.417761,-2.0701728,0.33536798,-0.358234,-0.487808,173.1,-138.90001,-26.7,,x,,,,
984526,-1.1609955,9.450659,-1.7926345,0.15244,-0.312502,0.16768399,177.90001,-138.90001,-27.300001,,x,,,,
984546,-1.1179292,9.091773,-1.7537552,-0.160062,0.129574,0.17530599,175.5,-138.90001,-28.500002,,x,,,,
984570,-0.9648046,9.3729,-1.957722,0.251526,0.365856,-0.083841994,177.90001,-141.3,-26.7,,x,,,,
984590,-0.9893285,8.653335,-2.1192205,0.19055,0.16768399,-0.7622,175.5,-143.70001,-29.1,,x,,,,
984610,-0.8714943,8.238821,-2.1981754,1.265252,-0.480186,-0.33536798,180.3,-143.70001,-24.900002,,x,,,,
984632,-0.77459514,8.825002,-2.129389,1.570132,-0.769822,0.20579399,175.5,-138.90001,-27.900002,,x,,,,
984653,-1.0114597,8.981715,-2.5875664,1.3872039,-0.449698,-0.060976,175.5,-146.1,-26.7,,,,,,
984673,-0.97377676,9.213795,-2.8621142,1.6539739,-0.87653,-0.358234,175.5,-136.5,-24.900002,,,,,,
984696,-0.8092874,9.182691,-2.7442799,1.3719599,-1.242386,-0.510674,173.1,-138.90001,-25.500002,,,,,,
984716,-0.91097176,9.171327,-2.8884325,0.853664,-1.089946,-0.480186,170.70001,-143.70001,-24.300001,,,,,,
984738,-1.1562104,8.932667,-3.0367718,0.67073596,-1.227142,-0.358234,182.70001,-143.70001,-25.500002,,,,,,
984758,-0.91934574,9.277796,-2.9626021,0.846042,-1.48629,-0.16768399,180.3,-136.5,-26.7,,,,,,
984819,-0.9935155,9.317871,-3.1061563,0.487808,-1.051836,-0.396344,180.3,-141.3,-24.900002,,,,,,
984861,-1.3739344,8.929676,-3.1857095,0.34298998,-0.785066,-0.35061198,173.1,-138.90001,-27.300001,,,,,,
984900,-1.2656705,9.287366,-3.1564004,0.40396598,-0.785066,-0.221038,177.90001,-136.5,-28.500002,,,,,,
984920,-1.4032434,8.791506,-3.0977824,-0.121952,-0.830798,-0.510674,180.3,-141.3,-24.900002,,,,,,
984962,-1.2357634,9.072633,-3.0469403,0.022866,-0.243904,-0.198172,177.90001,-136.5,-26.1,,,,,,
984982,-1.4032434,8.7843275,-3.1264932,-0.15244,0.07622,-0.594516,182.70001,-136.5,-27.900002,,,,,,
985002,-1.4343468,8.690419,-3.137858,-0.07622,0.144818,-0.617382,180.3,-136.5,-26.7,,,,,,
985022,-1.3577845,9.066053,-3.1396525,0.23628199,0.426832,-0.47256398,177.90001,-131.70001,-26.1,,,,,,
985042,-1.4319543,9.206616,-3.2287757,0.17530599,0.594516,-0.56402797,177.90001,-136.5,-24.300001,,,,,,
985062,-1.5910603,9.081007,-3.2706459,-0.160062,0.625004,-0.884152,177.90001,-131.70001,-26.1,,,,,,
985082,-1.518685,9.067847,-3.2030556,-0.106708,0.60976,-1.02897,177.90001,-136.5,-24.900002,,,,,,
985102,-1.62336,8.668288,-2.9889205,-0.47256398,0.846042,-1.089946,187.5,-136.5,-23.1,,,,,,
985125,-1.8488599,8.839356,-3.1659708,-0.68597996,1.265252,-1.051836,185.1,-131.70001,-27.300001,,,,,,
985145,-1.9008983,8.597109,-3.1689615,-0.55640596,1.272874,-0.983238,180.3,-134.1,-26.1,,,,,,
985165,-1.8255323,8.856703,-3.0822308,-0.11432999,1.051836,-0.70122397,185.1,-138.90001,-27.300001,,,,,,
985185,-1.7986159,8.849525,-3.0971844,-0.28201398,1.3643379,-0.769822,180.3,-129.3,-25.500002,,,,,,
985205,-1.8476636,8.750832,-3.1109416,-0.251526,1.417692,-0.777444,180.3,-136.5,-26.1,,,,,,
985225,-1.8177565,9.042726,-3.3699374,-0.015244,1.4024479,-0.69360197,182.70001,-134.1,-25.500002,,,,,,
985245,-1.8871411,8.890199,-3.4279573,-0.060976,1.166166,-0.72409,185.1,-131.70001,-26.1,,,,,,
985265,-1.7932327,8.917115,-3.4488924,0.045732,0.82317597,-0.525918,185.1,-131.70001,-25.500002,,,,,,
985305,-1.7292314,8.804665,-3.465042,-0.442076,0.46494198,0.007622,187.5,-131.70001,-24.900002,,,,,,
985325,-1.5623494,8.829188,-3.326273,-0.60976,0.19055,0.19055,180.3,-131.70001,-25.500002,,,,,,
985345,-1.4289635,8.7191305,-3.1851113,-1.044214,0.182928,0.289636,177.90001,-136.5,-26.7,,,,,,
985366,-1.3535975,8.881825,-3.1312785,-0.998482,0.20579399,0.23628199,185.1,-134.1,-25.500002,,,,,,
985386,-1.3661586,8.842946,-3.0188277,-1.021348,0.144818,0.0,177.90001,-131.70001,-24.900002,,,,,,
985406,-1.3159145,8.926087,-2.9045823,-0.868908,0.137196,-0.20579399,180.3,-131.70001,-26.7,,,,,,
985430,-1.3165127,8.952406,-2.8459642,-0.739334,0.22865999,-0.442076,182.70001,-129.3,-24.900002,,,,,,
985450,-1.4277673,8.994874,-2.8854418,-0.57164997,0.312502,-0.586894,189.90001,-136.5,-25.500002,,,,,,
985470,-1.5109092,8.973939,-2.8914232,-0.388722,0.243904,-0.708846,180.3,-131.70001,-27.300001,,,,,,
985490,-1.5055258,8.981116,-2.856731,-0.259148,0.213416,-0.64787,185.1,-134.1,-24.300001,,,,,,
985510,-1.5282553,8.853114,-2.8423755,-0.297258,0.297258,-0.525918,187.5,-134.1,-24.900002,,,,,,
985530,-1.4983481,8.863282,-2.8477588,-0.259148,0.34298998,-0.373478,185.1,-129.3,-26.7,,,,,,
985550,-1.49775,8.942836,-2.9177413,-0.20579399,0.45731997,-0.221038,182.70001,-134.1,-27.300001,,,,,,
985570,-1.489376,8.993678,-3.0128462,-0.221038,0.510674,-0.28201398,187.5,-129.3,-27.900002,,,,,,
985590,-1.4427209,9.00265,-3.0194256,-0.182928,0.510674,-0.26677,185.1,-134.1,-26.1,,,,,,
985611,-1.4271691,8.840553,-3.128886,-0.243904,0.525918,-0.243904,187.5,-134.1,-23.7,,,,,,
985631,-1.4062341,8.880629,-3.1593912,-0.068598,0.40396598,-0.053354,185.1,-136.5,-24.900002,,,,,,
985651,-1.3452235,8.991883,-3.150419,-0.198172,0.388722,-0.129574,187.5,-136.5,-24.300001,,,,,,
985672,-1.2243986,9.135438,-3.1725502,-0.19055,0.426832,-0.20579399,185.1,-129.3,-26.1,,,,,,
985692,-1.2489225,8.984107,-3.1821206,-0.655492,0.434454,-0.548784,185.1,-134.1,-26.1,,,,,,
985712,-1.3912805,8.5253315,-3.0672772,-0.70122397,0.594516,-0.60976,182.70001,-136.5,-27.300001,,,,,,
985733,-1.3284756,8.994874,-3.1312785,-0.525918,0.731712,-0.358234,185.1,-136.5,-26.7,,,,,,
985753,-1.3775233,9.113306,-3.1055584,-0.663114,0.81555396,-0.579272,185.1,-136.5,-25.500002,,,,,,
985773,-1.5707234,9.008632,-3.075053,-0.884152,0.846042,-0.891774,185.1,-134.1,-26.7,,,,,,
985793,-1.6012287,9.092371,-3.0732586,-0.708846,0.80030996,-0.975616,185.1,-136.5,-25.500002,,,,,,
985813,-1.6915483,8.923097,-3.025407,-0.81555396,0.716468,-0.95274997,182.70001,-131.70001,-27.900002,,,,,,
985833,-1.8584303,8.685036,-2.9392745,-0.777444,0.57164997,-0.80030996,187.5,-129.3,-25.500002,,,,,,
985853,-1.786055,8.948817,-2.9356856,-0.503052,0.57164997,-0.57164997,187.5,-134.1,-26.1,,,,,,
985874,-1.6753985,9.109119,-2.8411791,-0.594516,0.579272,-0.67073596,192.3,-129.3,-24.900002,,,,,,
985894,-1.6813799,9.011622,-2.8639085,-0.746956,0.640248,-0.769822,189.90001,-134.1,-27.900002,,,,,,
985914,-1.6999223,8.850123,-2.7807667,-0.7622,0.716468,-0.72409,180.3,-129.3,-26.7,,,,,,
985934,-1.715474,8.8166275,-2.7371023,-0.716468,0.80793196,-0.663114,189.90001,-131.70001,-24.900002,,,,,,
985956,-1.5910603,8.836366,-2.6539605,-0.579272,0.93750596,-0.586894,189.90001,-134.1,-24.900002,,,,,,
985976,-1.6323322,8.894386,-2.6880546,-0.41158798,1.1432999,-0.68597996,187.5,-122.100006,-26.7,,,,,,
985997,-1.6945391,8.956593,-2.7705982,-0.327746,1.189032,-0.739334,189.90001,-129.3,-27.300001,,,,,,
986017,-1.9056835,8.621633,-2.6892507,-0.34298998,1.082324,-0.861286,189.90001,-129.3,-26.7,,,,,,
986037,-2.0827339,8.533108,-2.6114922,-0.060976,0.81555396,-0.64787,192.3,-131.70001,-24.300001,,x,,,,
986060,-2.423077,8.360843,-2.4039366,0.106708,0.358234,-0.396344,187.5,-124.50001,-26.1,,x,,,,
986081,-2.6455863,10.078709,-2.2944765,0.82317597,-0.594516,0.160062,197.1,-134.1,-24.900002,,x,,,,
986103,-2.3835998,9.909434,-1.1897063,-0.022866,-2.2713559,-0.67073596,192.3,-131.70001,-26.7,,x,,,,
986123,-3.012248,7.455254,0.4827014,-1.6082419,-2.873494,-1.33385,192.3,-131.70001,-25.500002,,x,,,,
986143,-4.1594863,7.208221,0.67291087,-0.94512796,-1.227142,0.487808,197.1,-131.70001,-25.500002,,x,,,,
986163,-4.082924,8.075528,0.13278773,0.83842,-2.812518,0.7622,194.70001,-126.9,-26.7,,x,,,,
986187,-4.0015764,7.6586227,0.057421725,2.835384,-5.75461,0.07622,189.90001,-129.3,-26.1,,x,,,,
986208,-3.6211576,6.9432435,0.1280026,4.862836,-9.855246,0.449698,192.3,-134.1,-26.7,,x,,,,
986228,-2.6790824,6.7518377,0.7339214,6.219552,-12.949778,1.4024479,197.1,-126.9,-25.500002,,x,,,,
986248,-2.8417773,5.706882,0.13936731,5.632658,-14.146432,0.449698,192.3,-131.70001,-26.1,,x,,,,
986268,-2.6246514,5.7977996,-0.20157418,6.8369336,-15.2744875,0.243904,194.70001,-131.70001,-27.300001,,x,,,,
986288,-2.1658757,6.726716,-0.64360183,6.775958,-15.030583,0.41921,192.3,-131.70001,-27.300001,,x,,,,
986308,-2.1054633,7.346392,-1.585677,5.83083,-14.451312,-1.768304,199.50002,-129.3,-28.500002,,x,,,,
986328,-1.9900217,6.614265,-1.9792551,5.9985137,-15.228756,-3.2241058,199.50002,-124.50001,-29.1,,x,,,,
986391,-2.982939,7.5862474,-7.392449,6.82169,-11.989406,7.492426,209.1,-122.100006,-29.1,,x,,,,
986411,-2.7371023,11.858783,-6.531721,2.6905658,-8.643348,6.28815,199.50002,-124.50001,-27.900002,,x,,,,
986431,-3.5846708,10.633786,-8.445779,6.410102,-0.160062,0.144818,192.3,-124.50001,-28.500002,,x,,,,
986452,-3.476407,11.533393,-11.552533,7.370474,2.987824,2.385686,192.3,-126.9,-27.900002,,x,,,,
986512,-3.0266035,13.089761,-10.84194,1.21952,1.94361,-2.85825,187.5,-119.700005,-25.500002,,x,,,,
986532,-3.06309,12.515544,-11.7565,0.625004,3.399412,-1.29574,194.70001,-119.700005,-26.7,,x,,,,
986572,-3.133671,11.800164,-9.351367,-4.397894,4.070148,-4.428382,197.1,-124.50001,-26.7,,x,,,,
986592,-4.118214,9.250281,-9.003248,-4.9161897,6.379614,-4.679908,201.90001,-119.700005,-27.300001,,x,,,,
986612,-4.502222,8.370413,-8.241812,-6.1204658,6.0899777,-1.996964,199.50002,-119.700005,-29.1,,x,,,,
986634,-4.070363,8.388955,-6.940253,-7.103704,6.158576,-0.396344,199.50002,-124.50001,-27.900002,,x,,,,
986654,-3.9453511,7.7698774,-6.1865926,-6.4634557,8.140296,-0.11432999,204.3,-126.9,-28.500002,,x,,,,
986674,-3.8131614,7.137042,-5.702695,-5.67839,8.109808,0.579272,199.50002,-122.100006,-28.500002,,x,,,,
986737,-2.6892507,6.57718,-3.8592184,-4.939056,10.274456,1.150922,194.70001,-129.3,-28.500002,,x,,,,
986757,-2.627044,6.1602745,-3.117521,-4.45887,8.208894,0.594516,194.70001,-126.9,-27.300001,,x,,,,
986820,-2.1646795,6.050814,-2.0982854,-5.015276,7.789684,-0.67835796,189.90001,-129.3,-29.7,,x,,,,
986840,-2.3028505,6.522749,-1.757344,-4.0625257,6.471078,-0.45731997,189.90001,-134.1,-26.7,,x,,,,
986860,-1.6903521,7.8619914,-1.2058562,-3.612828,4.9314337,-0.30488,189.90001,-136.5,-27.300001,,x,,,,
986880,-1.5426108,7.2447076,-0.1363766,-5.388754,5.167716,-1.935988,194.70001,-131.70001,-28.500002,,x,,,,
986904,-1.9260204,6.337923,-0.46176636,-5.358266,6.722604,-1.463424,189.90001,-136.5,-29.7,,x,,,,
986925,-1.8129714,7.146014,0.056225438,-4.093014,6.204308,-0.46494198,189.90001,-131.70001,-29.7,,x,,,,
986945,-1.5174887,7.8637857,0.1752559,-4.169234,6.699738,-0.57164997,192.3,-131.70001,-29.1,,x,,,,
986986,-2.4051328,8.365029,-0.1531246,-2.843006,6.74547,-1.539644,194.70001,-134.1,-28.500002,,x,,,,
987006,-2.6073053,8.82859,-0.5748154,-1.417692,5.777476,-1.310984,189.90001,-131.70001,-29.1,,x,,,,
987028,-2.836992,9.651635,-1.3661586,-0.34298998,4.641798,-1.02897,194.70001,-126.9,-27.300001,,x,,,,
987048,-3.054716,9.197644,-1.543807,0.548784,2.2789779,-1.8826339,192.3,-131.70001,-27.300001,,x,,,,
987068,-2.827422,9.857396,-1.8674023,1.806414,0.899396,-1.211898,197.1,-131.70001,-26.1,,x,,,,
987088,-3.0283978,9.634289,-2.3363464,0.899396,-0.022866,-1.455802,192.3,-129.3,-26.7,,x,,,,
987108,-3.099577,9.213795,-2.460162,1.06708,-1.013726,-1.1128119,199.50002,-131.70001,-25.500002,,x,,,,
987128,-3.0397625,9.348974,-2.7036061,1.1204339,-1.71495,-0.632626,199.50002,-136.5,-26.7,,x,,,,
987152,-2.8680956,9.30531,-2.8525438,1.044214,-1.951232,-0.144818,194.70001,-129.3,-26.7,,x,,,,
987172,-2.505621,9.284973,-2.735906,0.983238,-2.469528,0.274392,201.90001,-126.9,-27.300001,,x,,,,
987192,-2.087519,9.271814,-2.5361261,0.708846,-2.088428,0.754578,197.1,-129.3,-27.300001,,x,,,,
987212,-1.7872512,9.052894,-2.531341,0.19055,-1.4024479,0.91463995,197.1,-129.3,-27.300001,,x,,,,
987233,-1.6478839,8.685634,-2.5050228,0.030488,-0.777444,0.975616,197.1,-126.9,-25.500002,,x,,,,
987253,-1.6155841,8.862086,-2.8136644,0.434454,-0.289636,1.1432999,194.70001,-119.700005,-24.900002,,x,,,,
987293,-1.2955776,8.668886,-2.8884325,0.72409,-0.632626,0.594516,192.3,-134.1,-26.1,,,,,,
987317,-1.2100432,8.71255,-2.9679854,0.80030996,-0.70122397,0.67073596,197.1,-126.9,-27.300001,,,,,,
987337,-1.1944915,9.085792,-3.0559125,0.548784,-0.602138,0.46494198,192.3,-131.70001,-26.7,,,,,,
987358,-1.2285857,8.813637,-3.1480265,-0.182928,-0.46494198,0.022866,189.90001,-124.50001,-26.7,,,,,,
987420,-1.3374476,8.779543,-3.016435,-0.19055,0.15244,-0.312502,194.70001,-129.3,-25.500002,,,,,,
987440,-1.4367394,8.699391,-2.994902,-0.007622,0.297258,-0.442076,189.90001,-134.1,-26.1,,,,,,
987462,-1.552181,8.606679,-2.9727705,0.060976,0.45731997,-0.56402797,199.50002,-131.70001,-29.1,,,,,,
987482,-1.5216757,8.698793,-2.9733686,0.259148,0.47256398,-0.312502,199.50002,-131.70001,-26.7,,,,,,
987548,-1.9003003,9.199439,-3.209037,0.53354,0.144818,0.106708,194.70001,-126.9,-25.500002,,,,,,
987568,-1.8333082,9.086988,-3.204252,-0.106708,0.11432999,-0.312502,189.90001,-136.5,-26.7,,,,,,
987588,-1.8602246,8.838758,-3.0977824,-0.297258,0.213416,-0.15244,189.90001,-129.3,-25.500002,,,,,,
987611,-1.982844,8.874049,-3.0971844,-0.373478,0.503052,0.007622,189.90001,-131.70001,-26.1,,,,,,
987632,-1.8871411,9.08938,-3.0002851,-0.320124,0.548784,-0.17530599,187.5,-131.70001,-24.900002,,,,,,
987652,-1.7968215,8.95121,-2.970378,-0.41158798,0.7622,-0.503052,194.70001,-131.70001,-26.1,,,,,,
987672,-2.0432563,8.601295,-2.9356856,-0.396344,0.83842,-0.586894,194.70001,-131.70001,-24.300001,,,,,,
987692,-2.0342844,8.731093,-2.9338913,-0.03811,0.72409,-0.34298998,199.50002,-129.3,-24.900002,,,,,,
987712,-1.9732736,8.931471,-2.886638,0.083841994,0.663114,-0.28201398,197.1,-131.70001,-26.7,,,,,,
987732,-2.1431463,8.991883,-3.1892984,0.11432999,0.617382,-0.449698,192.3,-131.70001,-25.500002,,,,,,
987752,-2.1503239,8.854909,-3.176139,0.41921,0.129574,-0.442076,192.3,-134.1,-26.1,,,,,,
987772,-2.1246037,8.691615,-3.0194256,0.480186,-0.091464,-0.327746,192.3,-124.50001,-25.500002,,,,,,
987792,-2.1826236,8.753224,-3.0684733,0.434454,0.07622,0.015244,194.70001,-129.3,-23.7,,,,,,
987815,-2.3028505,9.072035,-3.3454137,0.41158798,0.099086,0.23628199,194.70001,-129.3,-25.500002,,,,,,
987835,-2.2125309,9.088184,-3.3406284,0.41921,-0.617382,0.030488,194.70001,-129.3,-26.1,,,,,,
987855,-2.1329777,8.7933,-3.0606976,0.297258,-0.899396,0.083841994,189.90001,-129.3,-24.300001,,,,,,
987875,-1.8476636,9.005641,-2.9919112,0.053354,-0.899396,0.30488,189.90001,-124.50001,-26.7,,,,,,
987897,-1.7005205,8.8579,-3.0493329,-0.46494198,-0.579272,0.40396598,189.90001,-129.3,-27.900002,,,,,,
987917,-1.6072102,8.815431,-3.1821206,-0.091464,-0.57164997,0.434454,192.3,-136.5,-26.1,,,,,,
987937,-1.606612,8.802272,-3.2054482,0.030488,-0.510674,0.35061198,192.3,-126.9,-24.300001,,,,,,
987957,-1.6514727,8.613258,-3.258683,0.045732,-0.442076,-0.015244,189.90001,-126.9,-24.900002,,,,,,
987977,-1.6269488,8.739467,-3.2401404,0.182928,-0.41158798,-0.129574,187.5,-134.1,-24.900002,,,,,,
987997,-1.6239581,8.886012,-3.2473183,0.137196,-0.213416,-0.541162,192.3,-126.9,-25.500002,,,,,,
988017,-1.6742022,8.955995,-3.367545,-0.07622,0.022866,-0.907018,187.5,-129.3,-26.1,,,,,,
988079,-2.0013864,8.895582,-3.176139,-0.45731997,0.579272,-1.242386,192.3,-126.9,-27.300001,,,,,,
988099,-2.217316,8.790907,-3.2891881,-0.67835796,0.708846,-1.3414719,197.1,-126.9,-24.900002,,,,,,
988119,-2.1736515,8.752626,-3.3232822,-0.41921,0.56402797,-1.021348,192.3,-124.50001,-25.500002,,,,,,
988139,-2.1144354,8.701784,-3.2239907,-0.30488,0.434454,-0.68597996,197.1,-126.9,-24.900002,,,,,,
988163,-1.8937206,8.822011,-3.20485,-0.16768399,0.396344,-0.33536798,194.70001,-134.1,-26.7,,,,,,
988184,-1.7076982,8.719728,-2.999687,-0.297258,0.442076,-0.221038,194.70001,-124.50001,-26.1,,,,,,
988204,-1.5976399,8.822011,-3.1139324,-0.35061198,0.80793196,-0.053354,199.50002,-126.9,-26.1,,,,,,
988224,-1.6759967,8.5576315,-3.1223063,-0.320124,0.960372,-0.312502,194.70001,-122.100006,-26.7,,,,,,
988244,-1.6807817,8.612062,-3.0648847,-0.182928,0.92988396,-0.259148,197.1,-126.9,-25.500002,,,,,,
988264,-1.711287,8.872254,-2.9955,-0.106708,1.013726,-0.40396598,197.1,-126.9,-24.900002,,,,,,
988284,-1.8267286,8.990687,-3.2012613,-0.40396598,1.1204339,-0.716468,204.3,-124.50001,-24.300001,,,,,,
988306,-2.0151436,8.746046,-3.1994667,-0.396344,0.853664,-1.013726,197.1,-126.9,-24.300001,,,,,,
988326,-2.012751,8.857301,-3.229374,-0.213416,0.579272,-0.861286,192.3,-126.9,-24.900002,,,,,,
988346,-2.1353705,8.709559,-3.1887002,-0.449698,0.41158798,-0.769822,201.90001,-122.100006,-26.1,,,,,,
988366,-2.1317816,8.723915,-3.175541,-0.45731997,0.17530599,-0.655492,189.90001,-126.9,-25.500002,,,,,,
988386,-2.0761542,8.656325,-3.0852215,-0.503052,0.15244,-0.594516,204.3,-124.50001,-24.300001,,,,,,
988406,-2.00019,9.009828,-3.0565107,-0.396344,0.312502,-0.510674,199.50002,-119.700005,-24.900002,,,,,,
988448,-2.104267,8.491836,-2.8328052,-0.777444,0.449698,-0.480186,199.50002,-126.9,-24.300001,,,,,,
988468,-2.0522285,8.372208,-2.6330254,-0.708846,0.625004,-0.320124,201.90001,-122.100006,-25.500002,,,,,,
988488,-2.1634831,8.703578,-2.6952322,-0.45731997,0.92988396,-0.358234,201.90001,-124.50001,-24.300001,,,,,,
988508,-2.2789247,9.038538,-2.6844656,-0.243904,0.91463995,-0.625004,199.50002,-124.50001,-25.500002,,,,,,
988528,-2.5965385,9.045118,-2.5062191,-0.20579399,0.792688,-1.02897,197.1,-124.50001,-26.1,,,,,,
988548,-2.8011036,9.032557,-2.4368346,0.091464,0.442076,-1.02897,199.50002,-124.50001,-26.1,,,,,,
988632,-3.1438394,8.582155,-0.3409415,0.16768399,-1.432936,0.045732,204.3,-122.100006,-25.500002,,x,,,,
988682,-3.1611855,6.868476,0.22849062,1.6539739,-1.6463519,-0.442076,201.90001,-122.100006,-26.7,,x,,,,
988703,-3.0379682,6.8212223,-0.82364285,3.399412,-2.454284,-1.036592,199.50002,-117.3,-26.1,,x,,,,
988743,-2.664727,5.4155865,-1.1454438,5.86894,-7.682976,-1.158544,206.70001,-114.9,-24.300001,,x,,,,
988799,-1.5461996,7.34699,-1.0658908,5.243936,-9.832379,0.45731997,204.3,-114.9,-24.300001,,x,,,,
988819,-3.4776032,4.8718743,-1.3518031,4.298808,-8.437553,-3.536608,218.70001,-114.9,-24.300001,,x,,,,
988859,-4.355079,5.099169,-3.5469878,5.44973,-9.268352,-0.95274997,216.3,-112.50001,-24.900002,,x,,,,
988900,-4.4071174,7.2315483,-5.6488624,6.532054,-10.74702,1.8445239,209.1,-117.3,-23.7,,x,,,,
988920,-4.53512,9.287964,-7.1950617,7.416206,-4.771372,4.184478,221.1,-110.100006,-23.7,,x,,,,
988960,-3.5547638,11.593207,-11.119478,6.379614,-2.47715,3.513742,204.3,-105.3,-22.5,,x,,,,
988980,-2.216718,12.639359,-12.119573,4.5122237,-2.6677,3.559474,206.70001,-117.3,-21.900002,,x,,,,
989000,-1.8644116,12.766166,-12.6585,2.583858,-1.5244,0.95274997,204.3,-119.700005,-22.5,,x,,,,
989043,-2.0271065,12.561601,-13.046097,0.49543,3.025934,-0.17530599,204.3,-114.9,-21.300001,,x,,,,
989063,-2.731719,12.404887,-13.175295,-1.425314,4.657042,-1.8902559,209.1,-107.700005,-22.5,,x,,,,
989083,-3.4231722,11.0518875,-12.8660555,-3.2012398,5.0686297,-3.437522,204.3,-114.9,-19.5,,x,,,,
989103,-3.7850487,10.326939,-12.572966,-5.198204,6.51681,-2.637212,206.70001,-112.50001,-20.7,,x,,,,
989166,-3.6085966,6.961188,-5.509495,-11.836966,-0.64787,2.51526,206.70001,-119.700005,-26.1,,x,,,,
989340,-2.2747378,4.320985,-0.5281602,-5.670768,6.318638,-3.574718,192.3,-131.70001,-32.100002,,x,,,,
989360,-1.5874715,7.4199634,0.30983806,-3.6585598,4.657042,-0.525918,201.90001,-126.9,-30.900002,,x,,,,
989400,-1.9607127,6.539497,1.3476161,-4.702774,8.163162,-3.567096,201.90001,-129.3,-31.500002,,x,,,,
989421,-2.4553769,7.3834767,0.7853617,-3.902464,8.666214,-2.2256238,204.3,-124.50001,-32.100002,,x,,,,
989441,-2.9984908,8.101249,0.7393047,-3.12502,7.6067557,-2.012208,204.3,-126.9,-30.900002,,x,,,,
989461,-3.1025677,8.713747,0.77758586,-2.05794,6.6006517,-2.073184,199.50002,-126.9,-30.900002,,x,,,,
989481,-3.238346,9.346582,0.3229972,-1.3414719,5.853696,-1.6539739,204.3,-124.50001,-29.7,,x,,,,
989504,-4.501624,8.829786,-0.19798532,-0.731712,4.123502,-1.684462,218.70001,-126.9,-30.300001,,x,,,,
989524,-4.8928094,9.765881,-1.1274995,0.320124,3.39179,-0.69360197,211.50002,-122.100006,-29.1,,x,,,,
989546,-4.8294063,10.559616,-1.9989938,0.35061198,1.821658,-0.617382,209.1,-124.50001,-30.300001,,x,,,,
989566,-4.4741096,10.100841,-2.0187325,0.45731997,-0.57164997,-1.250008,211.50002,-122.100006,-27.900002,,x,,,,
989586,-4.078737,9.299927,-1.7579422,0.60976,-1.303362,-0.72409,211.50002,-122.100006,-29.7,,x,,,,
989607,-3.542801,9.466809,-2.0151436,0.769822,-1.310984,0.442076,213.90001,-119.700005,-29.7,,x,,,,
989627,-2.966191,9.439893,-2.070771,0.92226195,-1.1204339,1.196654,213.90001,-119.700005,-29.7,,x,,,,
989647,-2.698821,9.424939,-2.0480416,0.884152,-0.967994,1.4024479,213.90001,-117.3,-29.7,,x,,,,
989691,-1.949946,8.597707,-2.2974672,1.29574,-0.07622,1.326228,209.1,-119.700005,-28.500002,,,,,,
989754,-1.7358109,8.6868305,-2.756841,1.059458,0.068598,0.746956,204.3,-124.50001,-28.500002,,,,,,
989776,-1.681978,8.415274,-2.78615,0.868908,-0.327746,0.45731997,201.90001,-131.70001,-28.500002,,,,,,
989796,-1.6526691,8.507387,-2.9069748,0.82317597,-0.487808,0.41921,199.50002,-122.100006,-27.900002,,,,,,
989816,-1.794429,9.255066,-3.1324747,0.716468,-0.846042,0.144818,204.3,-122.100006,-28.500002,,,,,,
989836,-2.0259101,8.807057,-3.1241007,0.129574,-0.861286,-0.442076,197.1,-124.50001,-29.1,,,,,,
989857,-2.0007882,8.726308,-3.1575968,0.160062,-0.746956,-0.46494198,197.1,-131.70001,-27.300001,,,,,,
989877,-2.0881171,8.683242,-3.1492229,0.221038,-0.579272,-0.35061198,199.50002,-126.9,-26.1,,,,,,
989898,-2.1850162,8.770571,-3.2281775,0.23628199,-0.20579399,-0.068598,197.1,-124.50001,-26.1,,,,,,
989918,-2.3094301,8.796888,-3.2018592,0.091464,0.03811,0.106708,192.3,-122.100006,-27.300001,,,,,,
989939,-2.1467352,8.988295,-3.2012613,-0.03811,0.213416,0.22865999,199.50002,-126.9,-28.500002,,,,,,
989959,-2.196979,8.79629,-3.1857095,-0.358234,0.41158798,0.015244,197.1,-126.9,-29.1,,,,,,
989981,-2.0946968,8.875245,-2.9757612,-0.365856,0.487808,-0.015244,201.90001,-124.50001,-26.7,,,,,,
990003,-2.2137272,8.458938,-2.945256,-0.792688,0.663114,-0.053354,204.3,-129.3,-29.1,,,,,,
990024,-2.2579896,8.585744,-3.041557,-0.221038,0.69360197,0.17530599,204.3,-131.70001,-25.500002,,,,,,
990044,-2.1682682,8.908741,-2.8884325,0.16768399,0.525918,0.144818,206.70001,-122.100006,-26.7,,,,,,
990064,-2.1287909,8.927284,-2.9063766,0.221038,0.625004,-0.19055,204.3,-122.100006,-26.1,,,,,,
990084,-2.0103586,9.125269,-2.5989313,0.26677,0.41921,-0.26677,199.50002,-119.700005,-25.500002,,,,,,
990105,-2.0169382,9.531408,-2.5008357,-0.251526,0.746956,-0.41158798,201.90001,-126.9,-26.1,,,,,,
990125,-2.2532046,8.814833,-2.6210625,-0.830798,1.089946,-1.3643379,199.50002,-129.3,-26.1,,,,,,
990147,-2.5391169,7.6406784,-2.8304126,-0.30488,0.792688,-1.227142,201.90001,-122.100006,-27.900002,,,,,,
990187,-2.3782165,8.990687,-3.150419,1.684462,0.40396598,1.455802,201.90001,-122.100006,-25.500002,,,,,,
990207,-2.1138372,9.50509,-3.4871736,0.975616,0.221038,0.92988396,197.1,-126.9,-24.900002,,,,,,
990227,-2.2998598,8.951808,-3.3651524,0.449698,-0.297258,0.007622,197.1,-122.100006,-26.7,,,,,,
990247,-2.0677803,9.027174,-3.421378,0.221038,-0.434454,0.060976,197.1,-134.1,-27.900002,,,,,,
990288,-1.9146557,8.958387,-3.2084389,-0.45731997,-0.45731997,-0.297258,197.1,-129.3,-26.7,,,,,,
990308,-1.9302074,8.677858,-3.1851113,-0.731712,-0.221038,-0.320124,194.70001,-126.9,-27.300001,,,,,,
990328,-1.7836623,8.558827,-3.0236127,-0.57164997,-0.129574,-0.121952,197.1,-129.3,-25.500002,,,,,,
990350,-1.7376053,8.724513,-2.95363,-0.365856,0.19055,0.11432999,201.90001,-134.1,-27.900002,,,,,,
990370,-1.7268387,8.787916,-2.874077,-0.35061198,0.40396598,0.022866,201.90001,-126.9,-27.900002,,,,,,
990393,-1.6730059,8.863282,-2.8351977,-0.320124,0.708846,-0.137196,197.1,-124.50001,-27.900002,,,,,,
990414,-1.7011186,8.736476,-2.8890305,-0.274392,0.95274997,-0.34298998,199.50002,-126.9,-27.300001,,,,,,
990434,-1.9906198,8.650344,-3.0230145,-0.11432999,1.082324,-0.373478,197.1,-124.50001,-26.7,,,,,,
990455,-2.0612006,8.688026,-3.0277996,0.083841994,0.967994,-0.23628199,197.1,-124.50001,-26.1,,,,,,
990475,-2.0677803,8.862086,-3.0882123,0.07622,0.92988396,-0.243904,204.3,-129.3,-27.900002,,,,,,
990495,-2.0899115,9.16056,-3.2544959,-0.03811,0.87653,-0.365856,197.1,-129.3,-26.1,,,,,,
990515,-2.1682682,8.771169,-3.1779337,-0.487808,0.396344,-0.525918,197.1,-126.9,-25.500002,,,,,,
990537,-2.0390694,8.838758,-3.091801,-0.099086,0.320124,0.17530599,199.50002,-124.50001,-24.900002,,,,,,
990600,-1.9840403,9.01222,-2.8166552,-0.20579399,0.426832,-0.60976,201.90001,-126.9,-24.900002,,,,,,
990620,-2.0635931,8.653335,-2.8208423,-0.41158798,0.663114,-0.884152,199.50002,-126.9,-27.300001,,,,,,
990640,-2.1604924,8.497817,-2.86989,-0.137196,0.746956,-0.655492,201.90001,-129.3,-24.900002,,,,,,
990660,-2.2747378,8.713747,-2.9141526,0.11432999,0.70122397,-0.47256398,199.50002,-124.50001,-25.500002,,,,,,
990684,-2.32558,8.719728,-2.7664113,0.129574,0.518296,-0.396344,201.90001,-126.9,-26.1,,,,,,
990704,-2.3201966,8.550454,-2.615081,0.03811,0.480186,-0.320124,197.1,-126.9,-24.900002,,,,,,
990724,-2.4709287,8.753224,-2.5570612,0.28201398,0.49543,-0.106708,201.90001,-126.9,-25.500002,,,,,,
990747,-2.6138847,9.23473,-2.4703305,0.632626,-0.083841994,-0.15244,197.1,-126.9,-24.900002,,,,,,
990767,-2.4589658,9.354358,-2.0510323,0.487808,-0.663114,-0.07622,201.90001,-126.9,-24.900002,,x,,,,
990789,-2.539715,8.90276,-1.1777436,-0.083841994,-1.3567159,-0.099086,204.3,-119.700005,-25.500002,,x,,,,
990809,-2.70241,8.206522,-0.36725977,-0.213416,-1.6006199,0.442076,199.50002,-126.9,-27.900002,,x,,,,
990829,-2.710784,8.229849,0.5652451,-0.28201398,-2.05794,0.94512796,197.1,-119.700005,-26.7,,x,,,,
990891,-2.698821,6.347493,1.8560376,0.868908,-4.443626,-1.3490939,197.1,-126.9,-27.900002,,x,,,,
990914,-2.765813,6.6316113,1.7609329,2.987824,-4.664664,-0.091464,204.3,-124.50001,-28.500002,,x,,,,
990935,-2.9907148,5.9712615,0.98514146,3.3003259,-7.3933396,-2.027452,204.3,-131.70001,-27.300001,,x,,,,
990955,-4.0135393,4.0506244,0.6723127,3.917708,-8.597616,-3.536608,201.90001,-122.100006,-26.7,,x,,,,
990975,-4.704993,4.6140747,-1.0527316,6.4177237,-9.207376,-1.554888,209.1,-122.100006,-27.300001,,x,,,,
990995,-4.380201,6.3750076,-1.8165601,5.4116197,-11.029034,-0.259148,206.70001,-124.50001,-26.7,,x,,,,
991017,-5.770285,5.880942,-3.099577,4.108258,-9.923843,-2.179892,213.90001,-124.50001,-27.900002,,x,,,,
991037,-6.777558,3.3998446,-4.7929196,6.82169,-9.009204,-4.138746,213.90001,-122.100006,-29.1,,x,,,,
991057,-5.6422825,5.4819803,-7.5413866,11.798856,-10.586958,3.6814258,216.3,-112.50001,-27.300001,,x,,,,
991077,-4.0105486,9.33103,-6.9881043,7.08846,-14.679972,6.0442457,216.3,-117.3,-27.900002,,x,,,,
991097,-4.070961,6.5586376,-6.283492,8.521396,-11.35678,1.463424,211.50002,-124.50001,-27.300001,,x,,,,
991117,-3.5882597,8.208316,-8.125772,9.961954,-6.311016,4.9924097,206.70001,-119.700005,-27.900002,,x,,,,
991137,-3.5134919,10.784518,-9.752123,7.987856,0.434454,6.227174,194.70001,-114.9,-23.7,,x,,,,
991160,-2.2932801,12.179985,-12.44915,9.123534,4.0625257,4.4360037,192.3,-124.50001,-24.300001,,x,,,,
991180,-1.8135695,12.158452,-14.0216675,7.92688,1.493912,1.935988,197.1,-117.3,-23.1,,x,,,,
991200,-1.631136,14.631773,-14.773533,4.38265,1.8292799,3.338436,192.3,-117.3,-20.1,,x,,,,
991221,-0.8463723,15.407565,-15.152756,2.469528,3.46801,2.317088,187.5,-119.700005,-20.7,,x,,,,
991241,-0.581395,13.313466,-15.167111,-0.82317597,3.528986,-2.7820299,180.3,-119.700005,-19.5,,x,,,,
991309,-2.5116024,10.660104,-9.716832,-8.567128,3.7347798,0.45731997,189.90001,-124.50001,-21.900002,,x,,,,
991329,-3.213224,8.642568,-9.287366,-7.713464,8.285114,-2.073184,192.3,-126.9,-23.1,,x,,,,
991349,-3.761123,6.9516177,-8.445181,-8.208894,6.006136,-1.996964,192.3,-122.100006,-23.1,,x,,,,
991369,-3.007463,6.434224,-5.9132414,-8.993959,1.006104,0.060976,189.90001,-129.3,-24.900002,,x,,,,
991389,-2.5899591,6.635798,-2.196381,-9.878112,3.7424018,0.434454,187.5,-134.1,-25.500002,,x,,,,
991409,-2.6192682,5.928793,-3.24672,-8.902495,12.911668,-0.28201398,194.70001,-134.1,-27.900002,,x,,,,
991429,-2.895012,4.7211423,-3.3035436,-8.72719,10.983302,-1.1051899,187.5,-136.5,-26.7,,x,,,,
991449,-2.2280827,4.4741096,-0.79553014,-6.9283977,8.140296,0.160062,189.90001,-131.70001,-27.900002,,x,,,,
991469,-1.9302074,4.932885,-0.75126755,-6.28815,10.495494,-0.07622,180.3,-138.90001,-26.7,,x,,,,
991489,-1.8907299,5.169152,-0.72734183,-5.9222937,10.465006,-0.34298998,182.70001,-134.1,-29.1,,x,,,,
991511,-1.0138524,6.8002872,-0.57182467,-5.0533857,8.91774,-0.251526,182.70001,-136.5,-29.1,,x,,,,
991531,-1.3912805,4.8431635,0.0071777157,-5.480218,9.291218,-2.012208,185.1,-129.3,-29.1,,x,,,,
991551,-0.6364241,6.053805,0.22908875,-4.367406,7.9192576,-0.23628199,189.90001,-131.70001,-27.900002,,x,,,,
991571,-0.723753,6.337923,0.6178817,-4.428382,7.73633,-0.274392,185.1,-131.70001,-27.300001,,x,,,,
991591,-0.7877543,8.37759,-0.033496007,-5.03052,7.957368,-0.586894,180.3,-134.1,-28.500002,,x,,,,
991611,-0.40255022,8.794497,0.047851436,-4.5427117,6.8826656,-2.36282,182.70001,-136.5,-26.7,,x,,,,
991631,-1.2650723,7.549761,0.015551717,-4.61131,7.16468,-3.7424018,187.5,-136.5,-28.500002,,x,,,,
991654,-2.0594063,7.878141,-0.46475708,-3.147886,6.699738,-2.812518,194.70001,-131.70001,-27.300001,,x,,,,
991675,-2.414105,9.001453,-0.80270785,-1.745438,5.5945477,-2.500016,185.1,-134.1,-28.500002,,x,,,,
991695,-3.1480265,9.367517,-1.2154266,-1.71495,4.641798,-2.637212,197.1,-131.70001,-27.900002,,x,,,,
991715,-3.7270288,9.404004,-1.6843706,-0.70122397,3.346058,-2.2332458,197.1,-126.9,-27.300001,,x,,,,
991738,-3.7802637,9.777843,-1.9194407,0.03811,1.760682,-1.25763,192.3,-131.70001,-28.500002,,x,,,,
991758,-3.7330103,10.137925,-2.2310734,0.320124,0.625004,-0.602138,192.3,-131.70001,-27.300001,,x,,,,
991798,-2.9440596,9.542175,-1.8476636,0.365856,-1.8597679,0.388722,192.3,-124.50001,-27.900002,,x,,,,
991818,-2.9267135,9.16056,-1.9266185,0.03811,-1.3872039,1.051836,194.70001,-124.50001,-27.900002,,x,,,,
991838,-3.075053,9.650438,-2.2902894,0.579272,-1.554888,1.79117,197.1,-134.1,-28.500002,,x,,,,
991858,-2.5803888,9.5080805,-2.2950745,0.72409,-2.385686,1.463424,192.3,-131.70001,-27.900002,,x,,,,
991878,-2.2406435,8.902162,-2.054023,0.525918,-2.393308,1.455802,187.5,-138.90001,-27.900002,,x,,,,
991899,-2.0725653,9.278992,-2.2813172,0.739334,-1.98172,1.920744,197.1,-131.70001,-27.900002,,x,,,,
991923,-1.8398877,8.991883,-2.292084,0.68597996,-1.821658,1.3948259,182.70001,-136.5,-26.1,,x,,,,
991943,-1.4738243,9.240112,-2.5253596,1.059458,-1.4024479,1.501534,189.90001,-134.1,-27.900002,,x,,,,
991963,-1.5922565,9.08938,-2.6461844,0.754578,-1.1204339,1.059458,182.70001,-134.1,-28.500002,,x,,,,
991983,-1.485189,9.0110235,-2.7167654,0.92226195,-1.150922,0.868908,187.5,-141.3,-28.500002,,,,,,
992006,-1.3936732,8.893189,-2.8142626,0.80030996,-0.884152,0.487808,182.70001,-134.1,-26.7,,,,,,
992046,-1.1574067,9.348974,-2.9338913,0.11432999,0.015244,0.17530599,185.1,-136.5,-26.1,,,,,,
992068,-1.5156943,8.802272,-3.154008,-0.7622,0.40396598,-0.64787,180.3,-138.90001,-27.900002,,,,,,
992089,-1.4080286,8.830983,-2.8298144,0.396344,-0.182928,-0.07622,177.90001,-136.5,-27.300001,,,,,,
992109,-1.1388642,9.162354,-2.6372123,0.30488,0.289636,0.03811,185.1,-136.5,-27.900002,,,,,,
992129,-1.1155367,8.956593,-2.6994193,-0.251526,0.708846,0.03811,177.90001,-138.90001,-28.500002,,,,,,
992149,-1.1723602,8.711354,-2.7688038,-0.41158798,0.846042,0.137196,177.90001,-136.5,-27.300001,,,,,,
992169,-1.2483244,8.659316,-2.9590132,-0.243904,0.785066,0.099086,180.3,-141.3,-27.900002,,,,,,
992189,-1.1873138,8.577371,-2.957219,-0.091464,0.396344,0.083841994,185.1,-136.5,-27.300001,,,,,,
992210,-1.0652926,8.979322,-3.0277996,-0.106708,0.327746,0.137196,180.3,-136.5,-27.300001,,,,,,
992230,-1.1077608,9.069642,-3.0391645,-0.373478,0.26677,-0.289636,182.70001,-138.90001,-28.500002,,,,,,
992253,-1.041965,8.936256,-2.9506392,-0.46494198,0.182928,-0.53354,182.70001,-138.90001,-29.7,,,,,,
992273,-1.2178191,9.117494,-2.987724,-0.33536798,0.41921,-0.365856,185.1,-141.3,-27.300001,,,,,,
992293,-1.3440273,9.180897,-3.0020795,-0.320124,0.45731997,-0.487808,180.3,-141.3,-29.1,,,,,,
992313,-1.4738243,9.039735,-2.8178515,-0.320124,0.503052,-0.69360197,182.70001,-134.1,-27.300001,,,,,,
992333,-1.527059,8.974537,-2.7538502,-0.297258,0.579272,-0.69360197,185.1,-136.5,-29.1,,,,,,
992353,-1.5503865,9.049305,-2.7137747,-0.26677,0.82317597,-0.640248,180.3,-134.1,-27.300001,,,,,,
992373,-1.5886678,9.007435,-2.7215505,-0.28201398,0.861286,-0.67073596,185.1,-138.90001,-27.300001,,,,,,
992393,-1.6771929,8.789113,-2.7197561,-0.137196,0.769822,-0.586894,185.1,-138.90001,-26.7,,,,,,
992457,-1.5252646,9.118092,-2.9147508,0.19055,0.7622,-0.121952,180.3,-129.3,-27.900002,,,,,,
992519,-1.4295617,9.395032,-3.116923,0.617382,-0.022866,-0.41921,177.90001,-141.3,-26.1,,,,,,
992539,-1.31412,9.49552,-3.0295942,-0.15244,0.426832,-0.769822,185.1,-136.5,-26.1,,,,,,
992562,-1.4271691,8.961378,-3.0684733,-1.158544,0.80030996,-1.036592,187.5,-134.1,-26.1,,,,,,
992582,-1.6909502,8.897975,-3.0684733,-0.83842,1.173788,-0.632626,182.70001,-134.1,-25.500002,,,,,,
992644,-1.3326626,9.073829,-2.5917535,-0.632626,0.92988396,-0.289636,182.70001,-134.1,-27.300001,,,,,,
992684,-1.3183072,9.00265,-2.7837574,-0.251526,0.72409,-0.221038,180.3,-129.3,-26.1,,,,,,
992704,-1.3739344,8.944032,-2.7221487,-0.503052,0.64787,-0.358234,185.1,-129.3,-27.300001,,,,,,
992724,-1.3673549,8.94463,-2.7628224,-0.518296,0.602138,-0.3811,182.70001,-134.1,-26.7,,,,,,
992744,-1.4427209,8.97992,-2.781365,-0.41921,0.480186,-0.503052,187.5,-136.5,-28.500002,,,,,,
992765,-1.443319,8.911134,-2.7472706,-0.388722,0.388722,-0.67073596,187.5,-134.1,-27.900002,,,,,,
992785,-1.4798057,8.862086,-2.807683,-0.26677,0.47256398,-0.586894,185.1,-131.70001,-27.300001,,,,,,
992826,-1.4068322,9.106727,-2.7394948,-0.22865999,0.716468,-0.548784,185.1,-131.70001,-24.900002,,,,,,
992846,-1.5138998,9.010426,-2.7717946,-0.33536798,0.884152,-0.731712,192.3,-134.1,-26.1,,,,,,
992866,-1.5067221,8.79629,-2.7125783,-0.312502,0.967994,-0.7622,185.1,-131.70001,-28.500002,,,,,,
992886,-1.4666466,8.94762,-2.7783742,-0.213416,1.1432999,-0.579272,187.5,-131.70001,-27.300001,,,,,,
992906,-1.6048176,8.883021,-2.832207,-0.259148,1.204276,-0.655492,197.1,-138.90001,-26.1,,,,,,
992926,-1.6245563,8.988893,-2.9530318,-0.11432999,1.1432999,-0.739334,185.1,-131.70001,-25.500002,,,,,,
992946,-1.6514727,8.646156,-2.8166552,-0.16768399,0.998482,-0.830798,189.90001,-131.70001,-26.7,,,,,,
992969,-1.5784993,8.696999,-2.7771778,-0.083841994,1.051836,-0.64787,187.5,-136.5,-27.300001,,,,,,
992989,-1.6604449,8.610867,-2.7717946,-0.320124,1.242386,-0.708846,189.90001,-136.5,-25.500002,,,,,,
993010,-1.8775707,8.46791,-2.7341115,-0.449698,1.29574,-0.769822,189.90001,-136.5,-24.300001,,,,,,
993030,-2.0438545,8.457144,-2.5702202,-0.297258,1.189032,-0.663114,187.5,-131.70001,-24.300001,,,,,,
993050,-2.0151436,8.71614,-2.5098078,-0.548784,1.1432999,-0.81555396,192.3,-134.1,-26.1,,,,,,
993070,-2.0229194,8.620437,-2.2532046,-0.861286,0.92988396,-0.830798,197.1,-131.70001,-26.1,,,,,,
993090,-2.1329777,9.328638,-1.9637034,-0.754578,1.051836,-0.503052,194.70001,-124.50001,-24.300001,,,,,,
993112,-2.4900692,9.195251,-1.3129238,-1.250008,1.006104,-1.3795819,194.70001,-131.70001,-26.1,,x,,,,
993132,-2.895012,9.267029,-1.0814425,-0.69360197,1.006104,-1.814036,192.3,-131.70001,-26.1,,x,,,,
993152,-3.703103,8.064762,-0.27454764,-0.632626,0.449698,-2.454284,197.1,-131.70001,-26.1,,x,,,,
993172,-3.6684108,8.557034,0.026318291,0.663114,-0.396344,-0.983238,194.70001,-129.3,-26.7,,x,,,,
993192,-5.7720795,6.4360185,0.23088318,0.64787,-2.035074,-1.211898,197.1,-129.3,-25.500002,,x,,,,
993232,-5.974252,6.828998,0.13817103,5.167716,-7.370474,2.393308,197.1,-126.9,-26.7,,x,,,,
993252,-4.790527,9.412377,0.43664438,5.0991178,-11.608306,3.170752,194.70001,-131.70001,-25.500002,,x,,,,
993275,-5.3898664,6.573591,-0.4019521,6.181442,-13.68149,1.234764,194.70001,-131.70001,-27.900002,,x,,,,
993295,-3.7288232,8.143717,-0.3881948,6.02138,-17.179987,2.957336,189.90001,-131.70001,-28.500002,,x,,,,
993315,-4.563233,6.171041,-0.7297344,4.550334,-15.579368,1.288118,197.1,-129.3,-28.500002,,x,,,,
993335,-4.00696,6.404317,-2.359674,5.94516,-16.394922,2.93447,187.5,-131.70001,-28.500002,,x,,,,
993355,-3.5810819,6.109432,-3.2156167,5.975648,-15.983334,3.170752,189.90001,-131.70001,-26.7,,x,,,,
993438,-1.5067221,9.031361,-6.3959427,6.486322,-9.336949,3.559474,182.70001,-138.90001,-30.300001,,x,,,,
993484,-0.5126085,11.035738,-9.780235,6.74547,-1.8521459,4.298808,170.70001,-138.90001,-26.1,,x,,,,
993505,-0.28232348,12.247576,-10.247385,5.3963757,1.3719599,3.399412,163.5,-136.5,-25.500002,,x,,,,
993545,0.99471176,12.3911295,-13.293728,3.940574,6.638762,-0.640248,163.5,-136.5,-24.300001,,x,,,,
993565,0.8092874,11.987982,-12.568778,-0.731712,1.3567159,-1.425314,161.1,-138.90001,-21.900002,,x,,,,
993585,0.004187001,11.203816,-10.71932,-2.652456,1.250008,-2.088428,161.1,-138.90001,-25.500002,,x,,,,
993607,-0.039477438,11.059664,-10.476474,-2.339954,5.44973,-1.48629,163.5,-138.90001,-24.300001,,x,,,,
993628,-0.5676377,10.553635,-10.243796,-4.72564,6.8979096,-1.471046,163.5,-138.90001,-23.7,,x,,,,
993668,-0.9235327,9.4757805,-7.015021,-7.3171196,4.855214,0.243904,165.90001,-141.3,-26.1,,x,,,,
993689,-1.0969942,9.762292,-6.014926,-8.239382,6.791202,-0.213416,165.90001,-146.1,-23.7,,x,,,,
993710,-2.2855043,7.0981627,-6.790717,-6.638762,13.323256,-2.949714,163.5,-138.90001,-26.1,,x,,,,
993730,-2.5582576,6.4126906,-5.8390718,-6.265284,7.3780956,-1.44818,161.1,-143.70001,-26.7,,x,,,,
993750,-1.9152538,6.4671216,-3.3292637,-6.737848,4.68753,-0.83842,165.90001,-148.5,-26.7,,x,,,,
993770,-1.7124833,6.1435266,-2.789739,-5.9680257,7.3171196,-1.6006199,168.3,-146.1,-26.7,,x,,,,
993833,-0.88285905,5.120702,-1.4325525,-4.0320377,5.731744,-1.8369019,175.5,-141.3,-28.500002,,x,,,,
993854,-0.7099957,5.598618,-1.3667567,-3.483254,6.311016,-1.585376,168.3,-146.1,-27.900002,,x,,,,
993875,-0.072973445,6.942047,-0.8391946,-3.3003259,5.4878397,-1.242386,170.70001,-146.1,-29.7,,x,,,,
993895,-0.48090696,6.9617863,-0.2129389,-4.923812,7.309498,-2.85825,173.1,-138.90001,-28.500002,,x,,,,
993919,-1.3033535,6.9677672,-1.1903045,-4.0472817,8.064075,-2.644834,175.5,-138.90001,-27.300001,,x,,,,
993939,-1.3990564,7.16336,-0.7686137,-3.422278,7.0655937,-2.85825,173.1,-138.90001,-28.500002,,x,,,,
993959,-2.0229194,7.8673744,-0.6178817,-2.644834,7.4695597,-1.737816,182.70001,-146.1,-29.1,,x,,,,
993979,-2.815459,9.203626,-1.2812222,-3.2622159,7.294254,-1.3719599,177.90001,-146.1,-30.300001,,x,,,,
993999,-3.4076204,8.44219,-1.2997646,-1.79117,5.9985137,-3.147886,182.70001,-138.90001,-28.500002,,x,,,,
994019,-3.0307903,9.025977,-1.1071626,-0.434454,4.093014,-1.9131219,180.3,-141.3,-28.500002,,x,,,,
994039,-3.3310583,9.073231,-1.3625697,-0.632626,3.856732,-1.532022,185.1,-141.3,-28.500002,,x,,,,
994059,-3.326273,9.3998165,-1.8093824,0.46494198,2.7820299,-0.57164997,180.3,-134.1,-27.900002,,x,,,,
994080,-2.8758714,10.462717,-2.0151436,0.16768399,1.570132,0.198172,185.1,-138.90001,-27.900002,,x,,,,
994100,-2.8106737,9.78203,-2.1880069,-0.365856,1.1280559,-0.49543,182.70001,-134.1,-27.300001,,x,,,,
994121,-2.936882,9.120484,-2.4577694,-0.19055,1.059458,-0.35061198,177.90001,-134.1,-25.500002,,x,,,,
994141,-2.774187,9.209607,-3.2024574,0.830798,0.106708,0.16768399,189.90001,-138.90001,-24.900002,,x,,,,
994163,-2.3417296,9.625915,-2.8974047,1.440558,-2.126538,0.594516,180.3,-138.90001,-28.500002,,x,,,,
994184,-1.4833946,10.105027,-2.1927922,0.99086,-2.637212,0.518296,187.5,-136.5,-28.500002,,x,,,,
994207,-1.7399979,9.628307,-2.5044246,-0.769822,-1.3795819,-0.45731997,182.70001,-134.1,-27.900002,,x,,,,
994227,-1.6885576,9.465612,-2.5720148,-0.518296,-1.79117,-0.64787,180.3,-138.90001,-27.300001,,x,,,,
994247,-1.8518506,8.9894905,-2.426666,-0.907018,-1.6539739,-1.1356779,182.70001,-136.5,-27.300001,,x,,,,
994269,-1.982844,8.701186,-2.6533623,-0.518296,-1.288118,-0.907018,182.70001,-134.1,-28.500002,,x,,,,
994289,-1.9846383,9.08639,-2.5953424,-0.144818,-1.318606,-0.60976,185.1,-138.90001,-27.300001,,x,,,,
994309,-1.8775707,9.125269,-2.8722825,-0.022866,-0.617382,-0.579272,187.5,-134.1,-27.900002,,x,,,,
994392,-1.4205896,8.443386,-2.6551566,0.396344,0.92226195,0.777444,180.3,-136.5,-28.500002,,,,,,
994438,-1.7076982,8.772963,-2.7113822,0.015244,0.20579399,-0.525918,180.3,-136.5,-26.7,,,,,,
994458,-1.878169,8.431423,-2.7879443,0.11432999,0.030488,-0.358234,182.70001,-134.1,-27.900002,,,,,,
994499,-1.9230297,9.560718,-2.849553,-0.07622,-0.40396598,-0.83842,182.70001,-134.1,-28.500002,,,,,,
994519,-2.2292788,9.021193,-2.8411791,-0.746956,-0.510674,-1.501534,185.1,-134.1,-26.1,,,,,,
994539,-2.3112245,9.049305,-2.727532,-0.548784,-0.594516,-1.196654,182.70001,-129.3,-27.900002,,,,,,
994561,-2.4685361,9.114503,-2.8465624,-0.746956,-0.320124,-0.967994,185.1,-136.5,-28.500002,,,,,,
994581,-2.3321595,8.440395,-2.7299244,-0.586894,-0.41921,-0.426832,189.90001,-134.1,-27.300001,,,,,,
994601,-2.221503,8.513369,-2.723943,-0.137196,-0.35061198,0.022866,192.3,-141.3,-26.1,,,,,,
994621,-1.8039992,8.9679575,-2.6258476,0.41921,-0.198172,0.426832,187.5,-134.1,-28.500002,,,,,,
994641,-1.66523,9.020595,-2.7167654,0.510674,0.312502,0.289636,182.70001,-136.5,-27.900002,,,,,,
994661,-1.6622393,8.762197,-2.7544484,0.594516,0.53354,0.053354,187.5,-138.90001,-27.300001,,,,,,
994681,-1.6209675,8.599502,-2.8585253,0.663114,0.868908,0.091464,187.5,-131.70001,-27.300001,,,,,,
994701,-1.6119953,8.88661,-3.062492,0.83842,1.051836,0.129574,180.3,-136.5,-26.7,,,,,,
994721,-1.5198812,9.005641,-3.1815224,0.655492,0.94512796,-0.11432999,189.90001,-138.90001,-26.1,,,,,,
994741,-1.3691492,8.756813,-3.0768476,0.251526,1.02897,-0.251526,192.3,-131.70001,-28.500002,,,,,,
994761,-1.2459319,8.945827,-3.0816326,0.259148,1.18141,-0.487808,187.5,-134.1,-27.900002,,,,,,
994781,-1.1938933,8.996669,-3.1187174,0.137196,1.471046,-0.785066,189.90001,-134.1,-24.300001,,,,,,
994801,-1.351205,8.958985,-3.1988685,-0.068598,1.5929979,-0.99086,185.1,-129.3,-26.7,,,,,,
994823,-1.5306479,8.923097,-3.271842,-0.091464,1.432936,-0.92988396,185.1,-138.90001,-24.900002,,,,,,
994843,-1.5934529,8.932667,-3.108549,-0.121952,1.02897,-0.67073596,177.90001,-129.3,-26.1,,,,,,
994863,-1.5713216,9.246094,-3.1270914,-0.182928,0.82317597,-0.586894,185.1,-131.70001,-25.500002,,,,,,
994927,-1.640108,8.964967,-2.8758714,-0.983238,0.388722,-0.754578,189.90001,-141.3,-24.900002,,,,,,
994947,-1.74897,8.847133,-2.994902,-0.94512796,0.40396598,-0.518296,189.90001,-124.50001,-25.500002,,,,,,
994967,-1.7495682,8.806459,-2.970976,-0.67073596,0.221038,-0.289636,185.1,-126.9,-25.500002,,,,,,
994987,-1.6903521,8.814235,-2.8794603,-0.41921,0.17530599,-0.07622,185.1,-136.5,-26.1,,,,,,
995047,-1.6018269,8.960181,-2.8878343,-0.30488,0.967994,0.022866,189.90001,-134.1,-26.1,,,,,,
995071,-1.7393998,8.774159,-3.008061,-0.56402797,0.93750596,-0.16768399,187.5,-136.5,-26.1,,,,,,
995091,-1.6837724,8.966163,-3.0762494,-0.045732,0.70122397,0.083841994,182.70001,-134.1,-24.300001,,,,,,
995111,-1.6604449,9.069044,-2.9978926,-0.213416,0.64787,-0.16768399,187.5,-134.1,-25.500002,,,,,,
995151,-1.7399979,8.932667,-3.06309,-0.426832,0.602138,-0.518296,182.70001,-136.5,-25.500002,,,,,,
995171,-1.794429,8.893189,-3.015837,-0.259148,0.53354,-0.655492,197.1,-134.1,-26.7,,,,,,
995191,-1.7388016,9.022986,-3.016435,-0.144818,0.46494198,-0.769822,185.1,-131.70001,-27.300001,,,,,,
995211,-1.7716994,8.859694,-2.986528,-0.35061198,0.518296,-0.785066,187.5,-131.70001,-27.900002,,,,,,
995231,-1.7124833,8.874049,-2.978752,-0.3811,0.56402797,-0.663114,192.3,-131.70001,-27.300001,,,,,,
995251,-1.6999223,8.929676,-2.8555346,-0.45731997,0.716468,-0.57164997,185.1,-131.70001,-28.500002,,,,,,
995271,-1.7100908,8.86089,-2.848955,-0.68597996,0.899396,-0.617382,187.5,-136.5,-25.500002,,,,,,
995293,-1.7591385,8.714943,-2.8142626,-0.586894,0.967994,-0.55640596,189.90001,-129.3,-26.7,,,,,,
995313,-1.7716994,8.623427,-2.6952322,-0.55640596,0.95274997,-0.525918,201.90001,-131.70001,-27.300001,,,,,,
995333,-1.8775707,8.707766,-2.6162775,-0.426832,1.02897,-0.434454,189.90001,-131.70001,-26.7,,,,,,
995353,-1.8333082,8.743654,-2.4942563,-0.426832,1.044214,-0.518296,187.5,-129.3,-24.300001,,,,,,
995373,-1.8464674,9.232337,-2.564837,-0.19055,1.089946,-0.480186,192.3,-129.3,-26.7,,,,,,
995393,-2.1030707,8.524734,-2.4117124,-0.632626,0.960372,-0.846042,194.70001,-131.70001,-26.7,,,,,,
995453,-2.1072576,9.209009,-2.6719046,0.868908,0.487808,-0.365856,192.3,-134.1,-24.900002,,,,,,
995476,-2.1018744,9.4052,-2.744878,0.884152,0.327746,-0.45731997,192.3,-131.70001,-23.7,,,,,,
995496,-2.0887153,9.635485,-2.4176939,0.868908,0.045732,-0.35061198,189.90001,-129.3,-25.500002,,x,,,,
995517,-2.1766422,9.4428835,-1.6969316,0.20579399,-0.121952,-0.160062,194.70001,-134.1,-24.300001,,x,,,,
995537,-2.710784,9.075026,-1.3446254,-0.41158798,0.632626,-0.07622,187.5,-131.70001,-24.300001,,x,,,,
995557,-3.38848,9.046912,-1.2901944,-0.091464,0.083841994,0.030488,192.3,-136.5,-24.900002,,x,,,,
995577,-3.7054956,9.2269535,-0.6471907,0.754578,-1.699706,0.47256398,185.1,-131.70001,-26.7,,x,,,,
995597,-3.6420925,9.440491,0.4970568,1.29574,-4.253076,0.846042,192.3,-129.3,-24.900002,,x,,,,
995621,-3.9549212,6.622639,2.3716369,0.82317597,-5.350644,-0.55640596,194.70001,-134.1,-25.500002,,x,,,,
995641,-4.3078256,5.464036,1.5390218,3.2850819,-3.7881339,0.548784,192.3,-129.3,-27.300001,,x,,,,
995661,-3.5972319,8.215494,0.43066293,5.708878,-5.44973,2.385686,192.3,-129.3,-26.1,,x,,,,
995681,-3.8400779,6.8230166,0.36127836,5.266802,-7.4085836,-0.327746,187.5,-129.3,-23.7,,x,,,,
995701,-3.9387715,5.0806265,-0.36307278,6.082356,-7.743952,-1.097568,189.90001,-129.3,-23.7,,x,,,,
995721,-3.9890156,4.690637,-1.8123732,7.896392,-8.285114,0.289636,192.3,-131.70001,-23.7,,x,,,,
995745,-2.7406912,6.4097,-2.3142152,7.759196,-10.510737,2.881116,189.90001,-129.3,-24.300001,,x,,,,
995765,-3.4165926,5.7056856,-3.5374177,5.152472,-8.391822,1.6158639,194.70001,-129.3,-23.7,,x,,,,
995785,-4.070363,1.794429,-5.4658303,7.5762677,-6.4634557,-1.699706,187.5,-124.50001,-24.300001,,x,,,,
995808,-2.6754935,2.5379207,-8.380581,12.53819,-11.303426,5.815586,194.70001,-126.9,-22.5,,x,,,,
995832,-0.78835243,8.649147,-5.2241807,6.272906,-16.981815,8.201272,185.1,-126.9,-23.1,,x,,,,
995852,-1.7453812,6.3116045,-6.8965883,7.728708,-8.056454,3.7728899,182.70001,-136.5,-24.300001,,x,,,,
995872,-1.0784518,8.904554,-9.56969,7.77444,-5.52595,7.400962,182.70001,-129.3,-22.5,,x,,,,
995894,-0.6615461,10.157065,-9.597204,5.228692,-6.8369336,5.25918,173.1,-131.70001,-22.5,,x,,,,
995914,-0.78835243,9.879527,-9.645056,4.908568,-5.746988,2.431418,170.70001,-131.70001,-22.5,,x,,,,
995935,-0.2254999,11.585431,-10.808443,6.13571,0.46494198,4.336918,165.90001,-134.1,-21.300001,,x,,,,
995955,0.81467074,13.830262,-12.618424,4.184478,4.8857017,3.01069,161.1,-134.1,-19.5,,x,,,,
995995,-0.51141226,11.334809,-13.166922,-0.434454,3.4299,-2.393308,168.3,-126.9,-17.1,,x,,,,
996057,-2.3273742,9.23114,-12.956375,-6.234796,4.923812,-3.452766,165.90001,-134.1,-18.900002,,x,,,,
996097,-1.7376053,10.646945,-8.494228,-11.440621,0.739334,0.16768399,163.5,-131.70001,-20.7,,x,,,,
996117,-2.9775558,7.8416543,-7.01203,-10.182992,11.036655,-2.2713559,168.3,-141.3,-23.7,,x,,,,
996179,-2.6473808,6.2942586,-2.372235,-9.275973,5.86894,0.449698,165.90001,-146.1,-26.1,,x,,,,
996219,-1.439132,6.1692467,-1.8578321,-6.722604,6.067112,0.053354,165.90001,-150.90001,-29.1,,x,,,,
996357,-1.2925869,7.154388,-0.6872663,-5.190582,4.100636,-0.137196,163.5,-148.5,-31.500002,,x,,,,
996377,-0.96001947,7.225567,-0.5191881,-4.4817357,3.513742,-1.3872039,163.5,-148.5,-34.5,,x,,,,
996420,-0.70042545,7.5060964,-0.37683007,-2.355198,3.1783738,-2.13416,165.90001,-143.70001,-32.7,,x,,,,
996460,-0.83321315,8.349478,-0.6077133,-1.166166,3.460388,-2.614346,168.3,-146.1,-33.9,,x,,,,
996500,-0.9103736,9.490136,-0.799119,-0.182928,3.7728899,-3.376546,175.5,-136.5,-31.500002,,x,,,,
996559,-1.824336,9.496118,-1.5767049,1.097568,4.626554,-2.416174,175.5,-143.70001,-32.100002,,x,,,,
996599,-2.4583676,10.487839,-2.3423278,1.6311079,2.843006,-1.920744,182.70001,-141.3,-29.7,,x,,,,
996620,-2.7227468,9.299329,-2.1126409,1.547266,1.6082419,-2.32471,185.1,-131.70001,-28.500002,,x,,,,
996660,-3.1564004,9.510473,-2.284308,0.442076,1.18141,-1.089946,182.70001,-136.5,-29.7,,x,,,,
996680,-3.221,9.522436,-2.4822934,0.11432999,0.55640596,-1.074702,187.5,-136.5,-29.1,,x,,,,
996700,-2.9548264,9.392639,-2.3489075,-0.11432999,-0.07622,-0.891774,187.5,-134.1,-27.900002,,x,,,,
996720,-2.727532,9.077417,-2.149726,-0.579272,-0.33536798,-0.548784,189.90001,-136.5,-28.500002,,x,,,,
996743,-2.45119,8.947022,-2.0324898,-0.655492,-0.40396598,-0.015244,185.1,-134.1,-29.1,,x,,,,
996763,-2.3644593,8.727504,-2.0342844,-0.663114,-0.388722,0.320124,189.90001,-136.5,-28.500002,,x,,,,
996803,-1.9517405,9.079212,-2.2280827,0.55640596,-1.097568,0.861286,185.1,-136.5,-26.1,,x,,,,
996840,-1.5737141,8.832777,-2.2478213,1.059458,-1.29574,0.91463995,180.3,-136.5,-29.1,,x,,,,
996860,-1.3739344,9.194056,-2.43504,1.097568,-1.006104,0.754578,192.3,-134.1,-27.900002,,,,,,
996900,-1.3003628,9.225758,-2.70241,0.754578,-0.792688,0.11432999,185.1,-134.1,-29.1,,,,,,
996923,-1.23038,9.140223,-2.6892507,0.53354,-0.68597996,-0.15244,182.70001,-141.3,-29.1,,,,,,
996944,-1.3326626,8.990088,-2.8040943,0.28201398,-0.510674,-0.17530599,185.1,-134.1,-29.7,,,,,,
996964,-1.4128137,8.801674,-2.8160572,0.23628199,-0.617382,-0.137196,177.90001,-131.70001,-29.1,,,,,,
996986,-1.3087368,9.067847,-2.7424855,0.3811,-0.785066,0.015244,187.5,-134.1,-30.300001,,,,,,
997006,-1.2746427,9.156971,-2.7006154,-0.007622,-0.625004,-0.20579399,182.70001,-138.90001,-29.7,,,,,,
997069,-1.4193933,8.673671,-2.552874,-0.80030996,0.396344,-0.28201398,182.70001,-138.90001,-29.1,,,,,,
997093,-1.5808918,9.123475,-2.6276422,-0.099086,0.541162,-0.20579399,187.5,-136.5,-29.1,,,,,,
997114,-1.543807,9.09297,-2.5116024,-0.137196,0.541162,-0.487808,180.3,-138.90001,-27.900002,,,,,,
997177,-1.7884475,9.174915,-2.7006154,-0.03811,1.06708,-0.746956,182.70001,-134.1,-28.500002,,,,,,
997197,-1.8105788,9.027174,-2.6713066,-0.20579399,0.92226195,-0.579272,185.1,-134.1,-28.500002,,,,,,
997217,-1.8357008,9.076221,-2.6707084,-0.388722,0.960372,-0.373478,182.70001,-134.1,-27.900002,,,,,,
997259,-1.7645217,9.146204,-2.6138847,-0.640248,0.868908,-0.625004,185.1,-136.5,-29.7,,,,,,
997279,-1.7076982,9.025379,-2.5116024,-0.548784,0.853664,-0.503052,185.1,-136.5,-29.1,,,,,,
997319,-1.6113971,8.987697,-2.510406,-0.17530599,0.91463995,-0.121952,185.1,-136.5,-29.7,,,,,,
997339,-1.6616411,9.003846,-2.560052,-0.137196,0.868908,-0.144818,182.70001,-131.70001,-28.500002,,,,,,
997359,-1.7041093,8.89618,-2.6198661,0.030488,0.663114,-0.182928,189.90001,-136.5,-27.900002,,,,,,
997379,-1.6771929,8.96078,-2.627044,0.106708,0.579272,-0.144818,194.70001,-136.5,-28.500002,,,,,,
997403,-1.5461996,9.185681,-2.6910453,0.068598,0.45731997,-0.144818,182.70001,-131.70001,-26.7,,,,,,
997423,-1.5868733,9.035547,-2.7083914,-0.099086,0.358234,-0.20579399,187.5,-136.5,-27.300001,,,,,,
997443,-1.5653402,8.917115,-2.6419976,-0.007622,0.274392,-0.121952,185.1,-138.90001,-27.300001,,,,,,
997463,-1.4971519,8.990088,-2.689849,-0.015244,0.30488,-0.11432999,182.70001,-136.5,-28.500002,,,,,,
997503,-1.5826863,8.957191,-2.895012,-0.030488,0.213416,-0.41921,187.5,-134.1,-28.500002,,,,,,
997526,-1.460067,9.071436,-2.7855518,0.20579399,-0.053354,-0.33536798,185.1,-136.5,-26.7,,,,,,
997546,-1.3464198,8.97035,-2.7394948,-0.320124,0.160062,-0.480186,182.70001,-134.1,-28.500002,,,,,,
997566,-1.367953,9.016407,-2.774187,-0.23628199,0.297258,-0.41158798,194.70001,-131.70001,-27.900002,,,,,,
997586,-1.3894861,9.147401,-2.8609178,-0.160062,0.525918,-0.47256398,182.70001,-138.90001,-27.300001,,,,,,
997606,-1.3392421,9.039735,-2.8268237,-0.15244,0.625004,-0.655492,189.90001,-134.1,-27.300001,,,,,,
997629,-1.3506068,8.961976,-2.685662,-0.259148,1.044214,-0.57164997,185.1,-134.1,-26.7,,,,,,
997650,-1.5497885,9.1838875,-2.6198661,-0.487808,1.33385,-0.57164997,194.70001,-134.1,-26.7,,,,,,
997670,-1.8159621,9.182093,-2.5450983,-0.40396598,1.41007,-0.746956,187.5,-129.3,-27.300001,,,,,,
997690,-1.8141676,9.155176,-2.3668518,-0.35061198,1.166166,-0.69360197,187.5,-131.70001,-29.1,,,,,,
997713,-1.8548414,8.573781,-2.083332,-0.57164997,0.92226195,-0.640248,187.5,-134.1,-26.1,,,,,,
997733,-1.9930124,8.283084,-1.9780588,-0.251526,1.051836,-0.07622,192.3,-131.70001,-27.300001,,,,,,
997753,-1.9218334,8.868068,-2.1862125,0.182928,0.830798,0.28201398,187.5,-136.5,-27.300001,,,,,,
997774,-2.003779,9.1192875,-2.103669,0.3811,0.388722,0.015244,192.3,-134.1,-27.300001,,x,,,,
997794,-2.1700628,9.27301,-2.0091622,0.548784,-0.007622,-0.221038,185.1,-134.1,-28.500002,,x,,,,
997816,-2.1736515,9.591223,-1.5719197,0.777444,-0.632626,-0.15244,192.3,-131.70001,-27.300001,,x,,,,
997836,-2.3871887,9.345386,-0.97138417,0.30488,-0.82317597,-0.274392,189.90001,-129.3,-25.500002,,x,,,,
997858,-2.999687,7.948124,0.17346147,-0.182928,-1.021348,-0.07622,185.1,-129.3,-27.300001,,x,,,,
997920,-3.480594,8.203531,-0.04246815,3.2469718,-4.718018,0.891774,187.5,-138.90001,-26.1,,x,,,,
997940,-3.5631378,7.1902766,0.14833945,3.96344,-6.951264,1.021348,182.70001,-134.1,-25.500002,,x,,,,
997960,-2.991313,6.7422676,0.14654502,4.695152,-8.772922,1.8445239,187.5,-134.1,-29.1,,x,,,,
997981,-2.761028,6.0400476,0.15671346,4.83997,-10.152504,1.547266,189.90001,-136.5,-26.1,,x,,,,
998001,-3.287992,4.3520885,-0.35410064,5.541194,-11.16623,0.129574,180.3,-138.90001,-26.7,,x,,,,
998023,-3.0188277,3.7958152,-1.067087,7.881148,-13.353744,1.6463519,182.70001,-134.1,-26.1,,x,,,,
998043,-1.7220536,6.6160593,-1.2686613,7.477182,-14.420824,3.528986,177.90001,-136.5,-27.900002,,x,,,,
998103,-5.042345,3.5918486,-6.494038,8.475664,-8.910118,-0.94512796,185.1,-126.9,-26.7,,x,,,,
998126,-3.8382835,8.519949,-9.650438,10.678422,-10.86135,5.4421077,185.1,-136.5,-26.1,,x,,,,
998146,-3.757534,10.378977,-8.036649,5.785098,-17.484867,2.599102,180.3,-131.70001,-24.900002,,x,,,,
998166,-3.9626973,9.729394,-8.324356,6.9893737,-11.730258,1.25763,187.5,-131.70001,-25.500002,,x,,,,
998189,-2.9835372,11.702667,-10.655319,6.272906,-5.3354,3.932952,177.90001,-134.1,-25.500002,,x,,,,
998209,-1.7962234,12.906729,-11.183479,3.6966698,-5.0381417,2.987824,173.1,-134.1,-26.7,,x,,,,
998273,-1.6969316,12.269109,-11.250471,-0.480186,4.72564,-0.449698,177.90001,-134.1,-24.900002,,x,,,,
998294,-1.7681106,11.736163,-11.54057,-0.617382,5.86894,-0.80793196,182.70001,-131.70001,-24.900002,,x,,,,
998314,-1.6131916,11.056673,-11.517841,-1.745438,4.5427117,-0.586894,175.5,-134.1,-23.7,,x,,,,
998334,-1.5461996,11.32823,-10.241404,-4.199722,4.641798,0.015244,185.1,-131.70001,-23.7,,x,,,,
998354,-1.9792551,10.090074,-9.623522,-5.6097918,7.9345016,-0.769822,177.90001,-134.1,-24.300001,,x,,,,
998377,-2.601922,8.002555,-8.376394,-7.1418138,7.4543157,-0.160062,175.5,-134.1,-24.900002,,x,,,,
998397,-2.3734312,8.044425,-6.4898515,-7.682976,6.272906,0.548784,180.3,-141.3,-26.1,,x,,,,
998417,-2.0145454,7.9630775,-4.7540402,-7.6372437,7.522914,-0.213416,177.90001,-136.5,-26.1,,x,,,,
998437,-2.1467352,6.6752753,-3.8598166,-7.713464,10.853727,-1.554888,175.5,-136.5,-27.300001,,x,,,,
998460,-2.0259101,6.3415117,-3.493155,-7.149436,11.966539,-1.33385,173.1,-138.90001,-27.300001,,x,,,,
998521,-2.2609804,5.4197736,-2.4487972,-5.9070497,11.936051,-2.7972739,175.5,-136.5,-28.500002,,x,,,,
998577,-1.1950897,7.047919,-1.1412568,-3.8262439,9.100668,-1.150922,173.1,-131.70001,-27.300001,,x,,,,
998597,-1.4289635,6.3660355,-0.8296243,-4.778994,9.664696,-2.2637339,177.90001,-138.90001,-26.7,,x,,,,
998637,-1.5910603,7.019806,-1.5324423,-3.513742,8.711946,-2.05794,177.90001,-138.90001,-26.7,,x,,,,
998697,-1.3691492,8.6652975,-1.0640963,-3.3079479,7.0351057,-2.2789779,180.3,-136.5,-26.1,,x,,,,
998717,-1.6143879,8.350076,-1.116733,-2.89636,6.5854077,-3.0488,180.3,-136.5,-24.900002,,x,,,,
998757,-2.4069273,8.399123,-1.2064544,-2.339954,5.434486,-2.888738,187.5,-131.70001,-24.900002,,x,,,,
998780,-2.9297042,8.808253,-1.6341265,-1.707328,4.314052,-2.065562,187.5,-134.1,-27.300001,,x,,,,
998800,-3.209037,9.682738,-2.1694646,-0.640248,1.920744,-1.56251,189.90001,-134.1,-25.500002,,x,,,,
998820,-3.380106,9.607372,-2.254999,-0.518296,1.1356779,-1.6158639,192.3,-126.9,-24.900002,,x,,,,
998883,-2.811272,8.893787,-2.3243835,-0.632626,-2.51526,-0.983238,187.5,-131.70001,-26.1,,x,,,,
998903,-2.4739194,9.493725,-2.0109568,-0.259148,-2.7667859,0.373478,197.1,-136.5,-25.500002,,x,,,,
998923,-2.5791924,9.036744,-1.9971994,-0.92988396,-2.568614,0.449698,187.5,-131.70001,-26.7,,x,,,,
998947,-2.3518982,9.0540905,-2.0390694,-0.602138,-2.675322,0.998482,194.70001,-126.9,-28.500002,,,,,,
998968,-2.1455388,8.856105,-2.0911078,-0.510674,-2.560992,1.242386,185.1,-129.3,-29.7,,,,,,
998988,-1.8488599,8.859694,-2.1557074,-0.129574,-2.583858,1.547266,189.90001,-131.70001,-28.500002,,,,,,
999008,-1.5258627,8.811842,-2.141352,0.17530599,-2.530504,1.669218,189.90001,-131.70001,-28.500002,,,,,,
999028,-1.2214079,9.069044,-2.0528266,0.35061198,-2.2484899,1.737816,182.70001,-136.5,-28.500002,,,,,,
999048,-0.9564306,9.3130865,-2.393768,0.20579399,-1.684462,1.478668,180.3,-134.1,-29.1,,,,,,
999068,-1.196884,8.893189,-2.36745,0.07622,-1.303362,1.021348,189.90001,-134.1,-28.500002,,,,,,
999088,-1.2208098,9.200037,-2.4966488,0.518296,-0.94512796,0.777444,182.70001,-136.5,-27.900002,,,,,,
999112,-1.3715419,9.0188,-2.6096978,0.47256398,-0.69360197,0.11432999,177.90001,-136.5,-29.1,,,,,,
999132,-1.4845909,9.052894,-2.6264458,0.525918,-0.602138,0.007622,185.1,-136.5,-29.1,,,,,,
999152,-1.556368,9.35376,-2.7293265,0.57164997,-0.434454,0.053354,177.90001,-129.3,-29.1,,,,,,
999175,-1.4732262,9.22157,-2.7418873,0.259148,-0.503052,-0.083841994,185.1,-136.5,-29.1,,,,,,
999195,-1.3230922,9.076221,-2.6013238,0.20579399,-0.320124,0.007622,185.1,-136.5,-27.300001,,,,,,
999215,-1.3392421,9.1294565,-2.6473808,0.091464,0.289636,0.160062,182.70001,-136.5,-29.7,,,,,,
999235,-1.4534874,8.972743,-2.7257376,-0.11432999,0.602138,0.144818,187.5,-134.1,-29.7,,,,,,
999255,-1.4672447,8.845338,-2.7831593,-0.144818,0.83842,0.20579399,182.70001,-138.90001,-29.7,,,,,,
999275,-1.4319543,9.095362,-2.7634206,0.007622,0.91463995,0.243904,182.70001,-136.5,-27.900002,,,,,,
999295,-1.5079185,8.960181,-2.7377005,-0.20579399,0.92226195,0.106708,182.70001,-138.90001,-26.7,,,,,,
999316,-1.543807,8.842347,-2.761028,-0.289636,0.846042,0.144818,177.90001,-138.90001,-27.300001,,,,,,
999336,-1.4654503,8.777748,-2.731719,-0.26677,0.83842,0.221038,175.5,-138.90001,-26.7,,,,,,
999357,-1.4923667,8.948817,-2.7454762,-0.22865999,0.83842,0.182928,175.5,-138.90001,-27.900002,,,,,,
999377,-1.5240682,9.097157,-2.689849,-0.19055,0.754578,-0.060976,175.5,-138.90001,-30.300001,,,,,,
999397,-1.4493004,9.204224,-2.7131765,-0.251526,0.754578,-0.373478,175.5,-138.90001,-26.7,,,,,,
999417,-1.4504967,9.16355,-2.7179615,-0.243904,0.80793196,-0.57164997,182.70001,-136.5,-26.7,,,,,,
999437,-1.5767049,8.973341,-2.7185597,-0.26677,0.846042,-0.602138,180.3,-136.5,-27.300001,,,,,,
999457,-1.5174887,8.914722,-2.6790824,-0.11432999,0.81555396,-0.3811,185.1,-138.90001,-27.300001,,,,,,
999480,-1.4199914,9.052296,-2.7801685,-0.20579399,0.81555396,-0.289636,180.3,-138.90001,-27.900002,,,,,,
999501,-1.3236904,9.187476,-2.7807667,-0.07622,0.777444,-0.35061198,177.90001,-138.90001,-28.500002,,,,,,
999521,-1.2692593,9.130054,-2.807683,-0.251526,0.739334,-0.57164997,177.90001,-136.5,-27.900002,,,,,,
999541,-1.1891083,8.7627945,-2.70241,-0.46494198,0.70122397,-0.510674,182.70001,-141.3,-27.900002,,,,,,
999601,-1.1741546,9.097157,-2.7586353,-0.20579399,1.044214,-0.746956,175.5,-136.5,-28.500002,,,,,,
999621,-1.1562104,9.186878,-2.652166,-0.373478,1.1356779,-0.95274997,180.3,-136.5,-26.1,,,,,,
999641,-1.300961,9.036744,-2.6120903,-0.708846,1.3567159,-1.196654,175.5,-136.5,-28.500002,,,,,,
999661,-1.4038415,8.920106,-2.5654352,-0.67835796,1.440558,-1.25763,189.90001,-136.5,-26.7,,,,,,
999681,-1.4762169,9.046912,-2.5576594,-0.47256398,1.6006199,-1.265252,180.3,-136.5,-29.1,,,,,,
999704,-1.5109092,9.1192875,-2.4757137,-0.41921,1.684462,-1.265252,185.1,-138.90001,-27.300001,,,,,,
999724,-1.6239581,8.998463,-2.4320493,-0.426832,1.8902559,-1.33385,185.1,-136.5,-26.1,,,,,,
999786,-1.7453812,8.964369,-2.4565732,0.16768399,1.814036,-0.746956,180.3,-129.3,-26.1,,,,,,
999806,-1.7974197,8.940443,-2.4822934,0.160062,1.8521459,-0.67073596,182.70001,-136.5,-27.300001,,,,,,
999829,-1.91645,9.0110235,-2.5756037,0.28201398,1.661596,-0.632626,185.1,-131.70001,-25.500002,,,,,,
999849,-1.9637034,8.917713,-2.5277522,0.312502,1.417692,-0.579272,187.5,-129.3,-25.500002,,,,,,
999869,-1.9942087,8.90276,-2.4380307,0.34298998,1.234764,-0.297258,189.90001,-126.9,-25.500002,,,,,,
999889,-2.2328677,9.060072,-2.4194884,0.312502,1.02897,-0.137196,187.5,-129.3,-24.300001,,,,,,
999909,-2.4224792,9.290955,-2.484686,0.320124,0.67835796,-0.068598,187.5,-131.70001,-24.900002,,,,,,
999929,-2.6120903,9.166541,-2.430255,0.320124,0.137196,-0.17530599,185.1,-131.70001,-24.900002,,,,,,
999949,-2.6264458,9.296338,-2.5080135,0.548784,-0.33536798,0.243904,187.5,-136.5,-23.7,,,,,,
999969,-2.9733686,9.066053,-2.356085,0.365856,-1.02897,0.47256398,182.70001,-136.5,-24.300001,,,,,,
1000009,-3.3196936,9.152185,-2.372235,1.082324,-2.43904,1.570132,189.90001,-136.5,-25.500002,,,,,,
1000032,-3.2281775,9.512866,-2.522369,1.303362,-3.498498,1.6082419,185.1,-134.1,-24.900002,,x,,,,
1000052,-2.9338913,9.409387,-2.1724553,2.004586,-5.350644,2.065562,182.70001,-141.3,-24.900002,,x,,,,
1000074,-2.4045348,7.978031,-1.0264133,1.8369019,-7.9649897,2.7210538,185.1,-136.5,-24.900002,,x,,,,
1000094,-2.1198187,6.564021,0.8834572,1.9131219,-10.09915,3.7957559,175.5,-136.5,-24.900002,,x,,,,
1000114,-1.7711014,6.9169254,1.8554395,3.08691,-9.809514,4.5427117,175.5,-141.3,-26.1,,x,,,,
1000134,-2.1180243,7.1346493,1.0455539,4.771372,-10.381164,2.606724,175.5,-141.3,-27.900002,,x,,,,
1000197,-1.6999223,6.5185623,-1.4020472,10.487872,-16.707424,2.949714,175.5,-143.70001,-25.500002,,x,,,,
1000217,-2.7729907,6.2272663,-3.0828288,8.506152,-15.495525,2.43904,177.90001,-143.70001,-26.1,,x,,,,
1000237,-3.4949493,5.6793675,-4.6589355,8.003099,-15.983334,2.103672,170.70001,-138.90001,-24.900002,,x,,,,
1000299,-2.125202,11.072823,-11.099739,5.403998,-16.448277,12.23331,163.5,-138.90001,-26.1,,x,,,,
1000340,-2.0402656,9.866368,-8.990088,1.56251,-14.298872,3.2545938,153.90001,-146.1,-27.300001,,x,,,,
1000375,-1.6119953,12.593901,-9.220374,-0.320124,-8.247004,3.6661818,151.5,-143.70001,-28.500002,,x,,,,
1000399,-1.079648,13.348159,-8.694008,-1.288118,-6.0290017,1.059458,158.70001,-148.5,-29.7,,x,,,,
1000441,-2.840581,10.803061,-9.127064,0.0,5.282046,-2.545748,158.70001,-148.5,-27.300001,,x,,,,
1000461,-2.3740294,11.4987,-10.093662,0.213416,5.914672,-1.204276,153.90001,-148.5,-27.900002,,x,,,,
1000483,-2.24184,11.383857,-8.942836,-2.59148,5.4573517,-1.730194,156.3,-143.70001,-28.500002,,x,,,,
1000503,-2.6922414,10.417258,-8.647353,-3.628072,10.78513,-1.189032,161.1,-146.1,-28.500002,,x,,,,
1000563,-2.5415094,9.254468,-5.5280375,-6.486322,10.823239,0.94512796,156.3,-143.70001,-29.7,,x,,,,
1000618,-1.5880696,6.78653,-3.6755886,-5.137228,15.3049755,0.602138,144.3,-148.5,-28.500002,,x,,,,
1000638,-0.95702875,7.1190977,-2.522369,-5.10674,15.929979,0.716468,144.3,-155.70001,-30.300001,,x,,,,
1000681,-0.5455064,7.326055,-2.9901166,-4.413138,18.590057,-1.699706,146.70001,-150.90001,-27.300001,,x,,,,
1000701,-0.5891708,6.809858,-2.7341115,-3.948196,17.34005,-3.1859958,149.1,-155.70001,-27.300001,,x,,,,
1000721,-0.5724228,6.3630447,-2.3166077,-3.2317278,16.04431,-4.0320377,149.1,-155.70001,-26.7,,x,,,,
1000741,-0.656761,5.978439,-2.0241158,-2.957336,14.885766,-4.786616,153.90001,-143.70001,-26.7,,x,,,,
1000764,-0.3714468,6.6866403,-1.5545735,-1.94361,13.22417,-4.4969797,151.5,-155.70001,-24.900002,,x,,,,
1000784,-0.19858347,7.3768973,-1.5796956,-2.942092,12.698252,-5.0838737,156.3,-143.70001,-24.300001,,x,,,,
1000804,-1.2130339,6.015524,-2.1646795,-3.475632,12.477214,-5.739366,158.70001,-143.70001,-23.7,,x,,,,
1000824,-1.1891083,6.904364,-2.2286806,-1.71495,9.885734,-3.84911,158.70001,-146.1,-23.1,,x,,,,
1000844,-1.6251545,7.413982,-2.2388492,-1.6158639,8.437553,-3.559474,163.5,-143.70001,-23.7,,x,,,,
1000867,-2.2532046,7.4068046,-2.5283504,-1.242386,7.042728,-3.361302,161.1,-141.3,-23.1,,x,,,,
1000887,-1.911665,8.219681,-2.8465624,-0.434454,4.939056,-2.7439198,165.90001,-138.90001,-23.1,,x,,,,
1000909,-1.7788771,8.6006975,-2.740093,-0.358234,3.58234,-2.599102,170.70001,-138.90001,-21.900002,,x,,,,
1000929,-1.74897,8.954201,-3.1318767,-0.274392,2.59148,-2.2789779,168.3,-134.1,-21.900002,,x,,,,
1000950,-1.7274369,9.018202,-2.920732,0.091464,1.150922,-2.2256238,170.70001,-141.3,-20.7,,x,,,,
1000971,-1.6472857,10.090672,-2.9632003,-0.57164997,0.46494198,-1.6006199,173.1,-136.5,-20.7,,x,,,,
1000991,-1.8859448,9.963267,-2.950041,-0.731712,0.365856,-2.118916,170.70001,-136.5,-20.7,,x,,,,
1001011,-1.9331981,10.13613,-2.8435717,-0.182928,-0.769822,-1.8597679,170.70001,-136.5,-22.5,,x,,,,
1001031,-1.7609329,9.954295,-2.5026302,-1.06708,-1.044214,-1.669218,180.3,-136.5,-20.7,,x,,,,
1001093,-1.7076982,9.731188,-2.489471,-0.92226195,-1.478668,-0.083841994,180.3,-138.90001,-21.300001,,x,,,,
1001113,-1.5324423,9.685131,-2.5708184,-0.64787,-1.989342,-0.320124,180.3,-134.1,-22.5,,x,,,,
1001133,-1.3392421,9.362732,-2.368048,-0.518296,-2.408552,-0.41921,180.3,-138.90001,-23.1,,x,,,,
1001153,-1.225595,9.292151,-2.3919737,-0.30488,-2.492394,-0.327746,182.70001,-131.70001,-24.900002,,x,,,,
1001173,-1.1956878,8.794497,-2.1539128,-0.312502,-2.7515419,-0.19055,170.70001,-131.70001,-24.300001,,x,,,,
1001193,-1.1723602,8.540285,-2.1730535,-0.30488,-2.43904,0.213416,180.3,-131.70001,-24.900002,,x,,,,
1001213,-1.2471281,8.717336,-2.543304,0.0,-2.2027578,0.373478,180.3,-136.5,-23.7,,x,,,,
1001235,-1.3392421,8.8381605,-2.8340013,0.289636,-2.332332,0.259148,182.70001,-134.1,-25.500002,,x,,,,
1001255,-1.3440273,8.631802,-2.7873464,0.365856,-2.6905658,0.160062,185.1,-141.3,-24.900002,,,,,,
1001276,-1.3224941,8.607876,-2.8657029,0.40396598,-2.51526,0.34298998,180.3,-141.3,-24.900002,,,,,,
1001296,-1.4481041,8.8704605,-3.1737466,0.46494198,-2.195136,0.365856,173.1,-136.5,-24.300001,,,,,,
1001316,-1.6239581,9.167737,-3.493155,0.72409,-2.339954,0.121952,182.70001,-129.3,-24.900002,,,,,,
1001336,-1.7411942,8.931471,-3.317899,0.541162,-2.7972739,-0.26677,175.5,-136.5,-25.500002,,,,,,
1001356,-1.6365192,8.788515,-3.2233925,0.46494198,-2.576236,-0.160062,173.1,-136.5,-24.300001,,,,,,
1001376,-1.7411942,8.832777,-3.2239907,0.19055,-2.073184,0.083841994,177.90001,-136.5,-25.500002,,,,,,
1001396,-1.8434767,8.926685,-3.2700477,0.144818,-1.6539739,0.068598,180.3,-131.70001,-24.900002,,,,,,
1001420,-1.8769727,9.025977,-3.4506867,0.23628199,-1.280496,0.144818,180.3,-138.90001,-26.1,,,,,,
1001440,-1.6981279,8.902162,-3.262272,0.274392,-1.227142,0.26677,177.90001,-136.5,-26.7,,,,,,
1001460,-1.5713216,8.952406,-3.229374,0.07622,-0.754578,0.602138,175.5,-138.90001,-24.300001,,,,,,
1001480,-1.5581625,8.956593,-3.3866856,-0.07622,-0.480186,0.602138,180.3,-136.5,-24.900002,,,,,,
1001500,-1.4074304,9.078614,-3.2353554,0.0,-0.49543,0.64787,177.90001,-141.3,-26.7,,,,,,
1001520,-1.1269014,9.276599,-3.1707559,-0.40396598,-0.373478,0.47256398,175.5,-141.3,-24.900002,,,,,,
1001540,-1.158603,8.888405,-3.0385664,-0.853664,-0.045732,0.274392,175.5,-138.90001,-25.500002,,,,,,
1001562,-1.0868257,9.019398,-3.033183,-0.67073596,0.221038,0.34298998,180.3,-138.90001,-27.300001,,,,,,
1001582,-1.12092,9.008632,-2.9470503,-0.64787,0.518296,0.106708,175.5,-141.3,-26.1,,,,,,
1001602,-1.1304902,9.0110235,-2.8974047,-0.594516,0.68597996,0.0,177.90001,-141.3,-25.500002,,,,,,
1001622,-1.0192356,8.926685,-2.7729907,-0.632626,0.82317597,-0.091464,180.3,-141.3,-27.300001,,,,,,
1001642,-1.0096654,8.881825,-2.7412891,-0.67835796,1.166166,-0.091464,175.5,-138.90001,-27.300001,,,,,,
1001666,-1.0491427,8.918312,-2.769402,-0.60976,1.288118,-0.17530599,175.5,-131.70001,-28.500002,,,,,,
1001686,-1.1358736,8.829188,-2.756841,-0.579272,1.3719599,-0.289636,177.90001,-138.90001,-25.500002,,,,,,
1001708,-1.1538178,8.776552,-2.8639085,-0.365856,1.33385,-0.373478,175.5,-138.90001,-24.900002,,,,,,
1001728,-1.0742648,8.959583,-2.8686936,-0.22865999,1.272874,-0.320124,173.1,-129.3,-26.1,,,,,,
1001748,-1.1041719,9.003846,-2.8585253,-0.35061198,1.318606,-0.518296,175.5,-134.1,-29.1,,,,,,
1001768,-1.071274,8.942238,-2.8591235,-0.41158798,1.33385,-0.716468,173.1,-138.90001,-25.500002,,,,,,
1001789,-1.0180393,9.055286,-2.8543382,-0.34298998,1.5244,-0.82317597,175.5,-136.5,-25.500002,,,,,,
1001809,-1.0874239,9.200635,-2.911162,-0.358234,1.730194,-1.1128119,177.90001,-131.70001,-26.7,,,,,,
1001831,-1.2190154,9.070838,-2.9841354,-0.46494198,1.8902559,-1.303362,180.3,-141.3,-25.500002,,,,,,
1001851,-1.401449,8.794497,-2.949443,-0.426832,1.8826339,-1.3567159,180.3,-136.5,-27.300001,,,,,,
1001871,-1.5150962,8.880629,-2.91176,-0.16768399,1.821658,-1.158544,175.5,-136.5,-26.7,,,,,,
1001931,-1.6269488,8.945229,-3.0283978,-0.15244,1.288118,-0.746956,175.5,-136.5,-26.1,,,,,,
1001952,-1.5880696,8.923695,-2.9602096,-0.121952,1.1356779,-0.57164997,177.90001,-136.5,-25.500002,,,,,,
1001994,-1.6269488,8.963172,-2.8920212,-0.144818,0.80793196,-0.358234,180.3,-136.5,-24.300001,,,,,,
1002034,-1.7322221,8.701186,-2.902788,-0.396344,0.121952,-0.243904,180.3,-131.70001,-26.1,,,,,,
1002120,-1.7549515,9.668383,-2.3620665,-0.022866,-0.510674,-0.182928,175.5,-136.5,-24.300001,,x,,,,
1002141,-2.2197087,10.108616,-2.5145931,-0.655492,0.365856,-1.097568,180.3,-134.1,-24.900002,,x,,,,
1002181,-2.0402656,9.290357,-2.5403132,-1.3872039,-1.814036,-1.3795819,177.90001,-134.1,-26.1,,x,,,,
1002201,-2.3590758,7.2937555,-1.4110193,-2.103672,-2.652456,0.34298998,182.70001,-134.1,-27.300001,,x,,,,
1002221,-2.217914,7.9750404,-1.196884,-1.9054999,-2.987824,2.7286758,182.70001,-136.5,-27.900002,,x,,,,
1002245,-3.209037,7.5916305,-0.8696999,0.320124,-6.036624,2.454284,177.90001,-136.5,-28.500002,,x,,,,
1002307,-2.5881646,6.6298165,0.79792273,5.0076537,-16.12815,0.47256398,177.90001,-141.3,-29.7,,x,,,,
1002327,-2.2753358,6.9258976,1.1520233,6.737848,-17.652552,0.792688,182.70001,-143.70001,-29.7,,x,,,,
1002347,-2.4003477,6.4192705,1.267465,6.74547,-18.155603,-0.091464,177.90001,-141.3,-30.300001,,x,,,,
1002367,-2.6336236,5.497532,1.0204319,7.568646,-19.077866,-0.891774,180.3,-141.3,-30.300001,,x,,,,
1002387,-3.1097453,4.34192,1.0323948,8.437553,-19.51232,-0.785066,180.3,-136.5,-30.300001,,x,,,,
1002410,-3.024211,5.0058584,-0.24523862,9.077802,-17.484867,1.44818,187.5,-141.3,-31.500002,,x,,,,
1002433,-3.4841828,6.3570633,-1.982844,9.443658,-16.989437,1.920744,187.5,-141.3,-31.500002,,x,,,,
1002453,-4.0554094,5.379698,-2.844768,7.690598,-16.532118,1.478668,182.70001,-138.90001,-28.500002,,x,,,,
1002473,-5.2181993,4.0183244,-4.3239756,6.6311398,-12.91929,0.3811,180.3,-134.1,-32.100002,,x,,,,
1002493,-5.773276,4.547681,-7.0251894,10.525982,-11.24245,2.995446,180.3,-136.5,-29.1,,x,,,,
1002533,-3.3430212,12.718912,-8.954201,4.679908,-6.699738,3.2164838,165.90001,-146.1,-29.7,,x,,,,
1002595,-2.6013238,14.787291,-10.346079,2.2256238,-1.417692,1.745438,168.3,-138.90001,-30.300001,,x,,,,
1002660,-3.2281775,12.505973,-11.8617735,-1.996964,1.3719599,-0.099086,168.3,-134.1,-27.300001,,x,,,,
1002681,-3.2371497,11.16374,-10.365219,-3.7728899,3.0488,-2.118916,165.90001,-143.70001,-26.7,,x,,,,
1002721,-3.6552517,9.141419,-10.572177,-5.9527817,10.297321,0.49543,163.5,-136.5,-26.1,,x,,,,
1002741,-3.5691192,8.738869,-9.326245,-7.3476076,5.838452,1.417692,161.1,-141.3,-26.7,,x,,,,
1002761,-3.3902743,8.230447,-6.4061112,-8.788166,4.443626,1.6463519,158.70001,-141.3,-28.500002,,x,,,,
1002781,-3.5057158,7.2148004,-4.9801383,-8.224138,10.678422,1.303362,158.70001,-146.1,-29.1,,x,,,,
1002841,-2.2071476,6.7506413,-2.5319393,-7.782062,11.844587,1.75306,156.3,-148.5,-29.7,,x,,,,
1002861,-2.1700628,6.154891,-2.907573,-7.3780956,15.228756,0.617382,151.5,-155.70001,-30.900002,,x,,,,
1002904,-1.506124,6.6537423,-2.0522285,-5.4268637,12.7668495,0.022866,141.90001,-153.3,-32.100002,,x,,,,
1002926,-1.313522,6.3702226,-1.9290111,-4.9009457,12.050382,-0.754578,149.1,-155.70001,-30.900002,,x,,,,
1002947,-0.6782941,6.9809265,-1.2883999,-3.871976,10.617446,-0.60976,151.5,-158.1,-32.100002,,x,,,,
1002967,0.47971067,8.476284,-0.5754135,-4.664664,9.725672,-0.655492,146.70001,-150.90001,-30.300001,,x,,,,
1002987,-0.3505118,6.2236776,-1.1334809,-4.855214,12.774471,-2.55337,149.1,-150.90001,-30.900002,,x,,,,
1003008,-0.14833945,7.003656,-0.9671972,-4.0472817,12.08087,-1.71495,153.90001,-148.5,-29.7,,x,,,,
1003028,0.15611531,8.028873,-1.0102634,-3.635694,11.89032,-1.951232,153.90001,-150.90001,-29.7,,x,,,,
1003051,-0.47073853,7.575481,-1.1729584,-3.2774599,11.448244,-2.7744079,151.5,-148.5,-30.300001,,x,,,,
1003071,-0.70042545,7.2136045,-1.0090672,-2.621968,10.480249,-3.102154,151.5,-146.1,-29.1,,x,,,,
1003092,-0.5030382,8.335122,-0.95942134,-1.570132,9.504634,-2.6981878,153.90001,-148.5,-29.7,,x,,,,
1003153,-1.4074304,8.92848,-1.4128137,-1.204276,6.4482117,-3.612828,165.90001,-148.5,-29.1,,x,,,,
1003198,-1.995405,9.65642,-2.0043771,-0.503052,5.251558,-2.7896519,165.90001,-141.3,-26.7,,x,,,,
1003218,-2.1981754,9.878331,-2.401544,-0.160062,3.955818,-2.6829438,168.3,-143.70001,-27.300001,,x,,,,
1003258,-1.9415721,10.057774,-2.5630426,0.26677,1.48629,-2.111294,173.1,-138.90001,-27.900002,,x,,,,
1003278,-1.8913281,9.793993,-2.5014338,0.198172,0.632626,-1.150922,170.70001,-138.90001,-27.300001,,x,,,,
1003298,-1.9660959,9.732385,-2.5899591,0.030488,0.510674,-1.006104,175.5,-138.90001,-25.500002,,x,,,,
1003322,-1.8452711,9.327441,-2.6031182,-0.060976,-0.099086,-0.49543,173.1,-143.70001,-26.1,,,,,,
1003342,-1.7705032,8.930275,-2.4703305,-0.091464,-0.47256398,-0.28201398,177.90001,-134.1,-27.300001,,,,,,
1003362,-1.5085166,8.77715,-2.3578796,0.030488,-0.716468,0.182928,173.1,-141.3,-25.500002,,,,,,
1003382,-1.2740445,8.709559,-2.292084,0.243904,-0.81555396,0.449698,173.1,-138.90001,-24.300001,,,,,,
1003402,-1.0957979,8.769374,-2.2944765,0.35061198,-0.64787,0.655492,175.5,-141.3,-26.1,,,,,,
1003422,-0.98753405,9.0217905,-2.4188902,0.617382,-0.57164997,0.617382,170.70001,-136.5,-26.7,,,,,,
1003443,-0.8302224,9.296936,-2.6330254,0.868908,-0.53354,0.327746,177.90001,-136.5,-25.500002,,,,,,
1003464,-1.0826387,9.229346,-2.7855518,0.853664,-0.541162,0.068598,175.5,-138.90001,-24.900002,,,,,,
1003484,-1.2584928,8.805263,-2.9033859,0.95274997,-0.7622,-0.091464,177.90001,-141.3,-27.300001,,,,,,
1003507,-1.1179292,9.383667,-2.8011036,1.44818,-1.196654,0.19055,168.3,-141.3,-27.300001,,,,,,
1003527,-1.1789398,9.494922,-3.0882123,0.83842,-1.158544,-0.243904,175.5,-138.90001,-24.900002,,,,,,
1003567,-1.2393522,9.098951,-2.7807667,0.442076,-1.547266,-0.33536798,170.70001,-136.5,-26.7,,,,,,
1003587,-1.2590909,8.708364,-2.5863702,0.16768399,-1.310984,-0.07622,175.5,-138.90001,-26.1,,,,,,
1003608,-1.3655604,8.942238,-2.647979,0.068598,-0.846042,0.144818,170.70001,-136.5,-26.1,,,,,,
1003628,-1.4510949,8.985304,-2.647979,0.03811,-0.853664,0.022866,180.3,-138.90001,-27.300001,,,,,,
1003650,-1.4624596,9.10254,-2.6677177,0.060976,-0.80030996,0.060976,177.90001,-143.70001,-26.1,,,,,,
1003670,-1.4654503,9.123475,-2.6557548,0.022866,-0.72409,0.03811,170.70001,-143.70001,-25.500002,,,,,,
1003690,-1.5324423,9.127064,-2.7807667,0.07622,-0.632626,0.083841994,175.5,-136.5,-25.500002,,,,,,
1003710,-1.5946492,9.025977,-2.7981129,0.129574,-0.69360197,0.20579399,170.70001,-138.90001,-26.7,,,,,,
1003730,-1.4522911,9.289161,-2.9626021,0.388722,-0.617382,0.243904,170.70001,-138.90001,-25.500002,,,,,,
1003792,-1.0922091,8.99607,-2.9380782,0.11432999,-0.34298998,0.3811,175.5,-143.70001,-26.1,,,,,,
1003814,-0.9887303,8.982313,-2.9566207,0.0,-0.045732,0.198172,175.5,-136.5,-26.7,,,,,,
1003834,-0.93071043,8.984107,-3.0421553,-0.030488,0.060976,-0.053354,170.70001,-141.3,-26.1,,,,,,
1003854,-0.9002052,8.749636,-2.97935,-0.137196,0.213416,-0.23628199,173.1,-143.70001,-26.1,,,,,,
1003874,-0.9049903,8.900966,-2.991313,-0.121952,0.40396598,-0.26677,168.3,-138.90001,-26.1,,,,,,
1003914,-1.0060765,8.92848,-3.128886,-0.03811,0.579272,-0.640248,165.90001,-141.3,-26.7,,,,,,
1003934,-1.0569186,9.055884,-3.1031656,-0.068598,0.579272,-0.777444,170.70001,-136.5,-26.7,,,,,,
1003955,-1.0946016,8.93506,-3.0636883,-0.30488,0.731712,-0.853664,173.1,-141.3,-26.7,,,,,,
1003975,-1.0898165,8.894386,-3.0451458,-0.434454,0.960372,-0.87653,170.70001,-138.90001,-27.300001,,,,,,
1004038,-1.5294516,8.2986355,-2.5325372,-0.16768399,0.92988396,-1.166166,175.5,-141.3,-26.7,,,,,,
1004060,-1.2854092,8.67726,-2.2514102,0.769822,1.044214,-0.548784,177.90001,-131.70001,-24.900002,,,,,,
1004081,-1.3613734,9.062464,-2.372235,0.81555396,1.71495,-0.769822,173.1,-129.3,-26.7,,,,,,
1004101,-1.4540856,9.203028,-2.5624444,0.777444,1.966476,-1.166166,177.90001,-134.1,-26.1,,,,,,
1004121,-1.6299396,8.833974,-2.4816952,0.777444,2.149404,-1.3948259,180.3,-134.1,-24.300001,,,,,,
1004141,-1.8255323,8.994874,-2.6324272,0.708846,2.378064,-1.1128119,173.1,-136.5,-25.500002,,,,,,
1004161,-2.104267,9.213795,-2.4721248,0.7622,2.065562,-0.82317597,175.5,-136.5,-24.900002,,,,,,
1004221,-2.6671195,9.017604,-1.8051955,0.160062,0.487808,-0.106708,180.3,-131.70001,-23.1,,x,,,,
1004241,-3.2646644,8.329141,-1.3404384,0.198172,-0.93750596,0.243904,175.5,-134.1,-21.900002,,x,,,,
1004261,-3.468631,8.01033,-0.90319586,0.64787,-2.835384,1.211898,177.90001,-134.1,-21.900002,,x,,,,
1004281,-3.7892358,7.15379,0.51799184,0.320124,-5.388754,1.8445239,177.90001,-138.90001,-23.1,,x,,,,
1004301,-3.3842928,7.9301796,0.38759664,0.99086,-5.18296,3.2317278,173.1,-138.90001,-24.300001,,x,,,,
1004321,-3.3053381,7.198651,-0.012561003,2.080806,-7.629622,2.461906,168.3,-138.90001,-23.7,,x,,,,
1004341,-3.1480265,6.069955,0.067590155,4.771372,-10.868972,2.942092,173.1,-141.3,-23.1,,x,,,,
1004364,-2.1072576,5.19547,0.05024401,7.3323636,-14.733326,4.4055157,173.1,-138.90001,-23.1,,x,,,,
1004384,-2.0737617,4.9915032,0.037084863,8.353712,-15.350708,5.4116197,168.3,-143.70001,-24.300001,,x,,,,
1004407,-1.982844,7.4145803,-1.0940034,8.864386,-16.12815,5.571682,161.1,-138.90001,-23.1,,x,,,,
1004427,-2.9171433,7.187884,-1.9194407,8.19365,-16.715046,1.98172,158.70001,-131.70001,-23.1,,x,,,,
1004491,-5.840866,2.7514577,-6.088497,6.4177237,-12.873558,-3.643316,173.1,-136.5,-24.300001,,x,,,,
1004518,-2.418292,7.338616,-10.359238,9.26073,-20.876657,8.132674,168.3,-131.70001,-24.300001,,x,,,,
1004537,-1.6197711,9.402209,-6.370821,5.0381417,-24.306557,5.9070497,173.1,-141.3,-25.500002,,x,,,,
1004580,-3.2198036,9.183289,-10.883211,9.436036,-2.469528,3.056422,163.5,-141.3,-21.900002,,x,,,,
1004600,-1.6664263,11.200826,-12.783511,5.746988,-2.179892,4.9924097,163.5,-134.1,-23.1,,x,,,,
1004640,-1.6299396,12.227239,-13.52162,3.361302,-0.251526,-0.72409,158.70001,-136.5,-21.300001,,x,,,,
1004663,-1.0844332,12.303203,-14.311767,-0.998482,3.079288,0.64787,158.70001,-138.90001,-20.1,,x,,,,
1004684,-1.5641439,12.038823,-14.333899,-3.1783738,4.740884,-0.34298998,153.90001,-138.90001,-22.5,,x,,,,
1004704,-1.5934529,11.526215,-13.468386,-5.823208,1.455802,-1.1280559,153.90001,-138.90001,-21.300001,,x,,,,
1004724,-2.339337,10.515951,-11.039327,-9.344572,1.242386,-1.98172,165.90001,-136.5,-22.5,,x,,,,
1004744,-3.3454137,8.703578,-9.8562,-8.993959,4.786616,-2.179892,161.1,-141.3,-24.900002,,x,,,,
1004765,-3.9064717,7.9020667,-8.60309,-9.436036,4.9161897,-0.3811,163.5,-143.70001,-25.500002,,x,,,,
1004785,-2.4284604,8.854909,-6.2906694,-10.716532,4.38265,1.3948259,163.5,-138.90001,-27.300001,,x,,,,
1004827,-2.5367243,6.4814773,-5.4694195,-10.000064,16.715046,-1.425314,161.1,-148.5,-29.1,,x,,,,
1004847,-2.6838675,5.8163424,-4.45138,-9.588476,14.2226515,0.129574,156.3,-148.5,-27.300001,,x,,,,
1004867,-2.2304752,6.6555367,-2.9297042,-9.100668,13.330877,1.432936,156.3,-150.90001,-29.7,,x,,,,
1004887,-2.1892033,5.9383636,-2.51878,-8.064075,14.397958,-1.06708,156.3,-143.70001,-29.1,,x,,,,
1004907,-2.1521184,5.38867,-2.263373,-7.6372437,13.2622795,-1.3795819,151.5,-148.5,-30.300001,,x,,,,
1004928,-1.6628375,5.3898664,-1.1526215,-6.32626,11.227205,-0.746956,151.5,-148.5,-31.500002,,x,,,,
1004948,-0.6806867,6.9360657,-0.4468128,-5.625036,10.586958,0.251526,151.5,-146.1,-30.900002,,x,,,,
1004968,-0.6477888,6.2822957,-0.4091298,-6.905532,13.7881975,-2.347576,153.90001,-153.3,-31.500002,,x,,,,
1005028,-0.8278299,6.925299,-0.4067372,-4.83997,12.804959,-1.25763,153.90001,-146.1,-32.7,,x,,,,
1005078,-0.88285905,7.601201,-0.41690564,-3.025934,9.763782,-2.660078,156.3,-153.3,-29.7,,x,,,,
1005178,-2.0450509,7.9499183,-0.7201641,-0.92988396,5.44973,-2.964958,163.5,-141.3,-29.1,,x,,,,
1005198,-2.3483093,8.752626,-1.3799158,0.099086,4.870458,-2.111294,170.70001,-138.90001,-28.500002,,x,,,,
1005241,-2.050434,10.283872,-2.0408638,1.1204339,2.179892,-0.884152,180.3,-141.3,-27.900002,,x,,,,
1005261,-1.9660959,10.406491,-2.3656554,0.960372,1.303362,-1.310984,175.5,-141.3,-27.300001,,x,,,,
1005281,-2.3626647,9.717431,-2.2669618,1.02897,0.373478,-1.425314,173.1,-141.3,-26.7,,x,,,,
1005301,-2.2442324,10.720516,-2.664727,1.326228,-0.030488,-0.830798,177.90001,-141.3,-27.900002,,x,,,,
1005321,-2.3626647,10.224058,-2.5959406,0.327746,-1.189032,-1.539644,173.1,-141.3,-26.7,,x,,,,
1005341,-2.196381,9.318469,-2.3877866,0.30488,-1.684462,-1.310984,180.3,-141.3,-25.500002,,x,,,,
1005362,-2.0354805,9.055884,-2.4715269,0.35061198,-1.501534,-0.47256398,180.3,-136.5,-26.7,,x,,,,
1005382,-1.9068798,8.685036,-2.238251,0.586894,-1.6158639,0.22865999,173.1,-136.5,-26.7,,x,,,,
1005402,-1.5695271,9.037342,-2.226288,0.899396,-1.29574,0.899396,180.3,-141.3,-26.7,,,,,,
1005422,-1.3326626,9.030165,-2.292682,0.87653,-1.044214,0.87653,175.5,-131.70001,-27.300001,,,,,,
1005444,-0.95702875,8.88661,-2.3399353,0.99086,-0.853664,0.960372,173.1,-138.90001,-27.300001,,,,,,
1005464,-0.75844526,8.901564,-2.2998598,1.227142,-0.632626,1.227142,173.1,-141.3,-26.1,,,,,,
1005484,-0.98215073,8.861488,-2.5552669,1.1204339,-0.34298998,1.1128119,170.70001,-141.3,-26.7,,,,,,
1005504,-0.8505593,9.241907,-2.5995293,1.265252,-0.55640596,1.272874,177.90001,-141.3,-27.300001,,,,,,
1005547,-1.1717621,8.814235,-3.0600994,0.41921,-0.80793196,0.510674,173.1,-143.70001,-27.900002,,,,,,
1005571,-0.8924293,9.238318,-3.117521,0.769822,-1.250008,0.60976,165.90001,-143.70001,-26.1,,,,,,
1005591,-0.8056986,9.333423,-2.9524338,0.541162,-1.33385,0.274392,170.70001,-146.1,-27.900002,,,,,,
1005613,-0.7763896,9.215589,-2.8686936,0.23628199,-1.1432999,0.022866,165.90001,-143.70001,-24.900002,,,,,,
1005633,-0.72435117,8.893189,-2.7245412,0.099086,-0.72409,-0.23628199,173.1,-146.1,-27.300001,,,,,,
1005653,-0.72614557,9.046912,-2.81187,0.20579399,-0.182928,-0.015244,170.70001,-141.3,-26.7,,,,,,
1005675,-0.88226086,9.076221,-2.8986008,0.221038,0.20579399,-0.16768399,163.5,-138.90001,-27.300001,,,,,,
1005695,-0.97616935,8.99966,-2.9931073,0.34298998,0.30488,-0.182928,173.1,-138.90001,-27.300001,,,,,,
1005715,-0.9953099,8.869264,-2.8627121,0.19055,0.26677,-0.160062,168.3,-143.70001,-26.1,,,,,,
1005735,-0.99710435,9.043921,-3.070268,0.083841994,0.46494198,0.068598,175.5,-141.3,-27.300001,,,,,,
1005755,-1.1388642,9.147401,-3.2156167,-0.015244,0.510674,-0.144818,170.70001,-134.1,-25.500002,,,,,,
1005775,-1.117331,8.97693,-3.184513,0.0,0.259148,-0.289636,173.1,-141.3,-26.1,,,,,,
1005795,-1.0216281,8.973939,-3.0505292,0.03811,0.11432999,-0.251526,165.90001,-141.3,-26.1,,,,,,
1005815,-0.8302224,9.067847,-2.8997972,-0.22865999,0.327746,-0.20579399,170.70001,-138.90001,-25.500002,,,,,,
1005835,-0.90319586,9.032557,-2.9548264,-0.45731997,0.716468,-0.358234,158.70001,-141.3,-26.1,,,,,,
1005855,-0.94745845,9.067249,-2.9422653,-0.365856,0.746956,-0.396344,175.5,-143.70001,-24.900002,,,,,,
1005875,-0.9983006,8.997267,-2.902788,-0.46494198,0.82317597,-0.525918,170.70001,-138.90001,-25.500002,,,,,,
1005898,-0.8852516,9.2269535,-2.856731,-0.243904,0.846042,-0.70122397,173.1,-138.90001,-26.1,,,,,,
1005960,-1.0030857,9.170728,-2.9757612,-0.15244,0.94512796,-0.967994,173.1,-143.70001,-25.500002,,,,,,
1005982,-1.032993,9.054688,-2.8986008,-0.297258,0.7622,-1.1051899,173.1,-138.90001,-25.500002,,,,,,
1006003,-0.93729,9.076221,-2.7921314,-0.41158798,0.67835796,-1.150922,168.3,-138.90001,-26.1,,,,,,
1006027,-1.0036839,8.602492,-2.710784,-0.846042,0.518296,-1.227142,173.1,-136.5,-25.500002,,,,,,
1006048,-1.0365818,8.826796,-2.7293265,-0.327746,0.396344,-0.899396,175.5,-134.1,-26.1,,,,,,
1006068,-1.1119478,8.87704,-2.7083914,-0.396344,0.40396598,-1.1051899,168.3,-138.90001,-26.1,,,,,,
1006088,-1.1035738,9.316675,-2.707195,-0.121952,0.442076,-1.25763,175.5,-136.5,-24.900002,,,,,,
1006111,-1.2848111,8.944032,-2.5445,-0.602138,0.503052,-1.684462,177.90001,-134.1,-26.1,,,,,,
1006132,-1.4487023,8.7843275,-2.4984431,-0.56402797,0.731712,-1.516778,182.70001,-136.5,-25.500002,,,,,,
1006152,-1.6131916,9.008632,-2.5839777,-0.26677,0.81555396,-1.3948259,180.3,-138.90001,-24.300001,,,,,,
1006172,-1.6915483,9.289759,-2.5594537,-0.16768399,0.80030996,-1.3490939,180.3,-131.70001,-24.900002,,,,,,
1006192,-1.6724077,9.195251,-2.5325372,-0.320124,0.731712,-1.417692,182.70001,-134.1,-27.300001,,,,,,
1006252,-1.6831744,9.07981,-2.485284,0.30488,0.365856,-0.53354,180.3,-134.1,-25.500002,,,,,,
1006272,-1.6556598,8.97992,-2.401544,0.26677,0.312502,-0.541162,185.1,-131.70001,-26.1,,,,,,
1006292,-1.5820881,8.881227,-2.4320493,0.327746,0.358234,-0.480186,182.70001,-134.1,-24.900002,,,,,,
1006315,-1.5904622,8.964967,-2.5361261,0.617382,0.434454,-0.480186,182.70001,-136.5,-26.1,,,,,,
1006335,-1.6209675,9.223963,-2.6503716,0.95274997,0.35061198,-0.35061198,185.1,-138.90001,-25.500002,,,,,,
1006356,-1.6281452,9.317871,-2.6868582,1.082324,0.0,-0.480186,180.3,-131.70001,-23.7,,,,,,
1006376,-1.9971994,9.245496,-2.6085014,1.06708,-0.213416,-0.53354,180.3,-129.3,-24.900002,,,,,,
1006396,-2.397357,9.468603,-2.6132867,1.211898,-0.7622,-0.3811,177.90001,-134.1,-24.300001,,,,,,
1006416,-2.6886528,9.493725,-2.4571714,1.006104,-1.577754,-0.221038,177.90001,-134.1,-23.1,,,,,,
1006437,-2.8136644,9.178504,-2.3375428,0.716468,-2.644834,0.091464,182.70001,-131.70001,-24.900002,,x,,,,
1006457,-3.1061563,8.517556,-1.7681106,0.72409,-4.131124,0.739334,185.1,-131.70001,-23.7,,x,,,,
1006477,-3.1103435,8.456545,-1.0276096,1.006104,-5.5945477,1.814036,187.5,-136.5,-24.300001,,x,,,,
1006497,-2.8974047,9.133643,-0.9271216,1.006104,-6.25004,2.2256238,177.90001,-136.5,-26.1,,x,,,,
1006517,-3.2335608,8.581557,-0.9731786,0.92988396,-8.391822,1.272874,185.1,-141.3,-27.300001,,x,,,,
1006537,-3.3567784,7.543181,-0.35410064,1.996964,-11.524464,1.158544,177.90001,-134.1,-28.500002,,x,,,,
1006557,-3.259879,6.8080635,0.037683006,3.445144,-13.300389,1.669218,180.3,-136.5,-26.7,,x,,,,
1006641,-2.5486872,4.9849234,-1.3870935,6.158576,-17.492489,1.021348,175.5,-134.1,-29.7,,x,,,,
1006681,-2.3746276,5.577683,-2.4093199,5.03052,-15.81565,0.541162,182.70001,-136.5,-30.300001,,x,,,,
1006701,-3.0971844,4.953222,-4.6541505,5.724122,-12.2104435,-1.097568,177.90001,-141.3,-30.900002,,x,,,,
1006741,-1.6873614,8.905152,-5.1404405,3.422278,-17.675417,1.56251,177.90001,-131.70001,-32.100002,,x,,,,
1006763,-2.622259,5.8731656,-4.2557874,3.147886,-10.686044,-2.583858,189.90001,-143.70001,-30.900002,,x,,,,
1006784,-3.1402507,8.090482,-6.690229,4.72564,-4.68753,1.41007,182.70001,-141.3,-32.7,,x,,,,
1006804,-2.6031182,12.076507,-7.48875,3.6890478,-2.888738,2.309466,177.90001,-138.90001,-31.500002,,x,,,,
1006866,-3.962099,11.971831,-11.43111,4.618932,9.169266,-2.012208,185.1,-131.70001,-27.900002,,x,,,,
1006886,-2.774187,13.559303,-13.643043,4.76375,9.931466,-0.45731997,173.1,-129.3,-25.500002,,x,,,,
1006906,-1.8069899,14.315954,-14.057556,3.330814,9.1463995,-0.60976,177.90001,-131.70001,-23.7,,x,,,,
1006926,-1.8584303,12.894766,-12.933047,-3.079288,5.647902,-3.8186219,177.90001,-136.5,-23.1,,x,,,,
1006946,-2.2956727,11.656013,-12.21049,-4.72564,6.4482117,-3.971062,177.90001,-124.50001,-24.300001,,x,,,,
1006968,-2.6138847,10.644552,-11.559113,-6.3872356,9.214998,-2.2561119,180.3,-126.9,-24.300001,,x,,,,
1006988,-2.6300347,10.195347,-10.7276945,-8.544262,9.07018,-1.56251,180.3,-124.50001,-24.300001,,x,,,,
1007009,-3.1581948,8.259756,-8.109024,-9.405548,5.7165,-1.25763,185.1,-134.1,-27.900002,,x,,,,
1007029,-3.0182295,7.969059,-6.9336734,-9.504634,5.282046,-0.503052,182.70001,-134.1,-26.7,,x,,,,
1007051,-2.392572,7.2028375,-3.9351826,-8.666214,8.925362,-0.083841994,185.1,-134.1,-28.500002,,x,,,,
1007072,-1.7896438,6.6692944,-3.6684108,-8.239382,11.85221,-0.525918,182.70001,-134.1,-29.1,,x,,,,
1007092,-1.7734939,6.211117,-3.0846233,-8.498529,11.936051,-1.18141,180.3,-138.90001,-29.1,,x,,,,
1007112,-1.9971994,5.8420625,-2.4918637,-8.186028,11.943674,-1.6234859,185.1,-136.5,-29.1,,x,,,,
1007133,-2.0976875,5.6715918,-2.413507,-7.5457797,11.707392,-2.012208,182.70001,-136.5,-27.900002,,x,,,,
1007154,-1.9601145,5.7995944,-1.8811597,-6.654006,10.02293,-2.111294,182.70001,-138.90001,-29.7,,x,,,,
1007174,-2.1096504,5.635703,-1.4343468,-6.4024796,9.169266,-2.652456,182.70001,-131.70001,-29.7,,x,,,,
1007194,-1.7071,6.555647,-0.9564306,-5.236314,8.071698,-1.775926,189.90001,-134.1,-30.300001,,x,,,,
1007214,-1.991816,5.8594084,-0.43664438,-6.112844,8.323224,-2.7439198,187.5,-134.1,-30.900002,,x,,,,
1007274,-2.4619565,7.11192,-0.48509395,-3.330814,7.294254,-1.455802,187.5,-131.70001,-29.7,,x,,,,
1007294,-2.5361261,7.0981627,-0.36965236,-2.652456,7.3628516,-1.501534,192.3,-131.70001,-29.1,,x,,,,
1007314,-2.8375902,7.9397497,-0.6124984,-2.301844,7.134192,-1.089946,192.3,-129.3,-29.1,,x,,,,
1007337,-3.3310583,8.472695,-0.8972145,-1.8902559,6.44059,-1.189032,187.5,-131.70001,-28.500002,,x,,,,
1007357,-3.2921789,8.482863,-0.9636083,-1.21952,5.37351,-1.539644,189.90001,-134.1,-28.500002,,x,,,,
1007377,-3.4417148,8.7089615,-0.9887303,-0.708846,4.53509,-1.318606,187.5,-126.9,-29.1,,x,,,,
1007397,-3.861013,9.628905,-1.7053056,-0.396344,3.910086,-0.792688,187.5,-131.70001,-27.900002,,x,,,,
1007417,-3.878359,9.8424425,-1.832112,0.297258,1.8902559,-1.745438,194.70001,-134.1,-26.7,,x,,,,
1007437,-3.908266,9.97523,-2.1814275,0.259148,1.3795819,-1.577754,192.3,-122.100006,-27.300001,,x,,,,
1007458,-3.9058735,9.527222,-2.2514102,0.144818,0.602138,-1.318606,194.70001,-131.70001,-27.900002,,x,,,,
1007521,-3.0870159,9.83048,-2.6874564,0.251526,-0.792688,1.250008,189.90001,-136.5,-26.1,,x,,,,
1007583,-1.9026928,9.23473,-2.4589658,0.099086,-1.8521459,2.05794,187.5,-126.9,-27.900002,,x,,,,
1007603,-1.7382035,8.949415,-2.3459167,-0.213416,-1.958854,1.71495,182.70001,-134.1,-27.300001,,x,,,,
1007626,-1.4576744,8.981715,-2.4033384,-0.144818,-1.6463519,2.080806,185.1,-136.5,-29.1,,x,,,,
1007646,-1.1520233,9.06067,-2.2155216,-0.068598,-1.3795819,2.141782,182.70001,-134.1,-27.300001,,,,,,
1007666,-0.91755134,8.86747,-2.0869207,-0.33536798,-0.92226195,1.8978779,189.90001,-141.3,-28.500002,,,,,,
1007686,-0.92472905,8.7304945,-2.2029605,-0.106708,-0.548784,1.6158639,185.1,-138.90001,-27.900002,,,,,,
1007706,-1.0311985,8.413479,-2.356085,0.28201398,-0.449698,1.4024479,182.70001,-134.1,-29.7,,,,,,
1007726,-0.9486548,8.848329,-2.5929499,1.051836,-0.769822,1.5244,177.90001,-138.90001,-27.300001,,,,,,
1007746,-0.70939755,9.040333,-2.5947442,1.044214,-1.044214,1.303362,175.5,-141.3,-28.500002,,,,,,
1007766,-0.6041244,9.249683,-2.5714166,0.91463995,-0.907018,1.02897,182.70001,-138.90001,-26.7,,,,,,
1007790,-0.80510044,9.035547,-2.7508595,0.243904,-0.49543,0.632626,175.5,-138.90001,-28.500002,,,,,,
1007810,-0.9271216,9.055286,-2.828618,0.03811,-0.091464,0.70122397,177.90001,-141.3,-27.300001,,,,,,
1007830,-0.91695315,9.201832,-2.8997972,-0.129574,0.137196,0.655492,177.90001,-136.5,-29.7,,,,,,
1007870,-0.97078604,9.000855,-2.652166,-0.47256398,0.487808,1.044214,175.5,-141.3,-27.300001,,,,,,
1007892,-0.98035634,9.111512,-2.6874564,-0.41158798,0.746956,1.196654,175.5,-134.1,-27.900002,,,,,,
1007912,-1.0132542,8.97693,-2.753252,-0.373478,0.708846,1.044214,165.90001,-148.5,-29.1,,,,,,
1007932,-1.0144504,8.906349,-2.8142626,-0.030488,0.602138,1.326228,173.1,-148.5,-29.7,,,,,,
1007954,-0.9468603,9.072035,-2.70241,0.060976,0.41158798,1.775926,161.1,-146.1,-29.1,,,,,,
1007974,-0.84517604,9.298731,-2.7341115,-0.007622,0.47256398,1.928366,168.3,-143.70001,-27.300001,,,,,,
1007994,-1.2549039,8.617446,-2.9649947,-1.097568,0.777444,2.461906,168.3,-141.3,-27.300001,,,,,,
1008014,-1.0820407,9.103736,-3.008061,-0.579272,0.60976,3.2622159,161.1,-143.70001,-28.500002,,,,,,
1008036,-1.0509372,9.32146,-3.0212202,-0.899396,0.83842,3.6966698,158.70001,-153.3,-28.500002,,,,,,
1008056,-0.954038,9.761095,-3.091801,-1.158544,1.059458,4.291186,156.3,-150.90001,-27.900002,,,,,,
1008078,-0.7847636,9.361536,-2.8603196,-1.684462,1.051836,4.009172,151.5,-158.1,-28.500002,,,,,,
1008099,-0.5748154,9.200037,-2.7030082,-1.6539739,1.417692,4.428382,144.3,-153.3,-27.900002,,,,,,
1008120,-0.26916432,9.385462,-2.8262255,-1.417692,1.6006199,4.504602,139.5,-158.1,-28.500002,,,,,,
1008140,0.08314187,9.255066,-2.61867,-1.265252,1.478668,4.390272,137.1,-158.1,-29.7,,,,,,
1008160,0.4426258,9.333423,-2.4930599,-1.158544,1.455802,3.971062,134.70001,-160.5,-27.300001,,,,,,
1008180,0.681883,9.235926,-2.3471131,-1.051836,1.303362,3.079288,127.50001,-158.1,-28.500002,,,,,,
1008203,1.0922091,9.115699,-2.3285706,-0.64787,0.91463995,1.3719599,125.100006,-158.1,-28.500002,,,,,,
1008223,0.9510473,8.969153,-2.2059512,-0.518296,0.55640596,0.28201398,125.100006,-160.5,-30.300001,,,,,,
1008243,1.3422328,9.264636,-2.2185123,-0.091464,0.060976,-0.746956,127.50001,-165.3,-28.500002,,,,,,
1008263,1.2752408,8.765785,-1.8129714,0.28201398,0.091464,-2.599102,125.100006,-158.1,-29.1,,,,,,
1008283,0.9390845,8.677858,-1.9487498,0.541162,0.49543,-2.6829438,129.90001,-155.70001,-30.900002,,,,,,
1008303,0.47492552,9.10254,-1.9726756,0.35061198,0.82317597,-2.393308,134.70001,-155.70001,-30.300001,,,,,,
1008323,-0.05084215,9.560119,-2.1844182,-0.03811,0.960372,-2.385686,137.1,-155.70001,-29.1,,,,,,
1008343,-0.5778061,9.475183,-2.4733212,-0.46494198,0.868908,-2.7515419,134.70001,-148.5,-27.300001,,,,,,
1008367,-0.7428936,9.266431,-2.4864802,-0.221038,0.160062,-2.408552,137.1,-158.1,-27.900002,,,,,,
1008387,-0.56464696,9.236524,-2.1915958,-0.20579399,-0.289636,-1.669218,139.5,-153.3,-27.900002,,,,,,
1008407,-0.42767224,9.264636,-2.0606024,-0.586894,-0.007622,-0.846042,141.90001,-153.3,-28.500002,,,,,,
1008430,-0.535338,9.157569,-2.3112245,-0.746956,0.26677,-0.655492,146.70001,-158.1,-29.7,,,,,,
1008450,-0.4498035,9.066053,-2.1174262,-0.137196,0.022866,-0.45731997,141.90001,-155.70001,-26.7,,,,,,
1008470,-0.34572664,9.081007,-2.0940986,0.068598,-0.03811,-0.449698,139.5,-158.1,-28.500002,,,,,,
1008533,-0.86132586,9.243702,-1.3876917,1.326228,-0.106708,-0.716468,141.90001,-155.70001,-27.900002,,,,,,
1008555,-0.9654028,9.567895,-1.263278,1.768304,-0.28201398,-0.983238,141.90001,-155.70001,-27.900002,,x,,,,
1008575,-2.036677,8.263345,-1.2136321,2.2180018,-1.189032,-1.547266,141.90001,-150.90001,-29.1,,x,,,,
1008595,-2.3148134,7.1759214,-0.20097604,2.987824,-4.169234,-0.34298998,144.3,-155.70001,-27.300001,,x,,,,
1008615,-1.8608228,8.144315,0.92652345,2.599102,-5.266802,0.81555396,137.1,-153.3,-24.900002,,x,,,,
1008635,-2.4529843,7.889506,0.7297344,2.035074,-5.0686297,-1.189032,141.90001,-150.90001,-28.500002,,x,,,,
1008655,-2.8435717,7.37271,0.08972145,3.628072,-7.6524878,-2.01983,149.1,-155.70001,-26.7,,x,,,,
1008675,-3.1402507,6.426448,0.4689441,4.0320377,-10.434518,-2.164648,153.90001,-148.5,-26.1,,x,,,,
1008695,-1.5168905,8.543276,-0.036486723,5.0991178,-12.469592,-0.053354,146.70001,-146.1,-26.1,,x,,,,
1008717,-2.007966,7.814738,0.24523862,3.170752,-13.452829,-2.355198,158.70001,-150.90001,-27.300001,,x,,,,
1008737,-2.3626647,6.2123127,-0.73272514,4.131124,-13.826307,-2.7362978,158.70001,-148.5,-27.900002,,x,,,,
1008757,-1.1669769,7.3039236,0.3409415,5.0991178,-17.599197,-1.074702,161.1,-146.1,-27.300001,,x,,,,
1008779,-1.6855669,6.639387,0.933103,2.2561119,-14.161675,-2.317088,161.1,-146.1,-26.7,,x,,,,
1008839,-3.585269,6.7404733,-4.5105963,7.271388,-9.542744,1.021348,165.90001,-146.1,-29.1,,x,,,,
1008862,-3.3753207,6.2404256,-6.3451004,6.051868,-10.388785,-0.243904,168.3,-143.70001,-29.1,,x,,,,
1008882,-2.8046925,6.1303673,-5.9646816,7.1418138,-8.262248,2.461906,168.3,-141.3,-26.7,,x,,,,
1008902,-2.9338913,10.810238,-8.124576,6.5091877,-1.56251,5.556438,163.5,-141.3,-27.900002,,x,,,,
1008924,-2.1467352,11.325239,-10.611056,7.256144,2.949714,2.301844,158.70001,-141.3,-27.300001,,x,,,,
1008944,-1.5043296,10.87723,-12.13034,6.234796,-0.373478,0.67835796,156.3,-138.90001,-24.900002,,x,,,,
1008964,-0.73810846,14.580932,-12.9629545,5.0076537,0.19055,2.93447,156.3,-138.90001,-21.900002,,x,,,,
1008984,-0.07835673,14.775926,-13.464198,5.03052,1.417692,1.570132,149.1,-146.1,-21.900002,,x,,,,
1009004,0.79134315,14.24956,-14.265112,2.47715,2.073184,-0.769822,151.5,-138.90001,-23.1,,x,,,,
1009024,-0.1573116,12.552031,-13.785401,0.068598,2.865872,-1.463424,149.1,-136.5,-21.900002,,x,,,,
1009044,-0.41810194,11.950896,-13.742334,-1.493912,3.993928,0.091464,161.1,-141.3,-21.300001,,x,,,,
1009067,-0.20635933,12.043011,-12.912112,-4.519846,3.2241058,0.754578,149.1,-136.5,-21.300001,,x,,,,
1009091,-1.0605075,10.642159,-10.795882,-7.766818,2.660078,-0.388722,156.3,-146.1,-23.1,,x,,,,
1009112,-1.7041093,9.262842,-9.357348,-8.597616,1.745438,-0.34298998,146.70001,-150.90001,-26.1,,x,,,,
1009132,-1.8889354,8.633595,-6.869074,-9.710428,1.02897,0.358234,149.1,-148.5,-26.7,,x,,,,
1009172,-1.7597367,7.467217,-4.4250617,-8.033587,9.100668,-0.632626,153.90001,-146.1,-25.500002,,x,,,,
1009198,-1.6939409,5.8049774,-3.1270914,-7.5152917,7.73633,-0.708846,156.3,-150.90001,-28.500002,,x,,,,
1009219,-1.3159145,5.6536474,-2.0241158,-6.44059,8.315601,0.106708,151.5,-153.3,-30.300001,,x,,,,
1009259,-1.2614836,6.235042,-1.836897,-4.4207597,8.5899935,-0.716468,149.1,-148.5,-30.300001,,x,,,,
1009301,-0.44501838,6.2236776,-0.44322395,-3.6661818,6.036624,-2.05794,153.90001,-150.90001,-29.7,,x,,,,
1009321,-0.45279422,5.991598,-0.061010584,-4.184478,7.9497457,-2.2256238,156.3,-155.70001,-30.300001,,x,,,,
1009343,-0.95942134,5.309117,-0.8816627,-4.222588,9.03207,-2.2256238,158.70001,-146.1,-31.500002,,x,,,,
1009363,-1.2513151,5.058495,-0.36905423,-3.3155699,8.19365,-1.6463519,158.70001,-141.3,-30.300001,,x,,,,
1009383,-0.8864479,6.9761415,-0.52516955,-2.454284,8.658592,-0.94512796,153.90001,-148.5,-29.7,,x,,,,
1009405,-1.2315763,7.0844054,-0.6447981,-3.08691,8.6814575,-2.36282,161.1,-150.90001,-32.100002,,x,,,,
1009425,-0.995908,7.5832567,-0.20516303,-2.6829438,8.048832,-2.347576,158.70001,-146.1,-32.100002,,x,,,,
1009448,-1.5707234,7.54677,-0.7596416,-2.55337,8.795788,-2.339954,161.1,-143.70001,-30.300001,,x,,,,
1009468,-2.1269965,8.788515,-1.313522,-1.463424,8.033587,-1.684462,158.70001,-146.1,-29.7,,x,,,,
1009488,-2.1682682,9.215589,-1.384701,-1.303362,6.684494,-2.126538,165.90001,-141.3,-27.900002,,x,,,,
1009508,-1.8931226,9.327441,-1.5318441,-0.716468,5.83083,-2.126538,165.90001,-146.1,-27.300001,,x,,,,
1009528,-1.7896438,9.402807,-1.7549515,-0.602138,5.076252,-1.67684,161.1,-146.1,-28.500002,,x,,,,
1009548,-2.2490175,8.911732,-1.9906198,-0.396344,4.26832,-1.3414719,165.90001,-146.1,-29.1,,x,,,,
1009568,-1.8943188,10.269517,-2.5576594,1.089946,3.483254,-0.40396598,161.1,-148.5,-29.1,,x,,,,
1009588,-0.9618139,12.689005,-3.3089268,1.204276,2.141782,0.434454,170.70001,-146.1,-27.900002,,x,,,,
1009612,-1.9792551,10.570382,-2.4344418,-0.3811,-0.137196,-3.452766,163.5,-138.90001,-28.500002,,x,,,,
1009632,-2.0612006,8.979322,-2.104865,0.11432999,-0.40396598,-2.347576,170.70001,-138.90001,-27.300001,,x,,,,
1009652,-2.2597842,9.47937,-2.2400453,-1.48629,0.16768399,-1.044214,170.70001,-141.3,-27.300001,,x,,,,
1009672,-2.2699525,9.476379,-2.259186,-1.577754,-0.17530599,-0.777444,165.90001,-143.70001,-27.300001,,x,,,,
1009693,-2.083332,9.380676,-2.0970893,-1.272874,-0.67835796,-0.434454,165.90001,-136.5,-26.7,,x,,,,
1009714,-1.753157,8.874647,-1.8709912,-1.440558,-0.769822,0.007622,170.70001,-138.90001,-27.300001,,x,,,,
1009734,-1.4325525,8.609072,-1.8297193,-0.92226195,-0.3811,1.211898,170.70001,-138.90001,-28.500002,,x,,,,
1009794,-1.029404,9.311292,-2.2783265,0.15244,-0.34298998,1.432936,165.90001,-146.1,-28.500002,,,,,,
1009814,-1.150827,9.027772,-2.3895812,0.198172,-0.640248,0.80030996,156.3,-141.3,-26.7,,,,,,
1009834,-1.2333708,8.9865,-2.5331354,0.67073596,-0.83842,0.594516,170.70001,-143.70001,-29.1,,,,,,
1009854,-1.1280977,9.30531,-2.714971,1.097568,-0.95274997,0.53354,161.1,-148.5,-29.1,,,,,,
1009874,-1.0766573,9.220374,-2.6515677,0.83842,-1.089946,0.243904,158.70001,-143.70001,-27.900002,,,,,,
1009894,-0.8792702,9.533801,-2.6790824,0.64787,-0.769822,0.23628199,163.5,-146.1,-28.500002,,,,,,
1009917,-0.8738869,9.046912,-2.6707084,-0.106708,-0.47256398,0.137196,161.1,-148.5,-30.900002,,,,,,
1009938,-0.8667092,8.950013,-2.6216607,0.20579399,-0.060976,0.47256398,163.5,-148.5,-28.500002,,,,,,
1009958,-0.72614557,9.057679,-2.6192682,0.243904,0.259148,0.56402797,161.1,-153.3,-29.1,,,,,,
1009979,-0.63941485,8.992481,-2.5289485,0.221038,0.47256398,0.53354,156.3,-143.70001,-29.1,,,,,,
1009999,-0.62326497,9.152185,-2.6120903,0.19055,0.70122397,0.388722,156.3,-153.3,-29.1,,,,,,
1010021,-0.7201641,9.15398,-2.710784,0.007622,0.67073596,0.022866,165.90001,-146.1,-27.900002,,,,,,
1010041,-0.76083785,8.968555,-2.6617362,-0.106708,0.426832,-0.17530599,163.5,-146.1,-27.300001,,,,,,
1010061,-0.70042545,9.054688,-2.647979,-0.11432999,0.388722,-0.07622,161.1,-143.70001,-28.500002,,,,,,
1010083,-0.86910176,9.403405,-2.7221487,-0.23628199,0.579272,-0.274392,158.70001,-143.70001,-27.300001,,,,,,
1010103,-0.9462622,9.107325,-2.6946342,-0.45731997,0.442076,-0.655492,161.1,-150.90001,-27.900002,,,,,,
1010124,-0.85953146,9.015211,-2.6294365,-0.365856,0.55640596,-0.487808,158.70001,-150.90001,-29.1,,,,,,
1010144,-0.74648243,9.214393,-2.6372123,-0.35061198,0.80793196,-0.243904,163.5,-148.5,-27.900002,,,,,,
1010164,-0.8475686,9.186878,-2.664727,-0.434454,0.95274997,-0.23628199,158.70001,-150.90001,-27.900002,,,,,,
1010188,-0.92233646,9.012818,-2.6701102,-0.41921,0.891774,-0.297258,158.70001,-150.90001,-27.900002,,,,,,
