time,sensor_accX,sensor_accY,sensor_accZ,sensor_gyroX,sensor_gyroY,sensor_gyroZ,sensor_magX,sensor_magY,sensor_magZ,label_Boxing_slip_left,label_Boxing_slip_right,label_Boxing_pullback,label_Boxing_roll_left,label_Boxing_roll_right,label_Boxing_recording_cut
1182884,-0.30086592,9.401013,-2.2442324,-0.289636,-0.95274997,0.45731997,108.3,-172.5,-29.7,,,,,,
1182904,-0.1614986,8.801674,-1.8057936,-0.449698,-0.998482,0.327746,101.100006,-170.1,-31.500002,,,,,,
1182927,0.3923818,8.894984,-1.6628375,-0.45731997,-0.80793196,0.045732,101.100006,-170.1,-29.1,,,,,,
1182947,0.39656878,8.317776,-1.3422328,-0.80793196,-0.708846,-0.365856,103.50001,-167.70001,-30.900002,,,,,,
1182967,0.55746925,9.156971,-1.5366293,0.022866,-0.182928,-0.28201398,105.9,-162.90001,-30.900002,,,,,,
1182990,0.2560052,9.170728,-1.6209675,-0.358234,0.0,-1.234764,98.700005,-162.90001,-29.1,,,,,,
1183010,0.12620817,9.082801,-1.5910603,-0.243904,0.03811,-1.775926,103.50001,-160.5,-31.500002,,,,,,
1183072,-0.20635933,8.79629,-1.7962234,-0.03811,0.777444,-2.7820299,110.700005,-162.90001,-29.7,,,,,,
1183092,-0.2727532,8.8489275,-2.1072576,0.41921,1.089946,-2.606724,113.100006,-165.3,-30.900002,,,,,,
1183115,0.029309006,9.822704,-2.359674,1.097568,1.006104,-2.157026,117.9,-162.90001,-29.1,,,,,,
1183135,0.26378104,9.919004,-2.5570612,0.82317597,1.06708,-2.332332,115.50001,-162.90001,-30.300001,,,,,,
1183155,-0.053832866,8.973341,-2.4870784,0.274392,1.310984,-2.606724,115.50001,-162.90001,-30.300001,,,,,,
1183178,0.21174261,9.16355,-2.773589,0.625004,1.242386,-2.050318,117.9,-158.1,-27.900002,,,,,,
1183198,0.21652776,8.394339,-2.7939258,-0.144818,1.669218,-2.2484899,120.3,-160.5,-29.1,,,,,,
1183218,0.028710863,7.9558997,-3.0577068,0.16768399,1.98172,-1.775926,125.100006,-167.70001,-27.900002,,,,,,
1183238,0.1698726,8.025883,-3.225785,0.289636,2.027452,-1.18141,120.3,-162.90001,-27.300001,,,,,,
1183258,0.15491903,8.55165,-3.5930448,0.426832,2.469528,-0.746956,125.100006,-160.5,-27.300001,,,,,,
1183282,0.70461243,10.421445,-4.3568735,1.280496,2.82014,-0.083841994,120.3,-155.70001,-28.500002,,,,,,
1183323,0.67470527,9.704869,-4.4800906,0.17530599,0.655492,-3.612828,127.50001,-155.70001,-27.900002,,,,,,
1183343,0.5640488,8.469107,-4.5177736,1.288118,0.93750596,-2.888738,125.100006,-162.90001,-27.300001,,,,,,
1183363,0.581395,8.926685,-4.4956427,1.051836,0.579272,-1.189032,132.3,-153.3,-26.1,,,,,,
1183383,0.62565756,9.401611,-4.4615483,0.69360197,0.708846,-0.91463995,127.50001,-153.3,-26.7,,,,,,
1183407,0.7482768,9.115101,-4.1858044,-0.746956,0.785066,-1.097568,127.50001,-153.3,-26.1,,,,,,
1183427,0.73990285,8.466116,-3.7922266,-1.539644,1.1280559,-1.036592,137.1,-158.1,-25.500002,,,,,,
1183447,0.8391946,8.30701,-3.564932,-1.6006199,1.455802,-0.365856,125.100006,-158.1,-26.1,,,,,,
1183470,0.9259253,8.327347,-3.3950596,-2.073184,1.577754,0.022866,129.90001,-150.90001,-28.500002,,,,,,
1183490,1.1478363,8.181399,-3.287992,-1.8369019,1.3948259,0.198172,129.90001,-155.70001,-27.300001,,,,,,
1183512,1.3344569,8.442788,-3.325675,-1.44818,1.25763,0.327746,127.50001,-150.90001,-27.900002,,,,,,
1183532,1.602425,8.493032,-3.212626,-1.211898,0.7622,0.15244,132.3,-158.1,-26.7,,,,,,
1183552,1.8087844,8.22626,-3.100773,-1.1128119,0.579272,0.121952,129.90001,-155.70001,-27.300001,,,,,,
1183572,1.8793652,8.287271,-3.1360636,-0.69360197,0.47256398,0.106708,132.3,-162.90001,-25.500002,,,,,,
1183592,1.9385813,8.380581,-3.2156167,-0.388722,0.22865999,-0.053354,129.90001,-153.3,-27.300001,,,,,,
1183612,1.9206371,8.479275,-3.3274693,0.083841994,-0.22865999,-0.251526,125.100006,-158.1,-26.1,,,,,,
1183632,1.8069899,8.572585,-3.1462321,0.28201398,-0.55640596,-0.16768399,127.50001,-155.70001,-27.300001,,,,,,
1183652,1.8255323,9.962669,-3.573306,0.64787,-0.55640596,0.015244,134.70001,-153.3,-26.1,,,,,,
1183672,0.83560574,8.5468645,-3.1217082,-0.7622,-1.760682,-1.3872039,139.5,-158.1,-27.300001,,,,,,
1183694,0.36247465,8.568398,-2.6079032,-0.11432999,-1.036592,0.259148,134.70001,-148.5,-25.500002,,,,,,
1183715,-0.39597064,9.501501,-2.748467,-0.594516,-0.449698,0.22865999,129.90001,-155.70001,-27.300001,,,,,,
1183735,-1.1286958,10.523727,-2.96978,-0.503052,-0.22865999,-0.221038,132.3,-158.1,-28.500002,,,,,,
1183755,-1.4445152,10.237815,-2.443414,-0.92988396,-1.326228,-1.417692,132.3,-160.5,-27.900002,,,,,,
1183775,-1.4576744,9.354358,-1.757344,-1.326228,-0.853664,-1.242386,132.3,-165.3,-27.300001,,,,,,
1183795,-1.5886678,8.958985,-1.8847485,-1.211898,-0.15244,-0.81555396,129.90001,-158.1,-27.900002,,,,,,
1183815,-1.8668042,8.62582,-1.7364091,-0.518296,-0.11432999,-0.503052,134.70001,-148.5,-29.1,,,,,,
1183835,-1.8751782,9.113306,-2.3309631,-0.160062,0.11432999,-0.030488,132.3,-158.1,-27.900002,,,,,,
1183855,-1.9631052,8.940443,-2.3285706,0.327746,-0.480186,-0.548784,132.3,-160.5,-27.900002,,,,,,
1183875,-1.8004104,9.020595,-2.363263,0.60976,-0.861286,-0.861286,129.90001,-155.70001,-27.900002,,,,,,
1183898,-1.7178667,9.122278,-2.2908876,0.525918,-0.87653,-1.326228,139.5,-160.5,-27.900002,,,,,,
1183918,-1.7740921,8.9242935,-2.2669618,0.099086,-0.7622,-1.951232,134.70001,-160.5,-26.1,,,,,,
1183981,-1.0443577,8.841151,-1.795027,-0.45731997,1.44818,-2.2637339,146.70001,-162.90001,-27.300001,,,,,,
1184001,-1.3721399,8.662307,-2.1832218,-0.45731997,1.8978779,-2.17227,146.70001,-148.5,-27.900002,,,,,,
1184021,-1.3565882,8.998463,-2.476312,0.47256398,1.669218,-1.920744,146.70001,-148.5,-28.500002,,,,,,
1184041,-1.2321745,9.380078,-2.5235653,0.83842,1.3872039,-1.974098,151.5,-148.5,-27.900002,,,,,,
1184061,-1.1095552,9.318469,-2.622259,0.518296,1.1432999,-2.187514,153.90001,-148.5,-27.900002,,,,,,
1184101,-1.1274995,8.436807,-3.313114,0.579272,1.21952,-1.8902559,153.90001,-153.3,-27.900002,,,,,,
1184123,-0.8685036,8.527724,-3.5320342,0.586894,0.602138,-1.478668,158.70001,-148.5,-27.900002,,,,,,
1184143,-0.48688838,9.161158,-3.8843405,0.792688,0.510674,-0.68597996,156.3,-146.1,-26.7,,,,,,
1184163,-0.055627298,9.732983,-4.2115245,0.739334,0.3811,-0.792688,161.1,-148.5,-26.7,,,,,,
1184185,0.06340315,9.738964,-4.2892833,0.548784,0.099086,-1.196654,153.90001,-143.70001,-27.900002,,,,,,
1184205,0.080151156,9.517651,-4.381995,0.45731997,-0.106708,-1.33385,156.3,-143.70001,-24.900002,,,,,,
1184225,0.061608724,9.161756,-4.2653575,0.49543,-0.358234,-1.173788,161.1,-146.1,-25.500002,,,,,,
1184245,0.0059814295,8.913527,-4.1989636,0.388722,-0.327746,-0.785066,149.1,-143.70001,-25.500002,,,,,,
1184265,-0.11962859,8.6324,-4.1403456,0.327746,-0.320124,-0.60976,158.70001,-143.70001,-26.7,,,,,,
1184285,-0.13876916,8.954201,-3.9148457,0.106708,-0.35061198,-0.434454,163.5,-148.5,-23.7,,,,,,
1184305,-0.19559275,8.685036,-3.8478537,-0.243904,-0.34298998,-0.617382,161.1,-146.1,-25.500002,,,,,,
1184325,-0.2380609,8.343496,-3.5709136,-0.274392,-0.129574,-0.525918,163.5,-141.3,-24.900002,,,,,,
1184345,-0.18602246,8.629409,-3.5457916,-0.28201398,0.19055,0.03811,161.1,-143.70001,-25.500002,,,,,,
1184365,-0.2727532,8.398525,-3.368143,-0.579272,0.327746,0.11432999,158.70001,-146.1,-26.1,,,,,,
1184388,-0.34871736,9.932762,-3.7635155,0.251526,0.92988396,0.15244,153.90001,-141.3,-26.1,,,,,,
1184408,-0.47791624,10.010521,-3.89092,0.07622,0.739334,-0.449698,158.70001,-138.90001,-27.300001,,,,,,
1184428,-1.2184173,8.086295,-3.1605875,-0.213416,-0.11432999,-1.3795819,161.1,-141.3,-23.7,,,,,,
1184448,-1.4164026,8.474489,-3.3089268,0.243904,0.35061198,-0.28201398,158.70001,-143.70001,-24.900002,,,,,,
1184468,-1.476815,9.265235,-3.3406284,-0.41921,0.3811,-0.274392,161.1,-146.1,-24.300001,,,,,,
1184512,-1.4618614,8.887806,-3.0182295,-0.967994,0.312502,-1.006104,168.3,-141.3,-25.500002,,,,,,
1184532,-1.4953574,8.436209,-2.7185597,-1.211898,0.67835796,-0.754578,161.1,-138.90001,-26.1,,,,,,
1184552,-1.6078084,8.240018,-2.6120903,-0.960372,1.166166,-0.297258,163.5,-143.70001,-25.500002,,,,,,
1184572,-1.5306479,8.875245,-2.9303024,-0.434454,1.661596,0.144818,163.5,-148.5,-24.300001,,,,,,
1184592,-1.514498,8.887208,-3.2084389,-0.28201398,1.250008,-0.213416,163.5,-141.3,-24.300001,,,,,,
1184652,-0.8714943,9.487145,-3.5105011,0.015244,1.6082419,0.11432999,163.5,-150.90001,-26.1,,,,,,
1184672,-1.0246189,9.2592535,-3.6247463,-0.320124,1.3490939,-0.548784,163.5,-141.3,-25.500002,,,,,,
1184692,-1.1885101,8.921901,-3.6032133,-0.586894,1.3414719,-0.884152,158.70001,-146.1,-26.1,,,,,,
1184712,-1.3434291,8.883619,-3.8287132,-0.617382,1.3948259,-0.907018,163.5,-141.3,-23.7,,,,,,
1184736,-1.4666466,8.731691,-3.6367092,-0.731712,0.80030996,-0.967994,156.3,-143.70001,-26.1,,,,,,
1184756,-1.4152063,9.034949,-3.5320342,-0.792688,0.746956,-0.487808,161.1,-141.3,-23.7,,,,,,
1184776,-1.3027554,8.945827,-3.4506867,-0.960372,0.72409,-0.358234,163.5,-143.70001,-24.900002,,,,,,
1184797,-1.0204319,8.832777,-3.2365515,-1.204276,1.1356779,0.35061198,161.1,-146.1,-26.7,,,,,,
1184817,-0.8296243,8.937452,-3.16298,-1.211898,1.3490939,0.579272,163.5,-141.3,-24.900002,,,,,,
1184837,-0.6178817,9.045118,-3.1318767,-1.074702,1.554888,0.525918,161.1,-143.70001,-26.7,,,,,,
1184881,-0.32897863,9.045716,-2.987724,-0.95274997,1.935988,0.091464,163.5,-143.70001,-26.1,,,,,,
1184901,-0.44920537,8.881227,-3.0230145,-0.967994,1.966476,-0.121952,158.70001,-138.90001,-24.300001,,,,,,
1184923,-0.5299547,8.866872,-3.07924,-0.731712,1.8826339,-0.182928,153.90001,-148.5,-24.300001,,,,,,
1184943,-0.4677478,9.075026,-3.0439496,-0.434454,1.661596,-0.373478,156.3,-143.70001,-24.900002,,,,,,
1184965,-0.48808467,9.256861,-3.0397625,-0.81555396,1.5929979,-0.510674,156.3,-143.70001,-26.1,,,,,,
1184985,-0.53892684,9.110315,-3.008061,-1.051836,1.577754,-0.55640596,156.3,-148.5,-25.500002,,,,,,
1185005,-0.5096178,9.145008,-2.8537402,-1.1280559,1.6082419,-0.259148,161.1,-138.90001,-24.900002,,,,,,
1185025,-0.5167955,9.072633,-2.8166552,-1.242386,1.509156,-0.312502,156.3,-148.5,-23.7,,,,,,
1185045,-0.51799184,9.013416,-2.5594537,-1.158544,1.3490939,-0.33536798,163.5,-141.3,-25.500002,,,,,,
1185065,-0.7087994,9.061866,-2.640203,-1.234764,1.303362,-0.320124,161.1,-143.70001,-25.500002,,,,,,
1185085,-0.8206521,8.9894905,-2.451788,-0.868908,0.95274997,-0.312502,158.70001,-148.5,-26.1,,,,,,
1185105,-0.7692119,9.147999,-2.388983,-0.3811,0.632626,-0.30488,161.1,-146.1,-25.500002,,,,,,
1185125,-0.85235375,9.338806,-2.2394474,0.07622,0.312502,0.022866,161.1,-148.5,-26.1,,,,,,
1185146,-1.1197237,9.603186,-1.9278148,0.121952,-0.213416,0.53354,158.70001,-148.5,-25.500002,,,,,,
1185167,-1.3781214,9.645056,-1.510311,-0.19055,-0.830798,0.792688,161.1,-146.1,-26.7,,,,,x,
1185187,-1.4146081,9.381274,-0.8601296,0.144818,-1.707328,1.227142,161.1,-148.5,-26.1,,,,,x,
1185248,-2.1915958,7.2650447,0.8589333,0.007622,-5.510706,-0.746956,153.90001,-141.3,-27.300001,,,,,x,
1185271,-1.7160722,5.589048,1.4750205,2.644834,-8.61286,0.46494198,149.1,-148.5,-27.300001,,,,,x,
1185291,1.0401707,6.550862,1.4038415,2.980202,-10.55647,4.618932,151.5,-148.5,-26.7,,,,,x,
1185312,1.0479465,6.03287,1.2692593,1.974098,-11.059522,4.009172,146.70001,-150.90001,-26.1,,,,,x,
1185332,1.7962234,4.697217,1.2997646,1.8902559,-13.094596,2.2256238,151.5,-153.3,-26.7,,,,,x,
1185352,2.853142,2.987126,2.0223215,3.8109999,-14.847655,-0.121952,149.1,-148.5,-26.7,,,,,x,
1185372,2.8507495,2.028303,1.4738243,4.626554,-13.803442,-1.189032,151.5,-150.90001,-29.1,,,,,x,
1185392,2.4984431,1.6753985,0.9510473,4.672286,-12.7668495,-2.7896519,158.70001,-148.5,-27.300001,,,,,x,
1185412,2.221503,1.6466876,0.2560052,4.672286,-12.065626,-4.672286,158.70001,-143.70001,-27.300001,,,,,x,
1185432,1.7597367,0.8685036,-0.2338739,2.7972739,-10.266833,-7.256144,163.5,-146.1,-28.500002,,,,,x,
1185452,1.4146081,0.65377027,-1.9983957,3.2774599,-5.914672,-7.9192576,175.5,-138.90001,-28.500002,,,,,x,
1185472,-0.26796806,0.2990715,-4.3287606,3.894842,-1.326228,-9.5275,175.5,-134.1,-27.300001,,,,,x,
1185492,-1.2178191,0.5544785,-7.181903,8.483286,0.83842,-7.6219997,182.70001,-124.50001,-24.900002,,,,,x,
1185513,-0.849363,5.5077004,-8.187979,2.93447,-1.189032,-5.724122,192.3,-124.50001,-26.7,,,,,x,
1185534,-1.6538653,4.676282,-8.775355,3.1936178,0.82317597,-9.10829,197.1,-122.100006,-23.7,,,,,x,
1185554,-2.9291062,5.3192854,-9.715038,4.1921,3.8109999,-7.538158,197.1,-119.700005,-24.300001,,,,,x,
1185574,-2.8812547,8.847133,-11.569282,2.370442,10.838484,-3.7805119,206.70001,-112.50001,-23.1,,,,,x,
1185596,-1.790242,10.720516,-13.674745,2.050318,13.125084,-6.455834,204.3,-102.9,-22.5,,,,,x,
1185616,-3.3687413,8.621633,-14.39132,0.30488,5.8765616,-11.989406,213.90001,-93.3,-20.7,,,,,x,
1185657,-3.9094625,12.471879,-11.533991,-5.975648,4.756128,-4.4512477,218.70001,-93.3,-21.300001,,,,,x,
1185677,-5.325267,12.808036,-12.082488,-2.568614,14.420824,-8.498529,223.50002,-93.3,-20.7,,,,,x,
1185699,-5.531626,12.7260895,-14.763963,0.93750596,18.376642,-8.544262,228.3,-88.5,-18.300001,,,,,x,
1185719,-5.8354826,13.334999,-15.396798,-3.7119138,12.88118,-7.728708,230.70001,-83.700005,-14.1,,,,,x,
1185739,-6.370821,12.985683,-13.734559,-7.042728,8.23176,-8.414688,233.1,-81.3,-17.7,,,,,x,
1185759,-8.633595,11.535187,-12.846914,-4.870458,11.920808,-8.285114,240.3,-76.5,-13.500001,,,,,x,
1185779,-6.9049625,13.583229,-14.092248,-4.03966,12.08087,-3.58234,235.50002,-76.5,-14.700001,,,,,x,
1185799,-8.0522,12.032244,-9.837059,-10.754642,2.332332,-9.557988,237.90001,-71.700005,-15.3,,,,,x,
1185819,-9.985398,10.222861,-8.625221,-9.344572,5.205826,-10.25159,247.50002,-74.100006,-15.900001,,,,,x,
1185840,-10.727096,9.671972,-9.020595,-6.051868,11.73788,-4.824726,249.90001,-69.3,-14.700001,,,,,x,
1185861,-11.010615,12.844522,-6.9755435,-11.265316,5.815586,-0.739334,249.90001,-69.3,-17.7,,,,,x,
1185882,-11.190059,12.1429,-5.501121,-9.37506,7.69822,-1.310984,245.1,-74.100006,-16.5,,,,,x,
1185902,-9.764684,11.697882,-4.736096,-8.61286,4.024416,0.251526,240.3,-81.3,-17.7,,,,,x,
1185922,-10.792294,11.21219,-2.2191105,-9.062558,4.359784,1.150922,240.3,-88.5,-17.7,,,,,x,
1185942,-9.548156,12.019085,-3.0313885,-5.464974,6.5701637,3.7728899,240.3,-86.100006,-16.5,,,,,x,
1185962,-8.704177,13.655604,-1.6622393,-6.5549197,2.85825,4.9543,242.70001,-83.700005,-18.300001,,,,,x,
1185982,-8.398525,12.849307,-0.17226517,-7.134192,4.169234,3.54423,233.1,-88.5,-18.300001,,,,,x,
1186022,-7.0754333,12.418644,-0.037084863,-7.01224,3.7042918,5.4268637,223.50002,-102.9,-18.900002,,,,,x,
1186042,-7.6430707,9.944127,0.24404234,-6.9741297,3.071666,4.748506,213.90001,-105.3,-20.1,,,,,x,
1186062,-7.221978,9.285571,-0.48090696,-4.9466777,2.2561119,7.599134,211.50002,-110.100006,-21.300001,,,,,x,
1186082,-6.455757,10.014708,-0.9067848,-3.7347798,-0.327746,9.382682,209.1,-124.50001,-20.7,,,,,x,
1186142,-4.363453,6.9875064,0.7919413,-2.6829438,-4.428382,9.725672,189.90001,-134.1,-23.1,,,,,x,
1186162,-3.560147,7.058087,0.2619866,-2.40093,-5.061008,9.420792,177.90001,-138.90001,-24.300001,,,,,x,
1186182,-3.0002851,6.4246535,0.19798532,-1.211898,-6.5701637,7.9192576,173.1,-136.5,-24.900002,,,,,x,
1186202,-2.5797906,4.898791,0.28112718,-1.006104,-8.07932,5.22107,168.3,-143.70001,-25.500002,,,,,x,
1186222,-1.6239581,3.2951696,0.04426258,0.373478,-8.719568,4.718018,158.70001,-148.5,-27.900002,,,,,x,
1186242,-0.99291736,3.095988,-0.23626648,0.80030996,-8.704324,6.0594897,158.70001,-146.1,-27.300001,,,,,x,
1186262,-0.2853142,3.8472557,-1.1257051,1.4024479,-8.247004,6.722604,156.3,-146.1,-27.900002,,,,,x,
1186282,0.5676377,4.392762,-1.4510949,2.7210538,-7.9802337,5.762232,149.1,-146.1,-28.500002,,,,,x,
1186306,1.4522911,4.391566,-1.6586505,2.2865999,-7.057972,4.314052,146.70001,-153.3,-30.300001,,,,,x,
1186326,1.836897,3.878359,-1.8680005,2.13416,-5.8613176,2.7896519,141.90001,-153.3,-29.1,,,,,x,
1186349,2.6216607,3.7832544,-2.22569,3.612828,-4.76375,4.0777698,141.90001,-153.3,-26.7,,,,,x,
1186369,3.200065,5.8468475,-2.5038264,3.2774599,-3.35368,5.777476,134.70001,-158.1,-26.7,,,,,x,
1186389,2.5534723,5.973654,-3.222196,1.8521459,-2.065562,3.338436,129.90001,-160.5,-27.900002,,,,,x,
1186429,3.1910927,7.3481865,-3.9489398,2.149404,-2.13416,2.408552,125.100006,-153.3,-26.1,,,,,x,
1186452,2.9805465,7.413982,-4.2868905,0.3811,-1.8826339,1.036592,122.700005,-155.70001,-24.900002,,,,,x,
1186472,3.0738568,7.8249063,-4.271339,0.365856,-1.417692,0.998482,127.50001,-160.5,-26.7,,,,,x,
1186496,3.0128462,8.634792,-4.320387,-0.41921,-0.525918,0.785066,122.700005,-160.5,-26.1,,,,,x,
1186517,2.1766422,8.0713415,-4.216908,-1.272874,0.975616,-0.091464,120.3,-153.3,-26.7,,,,,x,
1186537,1.6568561,8.176016,-4.447193,-0.35061198,2.004586,0.045732,120.3,-153.3,-26.7,,,,,x,
1186557,1.2854092,8.616848,-4.4914556,0.449698,1.493912,0.297258,122.700005,-158.1,-26.1,,,,,,
1186579,1.2034637,8.772963,-3.8053856,0.47256398,1.326228,0.312502,122.700005,-150.90001,-26.7,,,,,,
1186600,1.0569186,9.508678,-3.756338,0.243904,1.806414,-0.129574,125.100006,-160.5,-26.7,,,,,,
1186621,0.6459944,8.360245,-3.5792875,-0.93750596,2.065562,-1.8521459,125.100006,-155.70001,-27.300001,,,,,,
1186683,0.111254595,7.79799,-3.1809244,-0.960372,1.5929979,-1.44818,125.100006,-155.70001,-27.300001,,,,,,
1186704,0.38161522,8.253177,-3.0798383,-0.47256398,1.1356779,-0.67073596,127.50001,-160.5,-27.300001,,,,,,
1186724,0.815867,9.436303,-3.234159,-0.083841994,0.53354,-0.30488,125.100006,-158.1,-27.300001,,,,,,
1186747,0.5544785,8.397927,-2.5510798,-1.074702,-0.442076,-1.25763,125.100006,-153.3,-26.1,,,,,,
1186767,0.6974347,9.323853,-2.7927296,-0.26677,-0.442076,-0.716468,129.90001,-155.70001,-25.500002,,,,,,
1186789,0.56883395,9.227551,-2.647979,-0.60976,-0.67073596,-1.3948259,132.3,-153.3,-26.1,,,,,,
1186809,0.20157418,9.171925,-2.744878,-0.625004,-0.510674,-1.303362,137.1,-150.90001,-25.500002,,,,,,
1186829,-0.17047074,9.276001,-2.9990888,-0.487808,-0.579272,-1.4024479,134.70001,-160.5,-27.300001,,,,,,
1186849,-0.25122005,9.208411,-2.9721725,-0.312502,-0.754578,-1.425314,132.3,-153.3,-27.300001,,,,,,
1186869,-0.27634206,8.959583,-2.986528,-0.41921,-0.7622,-1.303362,139.5,-148.5,-27.300001,,,,,,
1186909,-0.16448931,9.222168,-3.2706459,-0.396344,-0.72409,-0.426832,132.3,-155.70001,-26.1,,,,,,
1186932,-0.052636582,9.185681,-3.1946816,-0.17530599,-0.998482,-0.16768399,134.70001,-155.70001,-26.1,,,,,,
1186952,0.15252645,9.222168,-3.017033,0.0,-1.059458,-0.160062,139.5,-146.1,-26.7,,,,,,
1186972,0.37623194,9.165345,-2.8471606,-0.20579399,-0.80030996,-0.23628199,134.70001,-150.90001,-26.7,,,,,,
1186992,0.41271865,8.798085,-2.8710864,-0.56402797,-0.548784,-0.579272,134.70001,-158.1,-27.900002,,,,,,
1187012,0.51141226,8.479275,-2.7604299,-0.56402797,-0.56402797,-0.594516,134.70001,-155.70001,-27.300001,,,,,,
1187032,0.46595338,8.667689,-2.8836472,-0.099086,-0.49543,-0.23628199,137.1,-153.3,-26.7,,,,,,
1187052,0.5209825,8.780141,-2.7999072,-0.03811,-0.57164997,-0.251526,137.1,-155.70001,-27.900002,,,,,,
1187072,0.78895056,9.68872,-2.9614058,0.297258,-0.518296,-0.33536798,134.70001,-155.70001,-26.1,,,,,,
1187095,0.29309005,8.942238,-2.8561327,-0.480186,-0.640248,-1.303362,132.3,-158.1,-27.900002,,,,,,
1187156,-0.13697474,9.305908,-2.941069,0.45731997,-0.449698,-0.434454,141.90001,-153.3,-27.900002,,,,,,
1187179,0.40434465,11.088972,-3.6492703,0.69360197,0.083841994,0.243904,146.70001,-148.5,-26.1,,,,,,
1187200,0.36426908,9.789806,-3.4153965,-0.57164997,-1.3719599,-1.8445239,139.5,-155.70001,-27.900002,,,,,,
1187220,-0.91276616,7.349981,-2.6449883,1.463424,0.640248,-0.015244,146.70001,-153.3,-27.900002,,,,,,
1187240,-0.3953725,10.695992,-3.2281775,-0.26677,0.69360197,1.44818,139.5,-153.3,-26.1,,,,,,
1187260,-0.7973246,9.072633,-3.0804362,-1.036592,0.95274997,-1.6387299,137.1,-148.5,-27.300001,,,,,,
1187280,-0.9049903,8.680849,-2.9649947,-0.68597996,0.907018,-1.509156,139.5,-150.90001,-27.300001,,,,,,
1187303,-0.93071043,9.098951,-3.016435,-0.49543,1.242386,-0.884152,144.3,-153.3,-27.300001,,,,,,
1187323,-0.99231917,9.154578,-3.2263832,-0.297258,1.265252,-0.739334,149.1,-153.3,-26.7,,,,,,
1187344,-1.1364716,8.57079,-3.095988,-0.20579399,0.899396,-0.67835796,144.3,-150.90001,-25.500002,,,,,,
1187365,-0.95702875,9.312488,-3.16298,0.121952,0.846042,0.20579399,144.3,-150.90001,-28.500002,,,,,,
1187385,-1.0353855,8.945827,-3.184513,-0.792688,0.67835796,-0.060976,144.3,-155.70001,-26.1,,,,,,
1187405,-1.108359,8.608474,-3.1121378,-0.579272,0.541162,0.17530599,134.70001,-150.90001,-27.900002,,,,,,
1187425,-0.8439797,8.926087,-3.1581948,-0.274392,0.67835796,0.57164997,141.90001,-148.5,-26.7,,,,,,
1187448,-0.7757914,9.412377,-3.3071325,-0.20579399,0.91463995,0.289636,139.5,-153.3,-27.300001,,,,,,
1187468,-0.6663313,9.278394,-3.196476,-0.20579399,0.7622,-0.20579399,141.90001,-153.3,-27.900002,,,,,,
1187490,-0.43484995,9.042726,-2.9261155,-0.33536798,0.92226195,-0.297258,146.70001,-153.3,-27.300001,,,,,,
1187510,-0.32658607,9.104933,-2.9021897,-0.69360197,1.463424,0.007622,141.90001,-146.1,-26.1,,,,,,
1187530,-0.4426258,8.912331,-2.8794603,-0.92226195,1.6539739,0.137196,141.90001,-155.70001,-26.7,,,,,,
1187554,-0.3020622,9.107325,-2.8968065,-0.548784,1.478668,0.22865999,139.5,-153.3,-26.7,,,,,,
1187574,-0.07536601,9.5984,-2.9446578,-0.3811,1.166166,0.41921,137.1,-150.90001,-26.7,,,,,,
1187594,-0.010766573,9.1946535,-2.8005054,-0.83842,0.92226195,0.091464,134.70001,-150.90001,-27.900002,,,,,,
1187614,0.10886202,9.154578,-2.710784,-0.82317597,0.81555396,0.198172,139.5,-143.70001,-27.300001,,,,,,
1187634,-0.0077758585,8.915919,-2.7227468,-0.884152,0.82317597,-0.053354,137.1,-155.70001,-26.7,,,,,,
1187654,-0.037683006,8.90934,-2.727532,-0.640248,0.708846,-0.20579399,137.1,-153.3,-27.900002,,,,,,
1187674,0.011962859,8.991285,-2.731719,-0.46494198,0.69360197,-0.312502,139.5,-150.90001,-27.300001,,,,,,
1187696,0.004187001,8.931471,-2.7305226,-0.579272,0.785066,-0.41158798,141.90001,-153.3,-27.300001,,,,,,
1187716,-0.23507018,8.856703,-2.8627121,-0.525918,0.868908,-0.518296,139.5,-150.90001,-26.7,,,,,,
1187736,-0.39178365,8.9464245,-3.0565107,-0.243904,0.70122397,-0.47256398,141.90001,-150.90001,-26.7,,,,,,
1187756,-0.32419348,9.03794,-3.0858195,-0.091464,0.320124,-0.28201398,139.5,-155.70001,-26.7,,,,,,
1187776,-0.24344419,9.044519,-3.0559125,-0.358234,0.19055,0.068598,139.5,-155.70001,-26.7,,,,,,
1187796,-0.123815596,9.271814,-3.054118,-0.358234,0.198172,0.297258,144.3,-153.3,-26.7,,,,,,
1187816,-0.079553016,8.97035,-2.8357959,-0.56402797,0.289636,0.19055,137.1,-153.3,-25.500002,,,,,,
1187836,0.1794429,9.354956,-2.7125783,-0.221038,0.45731997,0.33536798,141.90001,-153.3,-27.900002,,,,,,
1187879,-0.018542431,9.52124,-2.623455,-0.022866,0.777444,0.34298998,139.5,-148.5,-27.300001,,,,,,
1187899,0.04246815,9.057679,-2.0779486,-0.259148,0.69360197,0.137196,132.3,-160.5,-25.500002,,,,,,
1187919,-0.011962859,9.674963,-1.8357008,0.121952,1.036592,0.72409,137.1,-150.90001,-26.7,,,,,x,
1187939,-0.46236452,10.308396,-1.4971519,-0.03811,0.69360197,0.40396598,132.3,-155.70001,-25.500002,,,,,x,
1187959,-0.3074455,9.8424425,-1.3793176,-0.007622,0.274392,0.525918,132.3,-153.3,-26.1,,,,,x,
1187979,-0.37802637,7.667595,-0.5066271,-0.60976,-1.768304,0.967994,134.70001,-155.70001,-25.500002,,,,,x,
1187999,-0.55328226,6.6842475,1.2226043,0.60976,-3.6585598,2.545748,134.70001,-155.70001,-26.7,,,,,x,
1188022,0.53414166,7.8954873,2.1760442,0.625004,-4.969544,2.2713559,125.100006,-150.90001,-26.1,,,,,x,
1188064,0.5634507,5.171544,2.079145,1.44818,-11.333914,-0.23628199,132.3,-155.70001,-29.1,,,,,x,
1188084,0.9558325,3.9710712,2.3608704,2.2408679,-14.21503,0.28201398,127.50001,-158.1,-27.300001,,,,,x,
1188104,1.0443577,2.7873464,2.945256,3.003068,-15.884248,0.792688,132.3,-155.70001,-27.900002,,,,,x,
1188124,0.49346796,1.7358109,2.7377005,2.7744079,-16.288214,0.091464,134.70001,-158.1,-28.500002,,,,,x,
1188191,0.9301123,3.049931,-0.7787821,2.59148,-10.846106,-3.551852,139.5,-150.90001,-30.300001,,,,,x,
1188212,0.33316565,2.790935,-2.4870784,3.025934,-6.9131536,-4.908568,141.90001,-158.1,-29.1,,,,,x,
1188233,-1.2393522,2.1856143,-4.947839,4.359784,-1.958854,-8.6814575,146.70001,-153.3,-29.1,,,,,x,
1188274,-0.10108616,8.264542,-7.911039,4.093014,-2.035074,-2.347576,151.5,-141.3,-24.300001,,,,,x,
1188360,1.3799158,10.680441,-11.188863,-1.280496,-3.033556,-5.5945477,185.1,-119.700005,-25.500002,,,,,x,
1188380,-0.58378756,10.873043,-10.150486,-0.03811,4.489358,-11.92843,197.1,-114.9,-21.900002,,,,,x,
1188420,-1.6825762,8.886012,-15.966828,3.01069,17.218098,-9.497012,206.70001,-98.100006,-18.900002,,,,,x,
1188440,-1.1352754,12.270903,-15.579232,-2.560992,10.480249,-6.379614,206.70001,-95.700005,-17.1,,,,,x,
1188460,-3.1181192,13.215371,-14.418237,-2.17227,9.03207,-8.429932,209.1,-98.100006,-16.5,,,,,x,
1188481,-4.916137,12.439579,-14.533678,-2.660078,12.370505,-10.487872,218.70001,-83.700005,-15.900001,,,,,x,
1188501,-6.020309,10.576364,-14.500182,-4.070148,16.333946,-11.39489,213.90001,-88.5,-15.3,,,,,x,
1188523,-6.8756533,11.589619,-15.907612,-1.44818,19.13122,-6.44059,221.1,-78.9,-13.500001,,,,,x,
1188544,-4.601514,15.716207,-16.807219,-5.045764,13.353744,-2.812518,221.1,-76.5,-11.1,,,,,x,
1188564,-6.793708,14.588707,-13.4923115,-10.1677475,7.073216,-9.466524,223.50002,-81.3,-12.3,,,,,x,
1188586,-10.822799,11.075215,-13.309877,-6.311016,15.411684,-8.658592,233.1,-74.100006,-11.700001,,,,,x,
1188606,-8.847133,11.835455,-12.845718,-10.1677475,9.024447,-5.9070497,225.90001,-69.3,-9.900001,,,,,x,
1188626,-11.101534,10.572775,-10.064952,-11.433,3.971062,-5.061008,228.3,-71.700005,-11.700001,,,,,x,
1188646,-10.910128,11.646441,-8.35845,-11.669282,2.7439198,0.251526,228.3,-76.5,-12.900001,,,,,x,
1188666,-10.751021,12.067534,-5.5429907,-13.14795,2.538126,0.160062,235.50002,-83.700005,-13.500001,,,,,x,
1188686,-11.738556,10.456736,-4.496839,-10.182992,6.8369336,-0.792688,233.1,-88.5,-14.1,,,,,x,
1188706,-9.5984,12.741043,-4.362855,-9.87049,2.660078,4.176856,233.1,-90.9,-15.900001,,,,,x,
1188727,-9.280189,12.082488,0.105871305,-13.391853,-0.022866,2.652456,218.70001,-100.50001,-17.1,,,,,x,
1188767,-8.29744,10.536288,0.11065645,-9.1463995,4.8857017,8.30798,213.90001,-107.700005,-19.5,,,,,x,
1188787,-7.370916,11.090169,1.5623494,-9.7028055,3.2012398,7.461938,209.1,-112.50001,-20.7,,,,,x,
1188807,-7.740568,8.832777,1.589864,-8.582372,3.513742,5.510706,199.50002,-119.700005,-20.7,,,,,x,
1188829,-7.542583,7.8296914,1.7890456,-6.8598,0.92988396,7.9345016,199.50002,-126.9,-22.5,,,,,x,
1188849,-6.6746774,8.076126,1.4881797,-6.4177237,-0.541162,10.465006,189.90001,-124.50001,-21.900002,,,,,x,
1188912,-3.4321444,4.785742,2.5558648,-5.114362,-7.911636,7.8582816,175.5,-143.70001,-28.500002,,,,,x,
1188932,-2.7927296,4.438221,1.8201491,-3.35368,-7.9802337,8.902495,163.5,-146.1,-29.1,,,,,x,
1188952,-2.455975,3.7246363,1.7669144,-2.157026,-9.352194,8.140296,156.3,-150.90001,-32.100002,,,,,x,
1188972,-1.2136321,3.2347572,1.4134119,-0.106708,-10.083906,8.468041,146.70001,-155.70001,-30.300001,,,,,x,
1189012,1.0856295,3.6905422,0.7099957,1.234764,-8.597616,8.178406,137.1,-158.1,-33.300003,,,,,x,
1189032,1.940974,4.134364,0.12321745,3.643316,-7.16468,6.70736,129.90001,-160.5,-31.500002,,,,,x,
1189052,2.4715269,4.5177736,-0.39716694,4.161612,-6.714982,6.654006,125.100006,-165.3,-32.100002,,,,,x,
1189072,3.0965862,5.305528,-0.53414166,3.88722,-5.746988,5.480218,110.700005,-160.5,-32.100002,,,,,x,
1189095,3.5858672,6.0304775,-1.4690391,3.856732,-3.490876,3.147886,113.100006,-165.3,-30.900002,,,,,x,
1189115,3.4064243,6.8714666,-2.9446578,4.596066,-1.730194,2.05794,105.9,-162.90001,-29.1,,,,,x,
1189135,2.9757612,6.5000196,-2.7508595,3.1783738,-3.338436,0.030488,110.700005,-160.5,-29.7,,,,,x,
1189155,2.794524,5.553159,-3.3460119,2.004586,-1.310984,-1.3719599,103.50001,-160.5,-29.7,,,,,x,
1189175,2.6623344,5.112328,-4.2958627,2.2027578,-1.4024479,-0.373478,113.100006,-160.5,-29.7,,,,,x,
1189195,2.8387866,6.5257397,-4.1690564,1.768304,-2.2789779,1.692084,105.9,-165.3,-29.1,,,,,x,
1189215,2.8878343,7.467217,-4.542896,1.730194,-0.92988396,1.432936,103.50001,-162.90001,-28.500002,,,,,x,
1189235,2.6892507,7.4397025,-4.740283,0.449698,-1.074702,0.663114,103.50001,-167.70001,-29.7,,,,,x,
1189255,2.7759814,7.4331226,-4.195375,-0.137196,-0.53354,0.579272,98.700005,-162.90001,-29.1,,,,,x,
1189275,2.723345,8.608474,-4.3873787,0.106708,0.46494198,0.41921,105.9,-167.70001,-29.1,,,,,x,
1189295,2.569024,8.958985,-4.3532844,-0.35061198,1.006104,-0.41921,108.3,-167.70001,-27.900002,,,,,x,
1189315,2.665923,9.465612,-4.3317513,-0.091464,0.785066,-0.998482,103.50001,-162.90001,-27.900002,,,,,x,
1189335,2.3716369,9.232337,-3.6600368,-0.396344,0.739334,-1.684462,101.100006,-160.5,-29.1,,,,,,
1189358,1.9146557,9.5619135,-3.5870633,-0.487808,1.204276,-1.951232,108.3,-162.90001,-28.500002,,,,,,
1189378,0.815867,9.3729,-3.6468778,0.007622,0.975616,-2.606724,110.700005,-162.90001,-27.300001,,,,,,
1189398,0.5957504,9.296338,-3.5577543,0.144818,0.56402797,-2.7439198,110.700005,-160.5,-28.500002,,,,,,
1189418,0.16508746,8.86747,-3.2969642,-0.160062,-0.030488,-2.637212,113.100006,-160.5,-27.900002,,,,,,
1189441,0.14116174,9.050501,-3.0726604,-0.099086,-0.327746,-1.8597679,115.50001,-165.3,-28.500002,,,,,,
1189461,0.27993092,9.197046,-2.9554243,-0.289636,-0.541162,-1.3872039,113.100006,-160.5,-27.900002,,,,,,
1189481,0.55746925,9.061268,-2.539715,-0.80030996,-0.663114,-0.884152,120.3,-162.90001,-26.7,,,,,,
1189501,0.7339214,9.035547,-2.292682,-0.87653,-0.41158798,-0.426832,120.3,-162.90001,-26.7,,,,,,
1189521,0.75186574,8.881227,-2.4129088,-0.82317597,-0.053354,-0.327746,115.50001,-165.3,-27.300001,,,,,,
1189545,0.87089616,9.035547,-2.447601,0.022866,-0.34298998,-0.41158798,120.3,-160.5,-30.300001,,,,,,
1189565,1.0509372,9.159962,-2.3459167,0.30488,-0.442076,-0.632626,113.100006,-160.5,-26.1,,,,,,
1189587,1.0969942,9.426135,-2.5169857,0.3811,-0.243904,-0.785066,115.50001,-162.90001,-28.500002,,,,,,
1189607,0.8481667,8.948219,-2.6276422,-0.11432999,-0.053354,-1.06708,117.9,-160.5,-27.300001,,,,,,
1189627,0.73571587,8.959583,-2.7263358,-0.007622,0.022866,-0.884152,120.3,-162.90001,-28.500002,,,,,,
1189647,0.3995595,8.901564,-2.8549364,0.030488,0.07622,-0.731712,117.9,-160.5,-29.7,,,,,,
1189671,0.28890306,9.287366,-2.9811447,0.182928,-0.274392,-0.625004,120.3,-160.5,-27.300001,,,,,,
1189751,0.24882747,9.124073,-2.8848436,-0.586894,-0.213416,-0.40396598,125.100006,-160.5,-29.1,,,,,,
1189773,0.2841179,9.242505,-2.874675,-0.365856,-0.083841994,-0.41158798,117.9,-155.70001,-29.1,,,,,,
1189793,0.25540704,8.976332,-2.8788621,-0.34298998,-0.106708,-0.55640596,117.9,-158.1,-28.500002,,,,,,
1189813,0.42527965,8.906349,-2.743682,-0.060976,-0.060976,-0.41158798,122.700005,-160.5,-27.900002,,,,,,
1189833,0.5108141,9.290357,-2.743682,0.053354,0.22865999,-0.426832,122.700005,-162.90001,-29.7,,,,,,
1189853,0.38939106,9.238916,-2.7329152,-0.53354,0.60976,-0.731712,120.3,-158.1,-27.300001,,,,,,
1189873,0.11663788,8.927882,-2.8794603,-0.80793196,0.907018,-1.1204339,125.100006,-158.1,-28.500002,,,,,,
1189893,0.033496007,8.893787,-2.9081712,-0.47256398,0.731712,-1.097568,122.700005,-158.1,-27.900002,,,,,,
1189913,-0.08134744,8.985902,-2.6994193,-0.19055,0.617382,-1.1204339,125.100006,-162.90001,-29.1,,,,,,
1189933,-0.18004103,9.262842,-2.7418873,-0.213416,0.373478,-0.975616,125.100006,-160.5,-28.500002,,,,,,
1189953,-0.09031959,9.048109,-2.4260678,-0.586894,0.060976,-0.891774,129.90001,-155.70001,-27.900002,,,,,,
1189976,0.15491903,8.907545,-2.3513,-0.3811,0.365856,-1.089946,129.90001,-158.1,-27.300001,,,,,,
1189996,-0.19020946,9.07024,-2.8393848,0.099086,0.388722,-0.777444,127.50001,-153.3,-29.1,,,,,,
1190016,0.09749731,9.165943,-2.6455863,0.144818,-0.525918,-0.426832,134.70001,-160.5,-28.500002,,,,,,
1190036,0.45458865,9.124671,-2.4547787,0.23628199,-0.41158798,-0.64787,132.3,-155.70001,-27.900002,,,,,,
1190056,0.66034985,9.294543,-2.7095876,0.17530599,0.716468,-1.021348,132.3,-158.1,-29.1,,,,,,
1190078,0.14774132,8.984706,-2.924321,0.106708,2.05794,-2.01983,132.3,-158.1,-27.900002,,,,,,
1190102,-0.40255022,9.075026,-3.2897863,0.060976,2.187514,-1.951232,134.70001,-158.1,-29.7,,,,,,
1190122,-0.8045023,8.903358,-3.2592812,-0.22865999,1.3795819,-1.1432999,129.90001,-155.70001,-27.300001,,,,,,
1190142,-0.7249493,9.143811,-3.0840251,-0.53354,0.106708,-0.198172,129.90001,-155.70001,-27.300001,,,,,,
1190162,-0.17705032,9.511669,-2.7251394,-0.998482,-1.074702,0.289636,137.1,-155.70001,-29.1,,,,,,
1190182,0.12620817,9.043921,-2.3746276,-1.783548,-1.440558,0.083841994,132.3,-155.70001,-28.500002,,,,,,
1190202,0.27873462,9.119885,-2.4697323,-1.044214,-1.166166,-0.11432999,132.3,-158.1,-26.7,,,,,,
1190222,0.4396351,8.842347,-2.4164977,-0.541162,-0.853664,-0.480186,134.70001,-158.1,-27.300001,,,,,,
1190282,0.13936731,9.225159,-2.6844656,0.221038,1.006104,-0.663114,132.3,-150.90001,-26.7,,,,,,
1190302,-0.000598143,9.076819,-2.7795703,-0.03811,1.1280559,-0.663114,132.3,-162.90001,-28.500002,,,,,,
1190322,-0.05024401,9.055884,-2.7562428,-0.091464,1.074702,-0.480186,134.70001,-155.70001,-28.500002,,,,,,
1190342,0.052636582,9.404602,-2.707195,-0.07622,1.1051899,-0.327746,137.1,-153.3,-26.7,,,,,,
1190364,0.0077758585,9.332825,-2.6725028,-0.617382,1.1280559,-0.503052,139.5,-153.3,-28.500002,,,,,,
1190384,0.1531246,9.06067,-2.5708184,-0.846042,1.1051899,-0.442076,132.3,-155.70001,-27.300001,,,,,,
1190404,0.18183546,8.921303,-2.580987,-0.708846,1.150922,-0.243904,134.70001,-155.70001,-27.300001,,,,,,
1190427,0.22370547,9.274805,-2.53493,-0.373478,1.150922,-0.137196,132.3,-162.90001,-27.900002,,,,,,
1190447,0.2171259,9.37649,-2.5193782,-0.320124,1.1356779,-0.525918,132.3,-158.1,-27.900002,,,,,,
1190467,0.19140574,8.882423,-2.3195984,-0.525918,1.1432999,-0.67835796,139.5,-155.70001,-28.500002,,,,,,
1190488,0.13876916,8.99966,-2.4153013,-0.289636,1.288118,-0.41921,134.70001,-158.1,-26.7,,,,,,
1190508,-0.10347874,8.992481,-2.3542907,-0.251526,1.059458,-0.274392,134.70001,-155.70001,-26.7,,,,,,
1190528,-0.073571585,9.37649,-2.321991,0.083841994,0.602138,-0.33536798,137.1,-160.5,-27.900002,,,,,,
1190548,-0.09630102,9.193458,-1.8386915,-0.007622,-0.106708,-0.518296,132.3,-153.3,-26.1,,,,,,
1190571,0.011962859,9.090577,-1.2309783,-0.007622,-1.02897,-0.49543,134.70001,-158.1,-26.1,,,,,x,
1190591,0.06280501,8.143717,-0.48449582,-0.289636,-1.958854,-0.388722,137.1,-160.5,-27.900002,,,,,x,
1190611,-0.049047723,6.7303047,1.1053683,-0.358234,-4.321674,-0.72409,137.1,-148.5,-27.300001,,,,,x,
1190634,0.10826388,6.514973,2.659942,0.33536798,-3.88722,0.746956,141.90001,-158.1,-30.300001,,,,,x,
1190654,-0.6250594,6.0017667,1.8165601,-0.663114,-2.85825,-0.11432999,139.5,-155.70001,-29.1,,,,,x,
1190677,-1.276437,5.4676247,0.9229346,3.7957559,-8.452798,-0.53354,139.5,-160.5,-27.300001,,,,,x,
1190698,-0.105273165,5.213414,1.3398403,4.4207597,-11.997027,-0.320124,141.90001,-155.70001,-29.1,,,,,x,
1190718,0.22609805,4.4083138,1.2357634,3.948196,-14.21503,-0.251526,146.70001,-155.70001,-30.300001,,,,,x,
1190741,1.0108616,4.4657354,1.8171583,4.352162,-15.808027,0.099086,144.3,-160.5,-29.7,,,,,x,
1190761,0.93429935,3.7042994,1.6072102,2.987824,-15.190645,-1.5244,144.3,-155.70001,-29.1,,,,,x,
1190781,-0.10108616,2.6473808,1.263278,2.507638,-15.007718,-3.2622159,144.3,-148.5,-29.7,,,,,x,
1190801,0.17764847,3.2102332,1.0987886,3.155508,-14.123566,-2.812518,151.5,-155.70001,-30.900002,,,,,x,
1190821,0.31701577,6.037057,-0.111852735,2.51526,-11.783611,-3.407034,149.1,-150.90001,-30.300001,,,,,x,
1190841,-0.50842154,5.5334206,-2.5092099,0.72409,-9.085423,-8.0945635,161.1,-146.1,-32.100002,,,,,x,
1190861,-3.0798383,0.2924919,-3.3609653,1.21952,-4.214966,-12.835447,170.70001,-141.3,-31.500002,,,,,x,
1190881,-1.4331505,4.827612,-6.5951242,6.471078,-4.68753,-2.2865999,170.70001,-138.90001,-30.300001,,,,,x,
1190901,-1.0551242,7.8434486,-5.5501685,0.221038,-5.4725957,-3.513742,173.1,-134.1,-32.7,,,,,x,
1190921,-3.924416,4.1235976,-6.2529864,2.13416,1.554888,-8.986338,185.1,-134.1,-29.7,,,,,x,
1190942,-2.610296,7.1896787,-9.082801,6.4786997,4.45887,-2.599102,180.3,-126.9,-30.300001,,,,,x,
1190962,-1.7441849,10.955586,-9.560718,0.518296,3.597584,-1.074702,182.70001,-129.3,-28.500002,,,,,x,
1190984,-2.9434617,9.796386,-11.079402,4.664664,8.247004,-8.216516,185.1,-119.700005,-28.500002,,,,,x,
1191004,-2.7083914,8.899171,-12.310381,4.504602,7.195168,-7.4848037,192.3,-119.700005,-24.300001,,,,,x,
1191024,-3.107951,10.55184,-12.083086,1.493912,5.274424,-4.0167937,194.70001,-117.3,-24.300001,,,,,x,
1191044,-1.0054784,13.778822,-12.389336,1.547266,5.960404,-2.157026,194.70001,-119.700005,-24.900002,,,,,x,
1191064,-1.5402181,13.311073,-11.928765,0.625004,8.11743,-7.233278,199.50002,-107.700005,-22.5,,,,,x,
1191087,-2.932097,11.879718,-13.572462,3.0488,13.696733,-7.057972,204.3,-105.3,-21.900002,,,,,x,
1191108,-1.8482618,12.921084,-14.890171,0.442076,11.951296,-4.64942,209.1,-105.3,-18.900002,,,,,x,
1191128,-2.5092099,13.841028,-14.052771,-2.89636,9.634208,-5.312534,209.1,-98.100006,-20.1,,,,,x,
1191148,-3.4787996,14.498387,-14.494201,-1.684462,12.38575,-5.5488157,209.1,-100.50001,-17.7,,,,,x,
1191168,-3.9549212,13.162734,-14.350646,-4.314052,10.815618,-7.5610237,206.70001,-93.3,-15.900001,,,,,x,
1191189,-5.347996,11.477167,-13.263821,-5.5030837,9.855246,-6.4634557,213.90001,-88.5,-17.7,,,,,x,
1191231,-5.898288,14.370983,-11.6027775,-8.0945635,5.045764,-3.338436,213.90001,-95.700005,-16.5,,,,,x,
1191251,-8.650942,12.724296,-7.981022,-10.602201,4.4969797,-6.272906,221.1,-98.100006,-18.300001,,,,,x,
1191275,-10.708553,12.195537,-9.722814,-6.791202,16.638826,-1.8673899,218.70001,-93.3,-15.900001,,,,,x,
1191295,-9.793993,12.854093,-8.603688,-9.900978,5.5945477,-0.975616,213.90001,-102.9,-17.7,,,,,x,
1191315,-10.655319,12.172808,-4.992699,-10.525982,3.650938,0.792688,218.70001,-100.50001,-20.1,,,,,x,
1191338,-9.549951,12.952786,-4.9609976,-8.551884,9.512256,3.46801,213.90001,-107.700005,-19.5,,,,,x,
1191358,-9.003248,11.141609,-4.246815,-8.849142,7.0198617,2.644834,213.90001,-107.700005,-19.5,,,,,x,
1191378,-8.988295,10.005137,-1.8638135,-7.8582816,3.7042918,3.16313,206.70001,-112.50001,-18.900002,,,,,x,
1191398,-7.802177,10.152879,-0.9588232,-6.242418,6.722604,4.9924097,206.70001,-112.50001,-19.5,,,,,x,
1191418,-7.342205,9.442285,-0.6992291,-6.471078,6.143332,4.80186,201.90001,-119.700005,-22.5,,,,,x,
1191441,-5.9724574,7.8243084,0.4635608,-5.121984,2.7210538,5.015276,194.70001,-124.50001,-21.300001,,,,,x,
1191461,-4.773181,8.483461,1.1490326,-6.0137577,1.6082419,5.29729,185.1,-129.3,-21.900002,,,,,x,
1191481,-4.0906997,6.861298,1.1041719,-6.623518,1.318606,3.39179,180.3,-131.70001,-24.300001,,,,,x,
1191504,-3.7258325,5.4909525,1.3195034,-5.015276,-0.480186,3.12502,177.90001,-131.70001,-24.300001,,,,,x,
1191524,-2.8920212,5.7218356,1.3518031,-3.376546,-1.821658,4.375028,180.3,-129.3,-24.900002,,,,,x,
1191544,-2.631829,5.1278796,1.0993868,-3.079288,-2.873494,3.58234,165.90001,-134.1,-25.500002,,,,,x,
1191565,-1.9738718,4.252198,1.2937832,-1.9054999,-4.855214,3.155508,170.70001,-138.90001,-25.500002,,,,,x,
1191585,-0.8810646,3.5087066,1.7501663,-1.1356779,-5.655524,3.605206,173.1,-143.70001,-25.500002,,,,,x,
1191605,-0.07716044,4.752246,1.2022674,-0.274392,-4.4512477,5.0686297,168.3,-146.1,-26.7,,,,,x,
1191628,-0.6124984,4.392762,0.7895487,-0.69360197,-4.64942,3.54423,161.1,-148.5,-28.500002,,,,,x,
1191648,-0.2924919,3.6875515,0.66034985,0.091464,-5.167716,3.071666,158.70001,-143.70001,-29.7,,,,,x,
1191668,0.39417621,3.5194733,0.7925394,0.41158798,-5.52595,3.2164838,156.3,-146.1,-29.7,,,,,x,
1191690,1.5306479,5.5423927,0.3134269,0.884152,-4.565578,4.321674,156.3,-158.1,-29.7,,,,,x,
1191711,1.8805615,6.142928,-0.15432088,1.051836,-4.169234,3.361302,146.70001,-150.90001,-29.1,,,,,x,
1191731,2.2484195,6.1979575,-0.36307278,1.5929979,-4.550334,2.583858,146.70001,-150.90001,-29.1,,,,,x,
1191751,2.6192682,6.5610304,-0.7751933,2.469528,-4.093014,2.51526,144.3,-158.1,-29.1,,,,,x,
1191771,2.8974047,7.368523,-1.0120579,2.827762,-3.8262439,2.385686,144.3,-158.1,-27.300001,,,,,x,
1191791,2.848955,7.854215,-1.2309783,1.9131219,-2.7972739,1.966476,139.5,-153.3,-27.300001,,,,,x,
1191811,2.4075255,8.272916,-1.83271,0.68597996,-1.234764,1.326228,137.1,-158.1,-29.1,,,,,x,
1191834,1.9391795,8.954201,-2.7598317,0.586894,0.0,0.716468,137.1,-155.70001,-28.500002,,,,,x,
1191855,1.4774132,8.759804,-3.1306803,0.243904,-0.243904,-0.068598,134.70001,-158.1,-29.1,,,,,x,
1191875,0.6764997,9.1731205,-3.4913604,0.30488,-0.129574,0.510674,134.70001,-153.3,-29.1,,,,,x,
1191897,0.43066293,9.487145,-3.9626973,0.182928,-0.617382,0.259148,137.1,-153.3,-29.1,,,,,x,
1191917,0.5490953,8.833974,-3.3005528,0.22865999,-1.6006199,0.0,134.70001,-155.70001,-28.500002,,,,,x,
1191959,0.2045649,8.9787245,-3.8604147,0.754578,-0.221038,0.777444,137.1,-162.90001,-28.500002,,,,,x,
1191980,0.21234076,9.338208,-4.041054,1.41007,-0.67073596,0.46494198,132.3,-160.5,-29.1,,,,,x,
1192000,0.2715569,9.030763,-3.782058,1.173788,-1.166166,-0.007622,134.70001,-158.1,-27.900002,,,,,,
1192021,0.51021594,8.698195,-3.5302398,0.87653,-1.25763,0.106708,137.1,-160.5,-27.900002,,,,,,
1192042,0.73691213,8.897377,-3.4901643,0.213416,-0.960372,0.56402797,132.3,-155.70001,-27.900002,,,,,,
1192062,0.4940661,9.066651,-3.322086,-0.41921,-0.632626,0.22865999,137.1,-155.70001,-27.900002,,,,,,
1192086,0.54072124,9.409387,-3.3460119,-0.64787,-0.396344,-0.49543,137.1,-158.1,-27.900002,,,,,,
1192126,0.5909653,8.636586,-2.853142,-1.044214,-0.106708,-1.1204339,129.90001,-158.1,-28.500002,,,,,,
1192200,0.07476787,8.948817,-2.7167654,-0.045732,0.55640596,-1.3795819,137.1,-153.3,-29.7,,,,,,
1192221,-0.0891233,9.097157,-2.8621142,-0.182928,0.716468,-0.975616,139.5,-153.3,-27.900002,,,,,,
1192262,-0.4288685,8.940443,-3.1025677,-0.28201398,0.594516,-0.35061198,144.3,-153.3,-30.300001,,,,,,
1192284,-0.36546534,8.950611,-2.9727705,-0.30488,0.373478,-0.121952,134.70001,-153.3,-29.1,,,,,,
1192304,-0.25181818,9.150392,-2.9291062,-0.297258,0.297258,-0.312502,139.5,-153.3,-28.500002,,,,,,
1192327,-0.06459944,9.330432,-2.8058887,-0.449698,0.35061198,-0.64787,141.90001,-158.1,-27.300001,,,,,,
1192367,-0.41152236,8.676064,-2.7604299,-0.55640596,0.632626,-0.785066,139.5,-153.3,-30.300001,,,,,,
1192387,-0.44800907,9.086988,-2.7975147,-0.015244,0.548784,-0.426832,141.90001,-150.90001,-28.500002,,,,,,
1192407,-0.51859,9.35376,-2.8166552,-0.129574,0.426832,-0.373478,144.3,-148.5,-29.7,,,,,,
1192427,-0.41570938,9.486547,-2.8764696,-0.41158798,0.358234,-0.602138,144.3,-148.5,-27.300001,,,,,,
1192447,-0.32538977,9.091773,-2.6545584,-0.449698,0.243904,-0.739334,149.1,-155.70001,-29.1,,,,,,
1192469,-0.26079035,8.917115,-2.5163875,-0.46494198,0.434454,-0.53354,146.70001,-155.70001,-29.1,,,,,,
1192489,-0.20277047,9.233533,-2.5205746,-0.40396598,0.82317597,-0.251526,141.90001,-153.3,-29.7,,,,,,
1192509,-0.4342518,9.143811,-2.7173636,-0.70122397,0.891774,-0.442076,144.3,-155.70001,-29.1,,,,,,
1192532,-0.5861801,8.942238,-2.5821831,-0.19055,0.70122397,-0.259148,144.3,-150.90001,-29.1,,,,,,
1192552,-0.38340965,9.168934,-2.502032,0.20579399,0.67073596,-0.160062,141.90001,-155.70001,-29.1,,,,,,
1192574,-0.3020622,9.243103,-2.5367243,-0.007622,0.846042,0.022866,141.90001,-148.5,-26.1,,,,,,
1192594,-0.42109266,9.370508,-2.681475,0.091464,0.777444,0.015244,141.90001,-153.3,-27.300001,,,,,,
1192614,-0.46236452,9.352564,-2.7215505,0.07622,0.708846,-0.022866,144.3,-150.90001,-27.300001,,,,,,
1192634,-0.43544808,9.0511,-2.719158,-0.083841994,0.434454,0.045732,137.1,-155.70001,-28.500002,,,,,,
1192657,-0.29727706,9.257459,-2.6551566,0.121952,0.3811,0.320124,139.5,-155.70001,-27.900002,,,,,,
1192677,-0.27394947,9.470996,-2.802898,-0.03811,0.388722,0.091464,134.70001,-160.5,-27.900002,,,,,,
1192698,-0.18542433,9.238318,-2.7526538,-0.26677,0.274392,-0.17530599,139.5,-155.70001,-28.500002,,,,,,
1192718,-0.16748004,9.082203,-2.735906,-0.34298998,0.35061198,-0.083841994,139.5,-155.70001,-27.300001,,,,,,
1192738,-0.14953575,9.03794,-2.7335134,-0.41158798,0.434454,0.160062,141.90001,-158.1,-27.900002,,,,,,
1192800,0.035290435,9.149793,-2.8142626,-0.23628199,0.41921,-0.053354,134.70001,-146.1,-26.1,,,,,,
1192820,0.055627298,8.954201,-2.731719,-0.503052,0.46494198,-0.083841994,141.90001,-150.90001,-26.7,,,,,,
1192842,0.037683006,9.096559,-2.8459642,-0.487808,0.57164997,-0.03811,139.5,-148.5,-26.7,,,,,,
1192862,-0.04246815,9.208411,-2.8328052,-0.312502,0.49543,-0.297258,137.1,-153.3,-27.300001,,,,,,
1192882,-0.055627298,9.101942,-2.765215,-0.28201398,0.449698,-0.41158798,137.1,-158.1,-26.7,,,,,,
1192902,0.047253296,9.168934,-2.6192682,-0.213416,0.548784,-0.327746,141.90001,-158.1,-26.7,,,,,,
1192924,-0.21174261,9.113306,-2.5199764,-0.327746,0.80793196,-0.160062,144.3,-153.3,-28.500002,,,,,,
1192944,-0.2978752,9.083399,-2.3572814,-0.213416,0.891774,0.17530599,141.90001,-153.3,-30.300001,,,,,x,
1192964,-0.29548264,9.876536,-2.1706607,0.091464,0.632626,0.80793196,141.90001,-158.1,-27.900002,,,,,x,
1192984,-0.58079684,10.206712,-1.6981279,-0.975616,-0.068598,1.1051899,139.5,-150.90001,-26.7,,,,,x,
1193007,-0.6005356,8.78373,-0.69564027,-2.149404,-0.92988396,1.036592,129.90001,-155.70001,-26.7,,,,,x,
1193027,-0.31402507,8.804067,0.018542431,-2.042696,-1.44818,2.050318,132.3,-155.70001,-26.7,,,,,x,
1193047,-1.1938933,7.4540577,0.33256748,-2.6981878,-2.2332458,1.150922,132.3,-155.70001,-29.7,,,,,x,
1193067,-1.598238,6.741071,0.5467027,-1.1051899,-4.832348,0.95274997,134.70001,-158.1,-28.500002,,,,,x,
1193091,-1.0718722,6.4527664,0.99889874,1.097568,-7.9345016,1.097568,129.90001,-158.1,-29.1,,,,,x,
1193111,-0.08972145,6.50959,1.3398403,2.17227,-11.250072,0.853664,132.3,-155.70001,-30.300001,,,,,x,
1193131,0.91755134,6.5789747,1.2794278,3.376546,-13.37661,0.967994,134.70001,-160.5,-30.900002,,,,,x,
1193151,1.2405485,4.8383784,1.3559902,3.978684,-16.204372,-0.19055,129.90001,-158.1,-30.300001,,,,,x,
1193171,1.5210776,5.0764394,1.229782,5.015276,-16.836998,0.137196,134.70001,-153.3,-30.900002,,,,,x,
1193191,1.9044873,5.5830665,0.8906349,5.198204,-17.9117,-0.33536798,134.70001,-155.70001,-29.7,,,,,x,
1193211,2.6491752,4.778564,1.4187951,3.612828,-18.590057,-2.2256238,134.70001,-153.3,-30.900002,,,,,x,
1193231,1.7232499,2.8710864,1.740596,2.6905658,-17.157122,-5.853696,137.1,-155.70001,-32.100002,,,,,x,
1193253,1.1286958,1.0575168,0.9253272,4.131124,-13.18606,-5.838452,141.90001,-150.90001,-32.100002,,,,,x,
1193273,1.6586505,3.0577068,-0.6705183,2.865872,-8.498529,-4.34454,151.5,-150.90001,-32.7,,,,,x,
1193293,-0.62326497,2.1054633,-3.5882597,1.935988,-0.92988396,-7.4390717,158.70001,-143.70001,-32.7,,,,,x,
1193336,-1.0987886,2.2932801,-5.647068,4.108258,-4.809482,-5.823208,168.3,-143.70001,-29.7,,,,,x,
1193356,-1.6550616,4.195973,-7.0867977,4.009172,3.064044,-4.969544,177.90001,-136.5,-30.300001,,,,,x,
1193396,-0.86910176,8.758608,-12.203911,0.83842,4.984788,-8.872007,177.90001,-134.1,-27.300001,,,,,x,
1193416,-1.8883374,7.1053405,-11.3055,-0.274392,2.118916,-12.111358,180.3,-126.9,-25.500002,,,,,x,
1193436,-2.2520082,5.4407086,-10.466904,0.655492,1.8445239,-11.920808,189.90001,-119.700005,-25.500002,,,,,x,
1193456,-2.707195,6.6465645,-9.953697,-0.617382,6.9893737,-9.1159115,201.90001,-110.100006,-24.900002,,,,,x,
1193478,-2.3285706,10.638571,-11.535786,0.579272,12.065626,-4.832348,201.90001,-112.50001,-24.900002,,,,,x,
1193498,-2.5193782,13.067031,-12.463505,-0.72409,12.225688,-7.43145,209.1,-107.700005,-22.5,,,,,x,
1193518,-4.8521357,10.600289,-12.456925,-1.036592,12.2104435,-13.536672,201.90001,-102.9,-21.300001,,,,,x,
1193538,-5.9108486,9.47279,-13.116677,0.503052,13.323256,-11.440621,218.70001,-88.5,-20.7,,,,,x,
1193558,-5.0345693,12.231425,-13.857179,-0.80793196,14.786679,-5.686012,225.90001,-88.5,-20.7,,,,,x,
1193578,-4.8174434,14.866245,-14.607847,-2.43904,14.992474,-4.672286,225.90001,-93.3,-17.7,,,,,x,
1193598,-7.111322,11.466999,-13.753699,-5.045764,9.131156,-11.410133,233.1,-86.100006,-14.700001,,,,,x,
1193618,-9.005641,9.777245,-11.800164,-5.960404,8.490908,-10.122016,230.70001,-78.9,-14.1,,,,,x,
1193638,-8.726308,13.820691,-12.43599,-4.30643,14.8629,-1.554888,230.70001,-74.100006,-14.700001,,,,,x,
1193658,-7.2680354,16.110981,-13.259633,-4.786616,14.969607,-0.274392,230.70001,-71.700005,-12.900001,,,,,x,
1193678,-7.844047,14.116773,-11.309688,-8.1555395,4.68753,-8.986338,230.70001,-76.5,-14.1,,,,,x,
1193700,-12.7799225,10.590121,-8.747243,-6.158576,11.608306,-3.3155699,237.90001,-71.700005,-13.500001,,,,,x,
1193720,-8.6114645,16.081673,-9.759899,-9.405548,10.7241535,4.72564,230.70001,-76.5,-12.900001,,,,,x,
1193740,-9.017604,14.552818,-5.656638,-12.683008,2.484772,-2.85825,228.3,-88.5,-14.1,,,,,x,
1193763,-10.125364,10.821005,-5.071056,-8.788166,9.268352,-2.469528,235.50002,-88.5,-15.3,,,,,x,
1193783,-8.502005,11.42154,-5.5208597,-9.405548,7.721086,2.6905658,228.3,-86.100006,-13.500001,,,,,x,
1193804,-8.192764,11.346174,-3.6349149,-9.458901,3.7347798,2.317088,233.1,-93.3,-17.1,,,,,x,
1193868,-7.405608,8.246597,-1.1406586,-6.768336,2.385686,3.170752,213.90001,-102.9,-17.7,,,,,x,
1193888,-6.422261,9.449463,-1.9110668,-5.0381417,1.44818,6.318638,213.90001,-107.700005,-18.900002,,,,,x,
1193909,-5.285191,10.979512,-0.78895056,-7.0808377,-0.830798,7.3323636,206.70001,-112.50001,-21.300001,,,,,x,
1193929,-5.802585,10.11699,-0.2697625,-9.03207,0.19055,6.0290017,201.90001,-122.100006,-20.7,,,,,x,
1193949,-6.710566,8.68384,-0.36785793,-9.169266,-0.617382,6.0899777,201.90001,-122.100006,-24.300001,,,,,x,
1193972,-5.2104235,8.678456,0.76622117,-7.149436,-4.0625257,7.263766,199.50002,-119.700005,-26.1,,,,,x,
1193992,-4.8802485,6.9007754,2.096491,-6.753092,-5.434486,6.5854077,185.1,-131.70001,-26.7,,,,,x,
1194035,-3.6038115,6.76739,1.7178667,-4.336918,-5.762232,8.673836,173.1,-138.90001,-30.300001,,,,,x,
1194089,-2.3058412,4.350892,1.1155367,-1.493912,-7.339986,8.056454,153.90001,-143.70001,-30.900002,,,,,x,
1194119,-0.76323044,4.7462645,0.21473333,1.211898,-8.330846,9.245486,141.90001,-155.70001,-33.300003,,,,,x,
1194139,0.5191881,5.3354354,0.2045649,1.509156,-8.80341,9.024447,139.5,-158.1,-33.9,,,,,x,
1194181,0.9301123,4.2695446,-0.45997193,2.118916,-7.43145,6.455834,122.700005,-160.5,-31.500002,,,,,x,
1194201,1.8829541,5.26306,-1.0629001,3.384168,-6.9283977,6.8674216,115.50001,-165.3,-32.7,,,,,x,
1194221,2.2998598,5.7009006,-1.1789398,3.018312,-6.814068,5.44973,105.9,-170.1,-32.7,,,,,x,
1194243,2.3584778,5.397044,-1.0946016,2.7210538,-6.0976,3.971062,105.9,-165.3,-32.100002,,,,,x,
1194263,2.677288,5.6877413,-1.481002,3.2317278,-5.114362,2.7439198,96.3,-162.90001,-34.5,,,,,x,
1194283,3.4315462,6.715351,-1.8835522,3.7424018,-4.161612,1.920744,101.100006,-160.5,-30.900002,,,,,x,
1194303,4.429249,8.01033,-2.6916435,3.917708,-2.62959,0.70122397,98.700005,-165.3,-30.300001,,,,,x,
1194323,4.3652472,7.6167526,-2.705999,3.056422,-2.370442,-1.6158639,101.100006,-167.70001,-32.100002,,,,,,
1194346,2.8776658,6.34211,-3.7557397,3.871976,0.106708,-2.903982,98.700005,-160.5,-28.500002,,,,,,
1194366,3.0947917,7.618547,-4.2839,3.407034,-0.72409,-1.707328,101.100006,-162.90001,-29.7,,,,,,
1194388,2.856731,8.558229,-5.143431,2.2256238,0.426832,-2.05794,103.50001,-165.3,-29.1,,,,,,
1194408,1.8057936,6.4599442,-5.8958955,2.035074,2.835384,-4.085392,110.700005,-162.90001,-28.500002,,,,,,
1194428,2.5714166,7.80756,-6.7093697,3.1783738,-2.7744079,0.426832,110.700005,-158.1,-26.1,,,,,,
1194448,3.0397625,9.807751,-4.693628,-0.099086,-2.469528,0.746956,105.9,-158.1,-29.1,,,,,,
1194490,2.3794127,8.464919,-4.1636734,-1.021348,0.11432999,-2.09605,110.700005,-158.1,-26.7,,,,,,
1194512,2.0552192,8.346487,-3.3430212,-1.814036,1.3414719,-1.958854,108.3,-165.3,-29.1,,,,,,
1194532,1.6807817,8.4278345,-3.238346,-1.516778,2.378064,-1.699706,113.100006,-160.5,-28.500002,,,,,,
1194552,1.443319,8.847731,-2.8752732,-1.227142,2.332332,-1.41007,117.9,-160.5,-30.300001,,,,,,
1194572,1.0473484,9.012818,-2.698821,-1.280496,2.370442,-1.798792,115.50001,-155.70001,-27.900002,,,,,,
1194592,0.736314,8.453554,-2.4864802,-0.92226195,2.378064,-2.042696,115.50001,-158.1,-30.300001,,,,,,
1194655,0.39656878,8.84474,-2.6587455,-0.060976,2.2637339,-1.173788,117.9,-162.90001,-29.1,,,,,,
1194675,0.29488447,9.325647,-2.8674974,0.137196,2.126538,-0.830798,117.9,-158.1,-27.300001,,,,,,
1194695,0.2536126,9.316077,-2.8997972,-0.045732,1.737816,-1.089946,120.3,-160.5,-27.300001,,,,,,
1194715,0.2464349,9.076221,-2.7412891,-0.129574,1.29574,-1.089946,122.700005,-158.1,-26.7,,,,,,
1194736,0.26916432,9.162952,-2.6910453,-0.07622,0.891774,-0.975616,122.700005,-160.5,-27.300001,,,,,,
1194756,0.33316565,9.167737,-2.6629324,-0.221038,0.56402797,-0.998482,125.100006,-160.5,-27.300001,,,,,,
1194776,0.41690564,9.108521,-2.677288,-0.297258,0.26677,-1.013726,127.50001,-158.1,-26.1,,,,,,
1194796,0.33914706,9.118092,-2.7382984,-0.07622,-0.022866,-1.082324,125.100006,-162.90001,-26.1,,,,,,
1194816,0.1740596,8.687428,-2.6031182,0.060976,-0.503052,-1.425314,125.100006,-158.1,-26.7,,,,,,
1194836,0.36905423,9.289759,-2.5486872,0.480186,-0.434454,-1.173788,125.100006,-160.5,-26.7,,,,,,
1194856,0.1698726,9.541576,-2.9978926,-0.106708,-0.022866,-1.745438,137.1,-153.3,-24.900002,,,,,,
1194876,-0.15910603,8.776552,-3.0870159,0.0,-0.137196,-2.118916,129.90001,-155.70001,-26.7,,,,,,
1194899,0.021533147,8.885414,-3.0307903,0.785066,-0.053354,-1.6082419,134.70001,-150.90001,-25.500002,,,,,,
1194920,-0.24045348,9.120484,-3.4171908,0.503052,0.998482,-1.044214,127.50001,-158.1,-26.7,,,,,,
1194940,-0.656761,9.565502,-3.5882597,0.213416,1.044214,-2.012208,132.3,-155.70001,-26.1,,,,,,
1194960,-0.8415872,9.268226,-3.619363,0.0,0.960372,-2.17227,134.70001,-155.70001,-26.7,,,,,,
1194983,-0.8571389,8.613258,-3.4088168,0.0,0.358234,-1.425314,144.3,-155.70001,-24.900002,,,,,,
1195024,-0.55986184,9.198841,-3.234159,-0.015244,0.541162,-0.053354,141.90001,-155.70001,-26.1,,,,,,
1195044,-0.44501838,9.274207,-3.1677651,-0.434454,0.769822,-0.365856,141.90001,-155.70001,-27.900002,,,,,,
1195066,-0.44501838,9.039735,-3.2353554,-0.708846,1.006104,-0.617382,139.5,-150.90001,-26.7,,,,,,
1195086,-0.49167353,8.842347,-3.1522136,-0.754578,1.036592,-0.602138,141.90001,-153.3,-27.300001,,,,,,
1195108,-0.46296266,8.984107,-3.137858,-0.57164997,1.02897,-0.35061198,141.90001,-158.1,-25.500002,,,,,,
1195128,-0.44023323,9.185681,-3.108549,-0.442076,0.93750596,-0.388722,132.3,-153.3,-26.7,,,,,,
1195150,-0.37563378,9.274207,-3.075053,-0.46494198,0.746956,-0.594516,141.90001,-153.3,-25.500002,,,,,,
1195171,-0.23626648,8.876442,-2.9273117,-0.53354,0.846042,-0.67073596,141.90001,-155.70001,-25.500002,,,,,,
1195191,-0.19798532,8.78373,-2.895012,-0.41158798,1.051836,-0.56402797,141.90001,-153.3,-26.7,,,,,,
1195211,-0.27933276,8.697597,-2.9739668,-0.41158798,1.227142,-0.40396598,139.5,-153.3,-26.7,,,,,,
1195231,-0.31641763,8.714345,-3.1187174,-0.182928,1.250008,-0.160062,144.3,-153.3,-26.1,,,,,,
1195255,-0.30086592,8.834572,-3.184513,0.083841994,0.94512796,0.03811,137.1,-153.3,-26.7,,,,,,
1195277,-0.1782466,9.004444,-3.083427,0.19055,0.785066,-0.045732,137.1,-150.90001,-25.500002,,,,,,
1195297,0.051440295,9.467407,-3.1737466,0.083841994,0.99086,-0.198172,137.1,-148.5,-26.1,,,,,,
1195317,-0.029907148,9.176709,-3.212626,-0.46494198,0.846042,-0.64787,139.5,-153.3,-24.900002,,,,,,
1195337,-0.15192832,8.6324,-3.2227943,-0.320124,0.846042,-0.60976,134.70001,-158.1,-24.900002,,,,,,
1195360,0.105871305,9.2807865,-2.8064868,0.388722,0.320124,-0.091464,141.90001,-153.3,-25.500002,,,,,,
1195380,0.27454764,9.597204,-2.7490652,-0.053354,0.655492,-0.632626,141.90001,-155.70001,-24.900002,,,,,,
1195400,0.2033686,9.280189,-2.6958303,-0.434454,0.830798,-1.303362,137.1,-150.90001,-26.7,,,,,,
1195420,0.0891233,9.481762,-2.546893,-0.07622,0.55640596,-1.570132,137.1,-148.5,-26.1,,,,,,
1195440,0.057421725,9.542175,-2.0761542,-0.30488,-0.106708,-2.088428,139.5,-143.70001,-24.900002,,,,,x,
1195464,-0.10467502,9.666589,-1.5868733,-0.20579399,-1.204276,-2.339954,146.70001,-148.5,-25.500002,,,,,x,
1195484,-0.13697474,8.962574,-0.81227815,-0.182928,-2.446662,-2.7744079,146.70001,-146.1,-24.300001,,,,,x,
1195504,0.040075578,7.999564,-0.11962859,-0.259148,-3.7347798,-2.2942219,144.3,-148.5,-26.7,,,,,x,
1195526,-0.1016843,7.0066466,0.46236452,-0.053354,-4.367406,-1.570132,149.1,-150.90001,-26.7,,,,,x,
1195546,-0.4342518,5.627329,1.0108616,0.632626,-6.006136,-0.525918,146.70001,-146.1,-27.300001,,,,,x,
1195566,-0.556273,5.598618,1.1143403,2.042696,-7.157058,0.221038,156.3,-150.90001,-26.1,,,,,x,
1195586,-0.24942562,6.116012,0.8505593,2.6677,-7.804928,0.594516,158.70001,-146.1,-25.500002,,,,,x,
1195606,-0.34153965,5.3569684,0.75904346,2.492394,-9.855246,-0.320124,153.90001,-148.5,-26.1,,,,,x,
1195626,-0.41989636,4.191786,1.07905,3.35368,-12.301908,-1.21952,161.1,-148.5,-27.300001,,,,,x,
1195646,-0.17764847,3.610989,1.2447355,4.123502,-13.03362,-0.40396598,161.1,-141.3,-26.1,,,,,x,
1195666,0.23626648,5.2062364,0.8876442,3.92533,-13.163194,1.150922,156.3,-153.3,-28.500002,,,,,x,
1195686,-0.112450875,3.9136496,1.0611056,2.118916,-13.696733,-0.617382,163.5,-148.5,-27.900002,,,,,x,
1195746,-0.17884475,4.618262,0.011962859,0.22865999,-9.1768875,-3.6966698,168.3,-143.70001,-33.300003,,,,,x,
1195767,-0.71597713,5.1189075,-1.5731161,0.289636,-6.4177237,-4.100636,163.5,-138.90001,-29.7,,,,,x,
1195787,-2.6545584,4.0889053,-5.54,5.14485,-4.108258,-6.242418,173.1,-138.90001,-31.500002,,,,,x,
1195807,-2.652166,4.118214,-5.0058584,4.9543,-8.445176,-5.236314,177.90001,-138.90001,-30.900002,,,,,x,
1195827,-2.4254696,5.973056,-5.270238,3.094532,-4.504602,-4.5884438,175.5,-134.1,-29.7,,,,,x,
1195867,-2.5122006,9.383069,-9.394434,4.321674,6.5701637,-4.161612,192.3,-129.3,-29.7,,,,,x,
1195887,-2.003779,8.733485,-11.672162,4.0167937,6.311016,-7.248522,192.3,-124.50001,-27.300001,,,,,x,
1195910,-2.6551566,6.9145327,-10.628403,1.56251,-2.614346,-7.8430376,204.3,-117.3,-27.300001,,,,,x,
1195930,-2.1012762,10.176207,-9.625915,0.87653,1.6006199,-4.9466777,206.70001,-112.50001,-27.300001,,,,,x,
1195950,-2.2490175,12.147686,-11.226545,0.92988396,10.686044,-6.0899777,211.50002,-117.3,-26.7,,,,,x,
1195970,-3.0595014,10.697189,-13.332607,3.612828,12.096114,-8.87963,213.90001,-107.700005,-24.900002,,,,,x,
1195993,-3.0726604,10.500998,-13.275784,-0.182928,6.4482117,-9.024447,218.70001,-100.50001,-21.900002,,,,,x,
1196034,-4.513587,10.907735,-14.545043,1.8292799,15.381196,-6.3567476,228.3,-90.9,-20.7,,,,,x,
1196054,-3.0756512,12.212285,-14.854282,-2.903982,10.1982355,-6.379614,230.70001,-88.5,-20.7,,,,,x,
1196077,-6.4360185,11.162544,-12.475468,-6.5549197,8.605238,-7.4238276,230.70001,-83.700005,-17.1,,,,,x,
1196097,-5.995785,10.624215,-12.619022,-5.670768,11.24245,-6.4024796,235.50002,-78.9,-18.900002,,,,,x,
1196117,-7.5031056,10.195945,-11.166731,-9.45128,9.420792,-6.699738,233.1,-78.9,-17.7,,,,,x,
1196137,-9.9830065,9.592419,-10.934053,-7.3476076,13.811064,-5.274424,235.50002,-83.700005,-18.300001,,,,,x,
1196157,-7.827299,11.663788,-11.226545,-7.797306,9.855246,-1.5244,237.90001,-76.5,-16.5,,,,,x,
1196177,-8.137735,12.696781,-7.5952196,-12.065626,4.245454,-2.103672,237.90001,-76.5,-18.900002,,,,,x,
1196197,-10.563803,12.306193,-6.9264956,-7.553402,15.846138,-1.737816,247.50002,-88.5,-17.1,,,,,x,
1196217,-10.603879,13.270998,-9.338806,-6.760714,14.695215,-0.82317597,233.1,-78.9,-17.1,,,,,x,
1196237,-9.87235,13.227334,-6.442598,-10.068662,3.628072,-1.227142,228.3,-83.700005,-17.7,,,,,x,
1196260,-11.93056,11.685919,-3.636111,-9.367437,8.894874,-0.015244,235.50002,-86.100006,-20.7,,,,,x,
1196280,-9.732385,13.97262,-6.2224813,-7.766818,11.989406,4.45887,233.1,-93.3,-17.7,,,,,x,
1196302,-10.416061,12.305595,-3.8963034,-9.336949,6.143332,2.987824,223.50002,-95.700005,-19.5,,,,,x,
1196322,-10.214487,11.094356,-2.986528,-7.3780956,7.713464,5.289668,221.1,-98.100006,-17.7,,,,,x,
1196343,-8.537294,13.015591,-2.7161672,-7.2409,6.333882,7.599134,211.50002,-105.3,-18.900002,,,,,x,
1196363,-8.446975,11.022578,-1.2106414,-8.437553,4.359784,5.44973,211.50002,-110.100006,-19.5,,,,,x,
1196383,-8.246597,8.76758,-0.079553016,-7.50767,3.384168,6.112844,204.3,-114.9,-18.900002,,,,,x,
1196403,-7.6167526,9.342395,0.5419175,-7.3476076,2.378064,8.170784,197.1,-117.3,-21.300001,,,,,x,
1196466,-4.4914556,6.3205767,1.9547312,-6.196686,-2.7667859,9.45128,175.5,-134.1,-26.7,,,,,x,
1196486,-3.5619414,6.362447,1.3876917,-5.60217,-4.138746,9.192132,173.1,-143.70001,-27.900002,,,,,x,
1196548,-1.6251545,3.0660808,1.3966638,-0.64787,-8.407065,6.0899777,156.3,-155.70001,-30.900002,,,,,x,
1196578,-0.2978752,4.5153813,0.72136045,0.716468,-8.239382,8.597616,141.90001,-155.70001,-31.500002,,,,,x,
1196598,0.33854893,4.652356,0.39178365,0.67835796,-7.5000477,6.9131536,139.5,-158.1,-33.300003,,,,,x,
1196638,0.99291736,3.7240381,-0.33017492,1.699706,-7.5152917,3.155508,122.700005,-153.3,-31.500002,,,,,x,
1196658,1.9834421,3.7425807,-0.51021594,2.606724,-7.77444,3.589962,122.700005,-165.3,-31.500002,,,,,x,
1196678,3.1049602,4.820434,-0.50184196,2.317088,-6.486322,4.085392,117.9,-160.5,-32.100002,,,,,x,
1196700,3.999782,5.605796,-1.12092,1.814036,-4.76375,3.8033779,115.50001,-158.1,-29.7,,,,,x,
1196720,3.862209,5.8797455,-1.313522,2.027452,-3.536608,2.6677,110.700005,-170.1,-31.500002,,,,,x,
1196740,4.2988534,6.2601643,-1.8351027,2.01983,-2.05794,1.958854,110.700005,-160.5,-30.900002,,,,,x,
1196760,4.5835695,6.790119,-2.5678277,2.36282,-1.272874,1.1356779,110.700005,-162.90001,-30.900002,,,,,x,
1196780,4.6547484,7.0114317,-2.7143729,2.522882,-0.739334,0.975616,108.3,-165.3,-30.300001,,,,,x,
1196801,4.933483,8.552248,-3.5206695,3.8109999,0.41158798,1.211898,108.3,-165.3,-29.7,,,,,x,
1196821,4.4017344,8.57079,-3.93279,2.461906,-0.33536798,-1.173788,101.100006,-160.5,-29.7,,,,,x,
1196841,3.589456,6.8230166,-3.5380156,1.3948259,0.007622,-2.644834,115.50001,-160.5,-26.1,,,,,x,
1196861,3.1264932,7.1364436,-4.301844,2.195136,0.259148,-1.1051899,103.50001,-170.1,-28.500002,,,,,,
1196884,2.4021423,9.340601,-4.1899915,0.55640596,1.06708,-1.554888,103.50001,-162.90001,-29.1,,,,,,
1196944,1.0509372,8.973341,-3.7371974,1.036592,0.868908,-1.989342,113.100006,-160.5,-27.300001,,,,,,
1196964,0.74528617,8.922499,-3.5631378,0.487808,1.21952,-1.1051899,117.9,-160.5,-27.900002,,,,,,
1196984,0.5161974,9.32146,-3.4333405,0.525918,0.960372,-0.625004,113.100006,-158.1,-27.900002,,,,,,
1197004,0.44800907,9.5984,-3.3525913,0.30488,0.81555396,-1.013726,120.3,-160.5,-27.300001,,,,,,
1197026,0.539525,9.454247,-3.1689615,0.007622,0.487808,-1.425314,120.3,-160.5,-27.300001,,,,,,
1197046,0.36367092,8.90934,-2.8860397,-0.46494198,0.251526,-1.532022,120.3,-160.5,-27.900002,,,,,,
1197066,0.3774282,9.287366,-2.9972944,-0.20579399,0.19055,-1.234764,120.3,-160.5,-27.300001,,,,,,
1197089,-0.02213129,8.995472,-2.886638,-0.373478,-0.198172,-1.532022,120.3,-160.5,-25.500002,,,,,,
1197109,-0.0071777157,9.116297,-2.7221487,-0.213416,-0.541162,-1.3872039,115.50001,-158.1,-27.300001,,,,,,
1197129,0.117236026,9.209607,-2.6413994,-0.525918,-0.548784,-1.3795819,125.100006,-158.1,-27.300001,,,,,,
1197150,0.1321896,9.1408205,-2.773589,-1.089946,-0.41158798,-1.242386,122.700005,-155.70001,-27.300001,,,,,,
1197171,-0.12501188,8.93805,-2.740093,-0.708846,-0.503052,-0.92988396,129.90001,-153.3,-26.7,,,,,,
1197191,-0.11962859,8.839356,-2.7018118,-0.625004,-0.518296,-0.655492,127.50001,-155.70001,-25.500002,,,,,,
1197215,0.07835673,9.122876,-2.7514577,-0.426832,-0.365856,-0.365856,125.100006,-155.70001,-29.1,,,,,,
1197235,0.03588858,9.101942,-2.8345995,-0.625004,-0.198172,-0.388722,125.100006,-153.3,-29.1,,,,,,
1197255,-0.06998273,9.11211,-2.802898,-0.434454,-0.121952,-0.449698,129.90001,-155.70001,-27.900002,,,,,,
1197276,-0.05443101,9.098352,-2.8609178,-0.28201398,-0.045732,-0.49543,125.100006,-153.3,-27.900002,,,,,,
1197296,0.15192832,9.128858,-2.7388966,-0.182928,-0.030488,-0.33536798,137.1,-160.5,-27.300001,,,,,,
1197316,0.12860073,9.16355,-2.6802785,-0.20579399,0.23628199,-0.28201398,125.100006,-160.5,-27.900002,,,,,,
1197339,-0.018542431,9.049305,-2.7167654,-0.327746,0.365856,-0.34298998,127.50001,-153.3,-27.300001,,,,,,
1197359,-0.056225438,9.085194,-2.832207,-0.17530599,0.373478,-0.449698,127.50001,-158.1,-27.900002,,,,,,
1197379,0.031701576,8.910536,-2.8244312,-0.144818,0.144818,-0.49543,125.100006,-155.70001,-27.300001,,,,,,
1197399,0.17286332,8.874647,-2.7753835,0.099086,0.03811,-0.297258,127.50001,-155.70001,-26.7,,,,,,
1197419,0.25720146,9.104334,-2.7394948,0.19055,0.19055,-0.17530599,132.3,-155.70001,-26.1,,,,,,
1197443,0.27933276,9.06067,-2.857329,-0.03811,0.625004,-0.579272,132.3,-160.5,-26.7,,,,,,
1197464,0.24105161,8.939247,-2.8926194,0.16768399,0.792688,-0.72409,127.50001,-155.70001,-27.300001,,,,,,
1197484,0.14355431,8.994276,-2.8752732,0.28201398,0.960372,-0.594516,129.90001,-153.3,-28.500002,,,,,,
1197569,-0.086132586,9.209009,-3.13726,0.11432999,0.41158798,-0.129574,132.3,-158.1,-24.300001,,,,,,
1197596,0.07775859,9.286768,-3.1779337,-0.274392,0.091464,-0.182928,134.70001,-155.70001,-27.300001,,,,,,
1197616,0.11065645,9.026576,-3.0971844,-0.579272,0.106708,-0.20579399,129.90001,-160.5,-25.500002,,,,,,
1197656,0.28351977,8.961976,-3.0636883,-0.30488,0.3811,-0.045732,137.1,-160.5,-26.1,,,,,,
1197676,0.08374002,8.984107,-3.0816326,-0.26677,0.388722,-0.274392,134.70001,-155.70001,-28.500002,,,,,,
1197696,0.009570288,8.894984,-3.078642,-0.358234,0.30488,-0.358234,129.90001,-153.3,-26.7,,,,,,
1197716,0.023327576,8.99966,-3.1115398,-0.213416,0.137196,-0.373478,127.50001,-153.3,-27.300001,,,,,,
1197736,0.03828115,8.8381605,-3.0116498,-0.312502,0.007622,-0.396344,139.5,-150.90001,-27.300001,,,,,,
1197756,0.23507018,9.110913,-2.9267135,-0.144818,0.045732,-0.365856,125.100006,-153.3,-27.300001,,,,,,
1197776,0.24523862,9.120484,-3.0295942,-0.3811,0.396344,-0.617382,132.3,-160.5,-27.300001,,,,,,
1197796,0.23148133,9.098951,-3.0224164,-0.426832,0.56402797,-0.830798,141.90001,-153.3,-27.900002,,,,,,
1197816,0.22729433,9.040931,-2.9153488,-0.442076,0.853664,-0.899396,132.3,-153.3,-26.7,,,,,,
1197836,-0.024523862,9.463819,-2.774187,-0.251526,1.250008,-0.94512796,132.3,-153.3,-26.7,,,,,,
1197856,-0.3911855,10.250975,-2.7406912,-0.34298998,1.3567159,-1.21952,134.70001,-153.3,-26.7,,,,,x,
1197878,-0.7428936,9.107923,-2.6539605,-0.960372,1.021348,-1.9054999,137.1,-150.90001,-27.900002,,,,,x,
1197898,-1.0012913,7.861393,-2.0109568,-0.320124,0.144818,-0.632626,137.1,-150.90001,-27.900002,,,,,x,
1197961,-0.4827014,8.812441,-1.029404,0.792688,-2.637212,1.745438,132.3,-155.70001,-26.1,,,,,x,
1197981,-0.6495833,8.170633,-0.78835243,0.586894,-4.03966,1.29574,127.50001,-155.70001,-27.900002,,,,,x,
1198001,-0.60232997,6.904364,0.09091773,0.884152,-7.195168,0.182928,132.3,-153.3,-27.900002,,,,,x,
1198024,0.8720924,6.809858,0.80091345,1.669218,-8.704324,1.280496,132.3,-155.70001,-26.7,,,,,x,
1198044,1.3248867,5.9712615,1.1903045,-0.11432999,-10.091528,0.617382,127.50001,-158.1,-27.900002,,,,,x,
1198064,1.2136321,4.2581797,1.4869834,0.358234,-11.478732,-0.487808,132.3,-158.1,-29.7,,,,,x,
1198084,1.9355906,4.2025523,1.7968215,2.2713559,-13.094596,-0.541162,132.3,-160.5,-28.500002,,,,,x,
1198147,2.1975772,3.0152388,0.90977544,4.260698,-14.931498,-5.37351,146.70001,-150.90001,-30.900002,,,,,x,
1198381,-5.5591407,7.9349647,-9.937548,2.050318,10.800374,-7.743952,211.50002,-107.700005,-29.7,,,,,x,
1198402,-3.8418722,10.457334,-12.068132,3.3079479,13.292768,-5.29729,221.1,-107.700005,-27.900002,,,,,x,
1198443,-3.4291537,11.723602,-12.511356,-0.3811,9.5275,-10.068662,225.90001,-95.700005,-24.900002,,,,,x,
1198464,-5.652451,10.066148,-12.960562,-0.579272,15.602234,-11.044278,235.50002,-88.5,-20.7,,,,,x,
1198484,-5.3150983,10.7061615,-14.686803,0.289636,20.068726,-9.725672,237.90001,-74.100006,-18.900002,,,,,x,
1198504,-4.836584,12.032244,-16.057747,-0.480186,16.3873,-9.268352,233.1,-74.100006,-17.7,,,,,x,
1198524,-5.01184,12.706351,-15.087559,-4.756128,9.199754,-9.1463995,237.90001,-69.3,-17.7,,,,,x,
1198546,-5.9790373,11.383857,-12.861868,-7.9345016,7.492426,-10.792751,249.90001,-64.5,-17.1,,,,,x,
1198566,-9.035547,8.683242,-11.510065,-7.3323636,12.84307,-11.753123,249.90001,-66.9,-17.1,,,,,x,
1198629,-10.597898,9.859191,-10.000352,-8.856764,10.503116,-7.27901,254.70001,-57.300003,-12.3,,,,,x,
1198649,-9.447668,11.747528,-9.718627,-8.887252,8.658592,-2.6981878,249.90001,-59.7,-12.900001,,,,,x,
1198669,-11.673956,10.150486,-6.447383,-9.763782,7.5457797,-5.4725957,254.70001,-57.300003,-13.500001,,,,,x,
1198689,-10.736667,9.807152,-6.8912053,-7.751574,8.292736,-3.437522,257.1,-57.300003,-13.500001,,,,,x,
1198709,-10.20731,10.9328575,-5.0184197,-10.487872,2.583858,0.121952,261.90002,-57.300003,-14.1,,,,,x,
1198732,-11.600983,12.61663,-4.9813347,-7.50767,11.66166,2.347576,257.1,-54.9,-11.700001,,,,,x,
1198815,-9.541576,12.6262,-1.7441849,-9.809514,3.16313,7.957368,230.70001,-88.5,-17.7,,,,,x,
1198865,-6.9223084,9.207813,-0.11903045,-7.8125496,1.051836,9.207376,218.70001,-102.9,-20.1,,,,,x,
1198886,-5.254088,9.607372,0.80270785,-7.225656,-2.637212,9.37506,216.3,-112.50001,-23.1,,,,,x,
1198906,-5.2397323,7.647856,1.907478,-7.972612,-4.146368,7.218034,206.70001,-117.3,-24.300001,,,,,x,
1198926,-5.468223,5.41439,0.7787821,-6.5091877,-3.46801,6.753092,199.50002,-117.3,-24.900002,,,,,x,
1198948,-5.2899766,3.9782488,0.48928094,-3.7500238,-6.661628,7.972612,199.50002,-131.70001,-26.1,,,,,x,
1198968,-2.970378,5.2911725,0.6896588,-1.41007,-8.971094,11.859832,189.90001,-129.3,-26.1,,,,,x,
1198990,-2.6372123,6.291866,-0.28112718,-1.303362,-7.339986,12.65252,177.90001,-134.1,-27.300001,,,,,x,
1199010,-2.902788,6.015524,-1.0192356,-0.41158798,-7.690598,11.425378,175.5,-146.1,-27.900002,,,,,x,
1199030,-1.9242259,6.43542,-0.91934574,1.021348,-8.338468,10.335432,158.70001,-148.5,-29.1,,,,,x,
1199051,-1.715474,5.449681,-0.7961283,-0.33536798,-8.666214,5.236314,156.3,-155.70001,-29.7,,,,,x,
1199072,-1.1645844,3.8681905,-0.5915634,1.3414719,-9.016826,3.940574,151.5,-153.3,-30.300001,,,,,x,
1199092,-1.2058562,3.4441073,-0.24284604,1.532022,-8.109808,5.18296,146.70001,-158.1,-30.900002,,,,,x,
1199112,-0.86790544,4.816247,-0.76622117,1.3643379,-7.225656,6.006136,144.3,-155.70001,-31.500002,,,,,x,
1199132,-0.60472256,4.320387,-0.9510473,1.6539739,-6.9283977,4.64942,129.90001,-162.90001,-32.7,,,,,x,
1199152,0.50602895,4.9095573,-0.9325049,2.164648,-6.996996,4.862836,134.70001,-153.3,-30.900002,,,,,x,
1199172,0.93429935,4.3114147,-0.7458843,1.798792,-5.899428,3.384168,132.3,-158.1,-30.300001,,,,,x,
1199192,1.7382035,4.486072,-0.73571587,2.47715,-4.695152,3.643316,120.3,-158.1,-31.500002,,,,,x,
1199212,3.55596,6.5616283,-1.2578946,2.149404,-2.568614,5.236314,117.9,-158.1,-30.300001,,,,,x,
1199232,4.6403933,7.8338785,-1.5677327,0.87653,-1.059458,3.902464,115.50001,-165.3,-31.500002,,,,,x,
1199255,3.350797,6.0442348,-1.6263508,0.17530599,0.060976,0.83842,115.50001,-162.90001,-31.500002,,,,,x,
1199276,3.5487823,5.7672944,-2.7179615,2.111294,1.082324,0.891774,115.50001,-162.90001,-30.300001,,,,,x,
1199296,4.1708508,7.827897,-3.0092573,2.522882,-0.41921,2.2256238,108.3,-160.5,-30.300001,,,,,x,
1199316,4.655945,9.4644165,-3.422574,2.431418,-0.785066,0.69360197,110.700005,-162.90001,-29.1,,,,,,
1199337,3.84905,7.9899936,-3.2658606,0.91463995,-1.013726,-2.309466,108.3,-160.5,-27.900002,,,,,,
1199358,3.3908725,7.589238,-4.1612806,1.3795819,0.541162,-3.2393498,105.9,-162.90001,-29.7,,,,,,
1199378,2.8130665,7.012628,-4.9227166,2.2408679,0.23628199,-2.964958,117.9,-165.3,-28.500002,,,,,,
1199398,2.9093673,8.516958,-4.2228894,2.187514,-1.1051899,-0.81555396,117.9,-160.5,-27.900002,,,,,,
1199419,2.133576,8.966163,-4.32577,0.320124,0.830798,-1.760682,122.700005,-158.1,-27.300001,,,,,,
1199439,1.7100908,8.897975,-4.1971693,0.40396598,0.640248,-2.187514,117.9,-160.5,-26.7,,,,,,
1199459,1.6688188,8.987098,-3.8131614,0.655492,0.69360197,-2.2561119,117.9,-155.70001,-28.500002,,,,,,
1199482,1.1873138,8.68384,-3.68157,0.45731997,1.204276,-2.126538,125.100006,-160.5,-27.300001,,,,,,
1199502,1.0658908,8.745448,-3.4728181,0.792688,1.1204339,-1.699706,120.3,-158.1,-26.1,,,,,,
1199525,0.82364285,9.030165,-3.184513,0.518296,1.310984,-1.432936,127.50001,-150.90001,-26.7,,,,,,
1199565,0.35709137,8.607876,-3.1516154,-0.60976,1.303362,-1.821658,127.50001,-155.70001,-26.7,,,,,,
1199585,0.12261931,8.804665,-2.962004,-0.480186,1.41007,-1.074702,132.3,-158.1,-25.500002,,,,,,
1199605,-0.27753833,9.081007,-3.1324747,-0.792688,1.25763,-0.93750596,132.3,-153.3,-27.900002,,,,,,
1199628,-0.64659256,8.958387,-3.1103435,-0.548784,0.40396598,-1.318606,127.50001,-155.70001,-24.300001,,,,,,
1199648,-0.001196286,9.049305,-2.928508,-0.434454,-0.34298998,-1.303362,134.70001,-155.70001,-27.300001,,,,,,
1199668,-0.5568711,8.500808,-2.6210625,-0.358234,-0.68597996,-1.1356779,134.70001,-160.5,-28.500002,,,,,,
1199688,-0.07476787,8.947022,-2.3686461,-0.67073596,-0.625004,-0.320124,134.70001,-155.70001,-27.900002,,,,,,
1199708,-0.57182467,9.158167,-2.6348197,-1.013726,0.03811,-0.67835796,137.1,-153.3,-27.900002,,,,,,
1199728,-0.46116823,8.86747,-2.736504,-0.884152,-0.20579399,-1.1204339,137.1,-158.1,-25.500002,,,,,,
1199752,-0.35410064,8.479275,-2.431451,-0.625004,-0.26677,-1.318606,134.70001,-153.3,-27.900002,,,,,,
1199772,-0.28770676,9.037342,-2.4374325,-0.015244,0.320124,-0.899396,137.1,-150.90001,-27.300001,,,,,,
1199835,-0.773997,8.847133,-3.28859,-0.099086,-0.289636,-0.274392,134.70001,-158.1,-27.900002,,,,,,
1199881,-0.3188102,8.728701,-3.6959255,-0.853664,0.518296,-0.022866,134.70001,-150.90001,-27.300001,,,,,,
1199902,-0.07716044,9.209607,-3.9435565,0.15244,0.41158798,0.34298998,132.3,-155.70001,-27.900002,,,,,,
1199942,0.09689916,9.333423,-3.6205595,-0.137196,0.365856,-0.396344,134.70001,-153.3,-27.900002,,,,,,
1199963,-0.07476787,8.907545,-3.426163,-0.3811,0.602138,-0.777444,137.1,-158.1,-26.1,,,,,,
1199983,-0.17645217,8.977528,-3.3567784,-0.30488,0.907018,-0.93750596,134.70001,-148.5,-26.7,,,,,,
1200004,-0.2548089,8.798085,-3.2401404,-0.320124,0.983238,-1.02897,132.3,-150.90001,-27.300001,,,,,,
1200025,-0.18183546,8.916517,-2.9063766,-0.20579399,1.18141,-0.967994,139.5,-146.1,-26.1,,,,,,
1200046,-0.15611531,8.953004,-2.7783742,-0.960372,2.042696,-1.189032,137.1,-150.90001,-27.300001,,,,,,
1200070,-0.30565107,8.721522,-2.9093673,-1.196654,2.393308,-1.25763,137.1,-148.5,-27.300001,,,,,,
1200090,-0.4468128,8.4386015,-2.7807667,-1.150922,2.2789779,-1.29574,141.90001,-153.3,-24.900002,,,,,,
1200110,-0.27394947,8.81603,-2.6970267,-0.92226195,2.370442,-0.87653,139.5,-153.3,-26.1,,,,,x,
1200132,-0.27036062,9.27959,-2.7891407,-0.907018,2.32471,-0.92988396,141.90001,-153.3,-26.1,,,,,x,
1200152,-0.2673699,9.3244505,-2.714971,-0.82317597,2.080806,-1.211898,146.70001,-153.3,-26.1,,,,,x,
1200172,-0.58079684,8.539089,-2.6144829,-0.792688,1.67684,-1.455802,146.70001,-146.1,-25.500002,,,,,x,
1200193,-0.66034985,8.738271,-2.5923517,-0.007622,1.455802,-0.830798,146.70001,-148.5,-28.500002,,,,,x,
1200235,-0.715379,9.352564,-2.4589658,0.434454,-0.030488,-0.899396,149.1,-153.3,-26.1,,,,,x,
1200255,-0.7087994,8.813039,-2.0097604,0.099086,-0.49543,-0.708846,144.3,-148.5,-26.1,,,,,x,
1200275,-0.62565756,8.636586,-1.8016067,0.17530599,-0.716468,-0.19055,146.70001,-153.3,-26.1,,,,,x,
1200295,-0.4300648,8.107828,-1.0987886,0.312502,-1.8750119,0.15244,141.90001,-155.70001,-24.900002,,,,,x,
1200359,-0.30385664,6.2972493,0.89841074,0.792688,-4.443626,-0.121952,144.3,-155.70001,-27.900002,,,,,x,
1200379,-0.1447506,6.527534,0.88046646,1.33385,-3.902464,0.87653,149.1,-148.5,-25.500002,,,,,x,
1200402,-0.7554546,6.08132,0.4300648,1.71495,-5.60217,0.060976,137.1,-155.70001,-26.7,,,,,x,
1200422,-0.36426908,6.1465173,0.62984455,3.071666,-8.506152,-0.068598,144.3,-148.5,-26.7,,,,,x,
1200443,0.049047723,5.459849,0.57182467,3.102154,-11.897942,-0.594516,149.1,-160.5,-27.900002,,,,,x,
1200483,0.11603974,2.8704882,1.2405485,3.2545938,-15.640344,-2.012208,151.5,-146.1,-28.500002,,,,,x,
1200543,0.556273,3.8000023,-0.30325848,1.6082419,-11.58544,-2.088428,151.5,-143.70001,-30.300001,,,,,x,
1200563,0.65496653,3.987221,-1.1903045,1.9131219,-10.86135,-2.7515419,163.5,-143.70001,-27.900002,,,,,x,
1200583,-0.17764847,2.0241158,-2.1186223,0.503052,-8.551884,-4.352162,163.5,-141.3,-32.100002,,,,,x,
1200603,-0.81646514,2.2077458,-4.3126106,4.0320377,-4.740884,-3.2088618,163.5,-136.5,-29.7,,,,,x,
1200623,0.37683007,6.623835,-6.235042,4.702774,-4.83997,-1.173788,170.70001,-136.5,-30.900002,,,,,x,
1200643,-0.024523862,7.7345867,-7.120892,2.865872,-1.044214,-4.778994,173.1,-136.5,-30.300001,,,,,x,
1200664,-0.19320019,8.514565,-8.7191305,3.628072,0.274392,-6.646384,168.3,-129.3,-29.7,,,,,x,
1200684,-1.2142302,7.527031,-7.9553013,1.02897,-0.846042,-9.161644,175.5,-131.70001,-29.7,,,,,x,
1200704,-1.552181,7.8709636,-8.619839,1.67684,4.939056,-8.407065,185.1,-124.50001,-28.500002,,,,,x,
1200724,-2.6701102,7.979227,-10.381968,2.97258,10.952814,-8.086942,185.1,-119.700005,-26.7,,,,,x,
1200786,-2.7604299,12.890579,-11.4987,0.365856,9.733294,-8.529017,204.3,-107.700005,-23.1,,,,,x,
1200806,-2.9889205,11.541168,-13.142397,2.59148,14.679972,-11.227205,209.1,-102.9,-21.300001,,,,,x,
1200826,-4.414295,9.143811,-14.333899,2.416174,15.54888,-10.975679,223.50002,-95.700005,-17.7,,,,,x,
1200846,-3.3496006,11.60517,-15.185056,-0.487808,11.58544,-5.228692,218.70001,-90.9,-17.7,,,,,x,
1200870,-3.3621616,13.524013,-13.616127,-4.443626,8.734812,-6.532054,223.50002,-86.100006,-17.7,,,,,x,
1200890,-5.3240705,11.338996,-13.14479,-3.140264,13.597648,-9.588476,223.50002,-83.700005,-16.5,,,,,x,
1200910,-5.8677826,10.873641,-14.027051,-3.841488,13.216548,-7.43145,218.70001,-83.700005,-15.3,,,,,x,
1200930,-7.0275817,11.215779,-10.186375,-9.07018,10.762263,-8.475664,228.3,-74.100006,-14.700001,,,,,x,
1200950,-9.081605,10.486045,-10.340097,-6.234796,17.22572,-8.399444,230.70001,-78.9,-12.900001,,,,,x,
1200970,-7.2136045,13.808728,-13.704652,-6.425346,11.440621,-3.155508,221.1,-69.3,-13.500001,,,,,x,
1200990,-7.6053877,13.305691,-11.103328,-11.1586075,2.446662,-5.929916,230.70001,-78.9,-11.700001,,,,,x,
1201010,-10.787508,10.174412,-6.0633755,-8.95585,3.932952,-7.5915117,228.3,-74.100006,-12.900001,,,,,x,
1201031,-9.545165,13.685512,-8.731093,-6.722604,12.873558,-1.455802,233.1,-74.100006,-12.900001,,,,,x,
1201051,-10.000352,12.71951,-7.0485168,-7.835416,6.0747337,-2.987824,233.1,-81.3,-12.900001,,,,,x,
1201072,-11.307893,12.656705,-5.8851285,-7.149436,6.981752,-1.3490939,230.70001,-78.9,-14.1,,,,,x,
1201092,-9.99796,12.785306,-6.034066,-6.775958,5.18296,0.28201398,225.90001,-78.9,-13.500001,,,,,x,
1201112,-9.445874,12.907926,-2.690447,-8.513774,-0.792688,1.8445239,225.90001,-90.9,-14.1,,,,,x,
1201132,-9.921397,13.396608,-1.8010085,-8.95585,4.923812,2.850628,228.3,-90.9,-14.700001,,,,,x,
1201196,-8.4714985,8.619839,0.51739365,-7.294254,-2.431418,6.082356,221.1,-105.3,-18.900002,,,,,x,
1201216,-7.4444876,9.607372,-0.57421726,-6.4786997,0.015244,8.6814575,211.50002,-107.700005,-20.7,,,,,x,
1201236,-6.7428656,8.374599,-0.5778061,-6.486322,-2.606724,7.324742,204.3,-112.50001,-21.300001,,,,,x,
1201257,-5.183507,6.8511295,0.6896588,-5.0991178,-6.4786997,7.08846,197.1,-119.700005,-21.900002,,,,,x,
1201277,-4.840173,6.2547812,1.004282,-4.53509,-5.350644,8.201272,197.1,-122.100006,-25.500002,,,,,x,
1201297,-4.0595965,5.828903,0.047851436,-4.443626,-5.434486,8.544262,192.3,-129.3,-23.7,,,,,x,
1201317,-3.3208897,5.100365,0.48090696,-2.660078,-8.208894,7.66011,177.90001,-131.70001,-26.1,,,,,x,
1201337,-2.799309,4.056606,0.3869985,-1.928366,-8.978716,6.36437,173.1,-134.1,-27.900002,,,,,x,
1201357,-1.9750681,3.325675,0.10646945,-0.99086,-9.916222,6.341504,175.5,-136.5,-29.1,,,,,x,
1201380,0.3002678,5.232555,0.20576118,0.365856,-10.6631775,7.309498,165.90001,-146.1,-30.300001,,,,,x,
1201400,0.33137122,4.5488772,-0.21234076,0.3811,-9.542744,5.129606,163.5,-146.1,-30.300001,,,,,x,
1201420,0.22609805,3.095988,-0.20994818,1.250008,-9.329328,3.536608,161.1,-143.70001,-31.500002,,,,,x,
1201440,0.95463616,3.3029454,-0.5072252,2.85825,-8.826276,4.778994,156.3,-146.1,-32.100002,,,,,x,
1201460,1.5838826,4.412501,-0.8673073,2.583858,-7.3780956,5.358266,149.1,-150.90001,-30.900002,,,,,x,
1201501,2.3291688,4.5147834,-1.8907299,3.2164838,-5.25918,5.160094,137.1,-155.70001,-30.900002,,,,,x,
1201521,2.9733686,6.053805,-2.1485295,2.55337,-4.5884438,5.403998,139.5,-153.3,-30.900002,,,,,x,
1201541,3.2269814,6.3157916,-2.254999,1.768304,-3.414656,3.475632,134.70001,-160.5,-30.900002,,,,,x,
1201561,3.3795078,6.788923,-2.640203,2.004586,-1.966476,1.806414,134.70001,-160.5,-30.900002,,,,,x,
1201581,3.3651524,7.236334,-2.9955,2.332332,-1.501534,0.053354,137.1,-158.1,-30.900002,,,,,x,
1201601,3.1875038,6.916327,-2.902788,2.2789779,-0.93750596,-0.95274997,137.1,-162.90001,-29.1,,,,,x,
1201623,2.866301,7.9092445,-3.6450832,2.621968,0.49543,-0.289636,129.90001,-158.1,-29.1,,,,,x,
1201643,2.2364566,8.829786,-4.6374025,1.935988,1.265252,-0.739334,132.3,-160.5,-29.7,,,,,x,
1201663,1.4403282,7.8171306,-5.0357656,1.8369019,0.92988396,-1.730194,129.90001,-155.70001,-29.1,,,,,x,
1201683,1.8614209,9.108521,-4.8120604,1.806414,-1.501534,0.19055,132.3,-160.5,-28.500002,,,,,x,
1201703,1.6993241,9.024183,-4.396949,-0.28201398,-0.426832,-0.70122397,134.70001,-155.70001,-27.900002,,,,,,
1201723,1.397262,8.480471,-4.329359,-0.55640596,-0.007622,-1.082324,129.90001,-150.90001,-26.7,,,,,,
1201747,0.77698773,8.888405,-3.9698749,-0.297258,1.150922,-1.8369019,137.1,-150.90001,-28.500002,,,,,,
1201809,-0.4456165,8.913527,-3.522464,-0.068598,1.570132,-1.920744,141.90001,-155.70001,-27.900002,,,,,,
1201829,-0.9229346,8.785524,-3.523062,-0.365856,1.242386,-1.440558,141.90001,-155.70001,-28.500002,,,,,,
1201849,-0.7099957,8.869264,-3.0110517,-0.35061198,0.594516,-0.92988396,141.90001,-150.90001,-29.7,,,,,,
1201869,-0.698631,9.040333,-2.8298144,-0.830798,0.830798,-0.81555396,149.1,-155.70001,-26.7,,,,,,
1201889,-0.79553014,9.002051,-2.6138847,-1.1128119,0.777444,-1.1432999,146.70001,-146.1,-29.1,,,,,,
1201910,-0.78655803,9.533203,-2.8812547,-0.80793196,0.777444,-1.554888,139.5,-155.70001,-28.500002,,,,,,
1201930,-0.81227815,8.839955,-2.7329152,-0.861286,0.388722,-2.2484899,144.3,-150.90001,-29.7,,,,,,
1201950,-0.6782941,8.801076,-2.5522761,-0.510674,0.129574,-1.768304,151.5,-148.5,-29.7,,,,,,
1201970,-0.6471907,8.917713,-2.5624444,-0.617382,0.312502,-1.288118,146.70001,-148.5,-27.300001,,,,,,
1201992,-0.7554546,9.18927,-2.6701102,-0.548784,0.518296,-0.967994,149.1,-150.90001,-27.300001,,,,,,
1202012,-0.9313086,9.00265,-2.8124683,-0.49543,0.41158798,-1.013726,149.1,-146.1,-27.300001,,,,,,
1202032,-0.5682358,9.12168,-2.8351977,-0.060976,0.487808,-0.70122397,151.5,-148.5,-29.1,,,,,,
1202053,-0.47851437,9.009828,-2.890825,-0.129574,0.55640596,-0.69360197,146.70001,-150.90001,-27.300001,,,,,,
1202073,-0.24942562,8.951808,-2.8686936,0.007622,0.67835796,-0.373478,149.1,-150.90001,-28.500002,,,,,,
1202093,-0.2254999,9.052894,-2.9129562,0.022866,1.044214,-0.297258,158.70001,-146.1,-27.900002,,,,,,
1202153,-0.38161522,8.695205,-2.9739668,-0.69360197,1.98172,-1.493912,156.3,-150.90001,-27.900002,,,,,,
1202174,-0.8272317,8.732887,-3.1390543,-0.182928,2.088428,-1.25763,156.3,-148.5,-25.500002,,,,,,
1202194,-0.9588232,8.803469,-3.1103435,0.213416,1.67684,-1.250008,156.3,-148.5,-26.7,,,,,,
1202214,-0.93848634,8.758009,-2.9099655,0.33536798,1.326228,-1.1204339,153.90001,-150.90001,-27.300001,,,,,,
1202234,-0.93848634,9.2484865,-3.154008,0.388722,1.3719599,-0.907018,156.3,-143.70001,-26.1,,,,,,
1202254,-1.159201,9.140223,-3.3346472,0.060976,1.044214,-1.25763,156.3,-146.1,-27.300001,,,,,,
1202277,-1.2507169,9.341797,-3.4829865,0.33536798,0.586894,-1.173788,153.90001,-146.1,-26.1,,,,,,
1202297,-1.2273893,8.915919,-3.2742345,-0.121952,0.19055,-1.204276,153.90001,-143.70001,-27.300001,,,,,,
1202317,-0.9450659,9.317871,-3.2455237,-0.144818,0.23628199,-0.80030996,163.5,-146.1,-26.1,,,,,,
1202341,-1.0455539,9.0756235,-3.268253,-0.716468,0.396344,-0.70122397,163.5,-143.70001,-26.1,,,,,,
1202361,-1.0718722,8.90934,-3.070866,-0.739334,0.442076,-0.503052,156.3,-146.1,-27.300001,,,,,,
1202381,-1.0341892,8.9356575,-3.0140424,-0.632626,0.503052,-0.47256398,161.1,-146.1,-25.500002,,,,,,
1202403,-0.82842803,8.904554,-2.9165452,-0.518296,0.68597996,-0.56402797,161.1,-143.70001,-25.500002,,,,,,
1202423,-0.8625222,8.975734,-2.941667,-0.312502,0.754578,-0.487808,156.3,-138.90001,-25.500002,,,,,,
1202443,-0.9139625,8.884217,-2.9177413,-0.297258,0.792688,-0.426832,156.3,-141.3,-26.7,,,,,,
1202463,-0.861924,8.954799,-2.9470503,-0.137196,0.792688,-0.35061198,153.90001,-146.1,-27.300001,,,,,,
1202484,-0.790745,8.933266,-2.9643965,-0.144818,0.769822,-0.365856,153.90001,-148.5,-24.300001,,,,,,
1202504,-0.75784713,9.098352,-3.0523236,-0.20579399,0.82317597,-0.396344,165.90001,-138.90001,-27.300001,,,,,,
1202524,-0.85235375,8.922499,-3.0822308,-0.221038,0.716468,-0.487808,163.5,-141.3,-26.1,,,,,,
1202586,-0.7058087,9.341797,-2.815459,0.022866,0.754578,-0.41921,161.1,-141.3,-25.500002,,,,,x,
1202606,-0.86611104,9.173718,-2.7454762,-0.20579399,0.640248,-0.91463995,161.1,-148.5,-26.1,,,,,x,
1202626,-0.74648243,8.869863,-2.5343318,-0.099086,0.34298998,-0.68597996,161.1,-148.5,-25.500002,,,,,x,
1202646,-0.820054,9.223963,-2.1658757,0.510674,0.060976,-0.17530599,158.70001,-143.70001,-24.300001,,,,,x,
1202666,-0.74408984,9.2706175,-1.6915483,0.221038,-0.55640596,-0.137196,163.5,-143.70001,-28.500002,,,,,x,
1202686,-0.80510044,8.234036,-0.89003676,-0.426832,-1.272874,-0.449698,165.90001,-141.3,-27.300001,,,,,x,
1202706,-1.0132542,7.1292663,-0.057421725,-0.045732,-1.6387299,-0.160062,161.1,-141.3,-24.900002,,,,,x,
1202728,-1.1789398,6.3893633,0.46535522,0.594516,-2.393308,0.640248,163.5,-143.70001,-24.900002,,,,,x,
1202768,-0.8625222,5.0094476,1.4792075,1.814036,-6.4329677,0.594516,158.70001,-148.5,-24.900002,,,,,x,
1202788,-0.5885727,4.903576,1.6365192,2.538126,-6.753092,1.150922,156.3,-143.70001,-26.1,,,,,x,
1202850,-0.31402507,2.8226366,1.6419024,3.338436,-13.269901,-0.40396598,158.70001,-143.70001,-26.7,,,,,x,
1202959,-2.2944765,5.2062364,-3.9423604,0.792688,-4.61131,-5.884184,170.70001,-146.1,-29.1,,,,,x,
1203000,-1.6413043,5.359361,-5.2199936,4.397894,-8.826276,-3.8109999,175.5,-136.5,-28.500002,,,,,x,
1203021,-2.054023,6.941449,-7.2399225,5.990892,-0.297258,-3.948196,180.3,-134.1,-30.300001,,,,,x,
1203061,-2.0881171,8.071939,-11.539972,4.4664917,3.955818,-9.5275,189.90001,-117.3,-24.900002,,,,,x,
1203081,-1.1855193,8.256167,-12.227239,5.160094,0.46494198,-8.925362,197.1,-117.3,-25.500002,,,,,x,
1203101,-1.4199914,10.314378,-11.541767,2.621968,0.365856,-7.218034,209.1,-110.100006,-24.300001,,,,,x,
1203121,-0.6585554,11.189461,-12.200322,2.454284,4.5731997,-9.649452,199.50002,-110.100006,-22.5,,,,,x,
1203141,-2.7167654,8.213101,-12.756596,2.888738,8.429932,-13.811064,211.50002,-98.100006,-21.900002,,,,,x,
1203161,-2.363861,8.705971,-14.274084,1.310984,8.323224,-10.053418,225.90001,-88.5,-20.1,,,,,x,
1203181,-4.396949,8.1688385,-13.247072,-2.538126,6.905532,-10.632689,228.3,-93.3,-20.7,,,,,x,
1203205,-3.7377954,9.358545,-13.661586,-1.33385,8.91774,-7.385718,230.70001,-81.3,-17.7,,,,,x,
1203225,-3.6050076,10.731881,-13.385243,-4.329296,7.385718,-6.692116,230.70001,-83.700005,-20.1,,,,,x,
1203245,-5.4018292,8.665895,-11.727789,-7.0503497,5.190582,-9.56561,237.90001,-78.9,-18.300001,,,,,x,
1203267,-7.4450855,7.5605273,-10.343686,-7.195168,8.551884,-8.140296,245.1,-74.100006,-19.5,,,,,x,
1203287,-7.9714513,8.745448,-10.5661955,-7.5000477,12.355262,-5.541194,247.50002,-71.700005,-18.300001,,,,,x,
1203307,-6.840363,9.896873,-10.225254,-7.294254,6.798824,-4.5731997,247.50002,-69.3,-18.300001,,,,,x,
1203327,-9.648644,9.949511,-6.7584176,-10.541225,4.68753,-6.722604,252.3,-64.5,-18.300001,,,,,x,
1203350,-9.328638,10.236619,-9.613952,-5.129606,11.875075,-2.2865999,254.70001,-62.100002,-16.5,,,,,x,
1203370,-9.503296,11.873736,-5.044738,-11.20434,-3.574718,-1.75306,249.90001,-71.700005,-18.900002,,,,,x,
1203390,-13.454628,10.024877,-2.5678277,-7.1113257,8.856764,-4.138746,257.1,-69.3,-19.5,,,,,x,
1203413,-10.452548,12.499393,-8.04921,-2.301844,10.89946,2.606724,254.70001,-71.700005,-18.300001,,,,,x,
1203475,-9.83048,13.727381,-5.9688687,-4.413138,11.821722,2.6981878,249.90001,-81.3,-17.7,,,,,x,
1203496,-9.582849,14.33988,-4.0135393,-5.7165,3.490876,3.033556,247.50002,-81.3,-17.7,,,,,x,
1203517,-10.955586,13.340981,-2.5534723,-6.0976,9.268352,3.1859958,237.90001,-81.3,-18.300001,,,,,x,
1203537,-9.654028,13.250661,-5.7194433,-5.846074,7.0655937,6.112844,237.90001,-86.100006,-18.300001,,,,,x,
1203618,-7.028778,9.48894,-4.280909,-3.8109999,1.089946,11.768368,209.1,-112.50001,-20.7,,,,,x,
1203723,-3.5667264,7.350579,-1.5115073,-5.625036,-0.69360197,7.149436,168.3,-141.3,-27.300001,,,,,x,
1203763,-2.3423278,3.8000023,0.036486723,-3.071666,-4.550334,7.751574,156.3,-143.70001,-27.900002,,,,,x,
1203783,-1.7591385,4.092494,-0.640013,-2.827762,-3.643316,9.436036,151.5,-153.3,-28.500002,,,,,x,
1203843,0.40015766,2.6246514,-0.70760316,-0.72409,-6.425346,7.69822,127.50001,-162.90001,-30.900002,,,,,x,
1203904,2.1646795,3.756338,-0.86790544,1.6463519,-6.654006,5.251558,110.700005,-165.3,-31.500002,,,,,x,
1203924,2.756841,3.8957052,-1.0634983,2.355198,-6.082356,4.4817357,103.50001,-167.70001,-32.100002,,,,,x,
1203965,3.5338287,5.230162,-2.1222112,2.7210538,-3.6890478,3.7576458,96.3,-165.3,-27.900002,,,,,x,
1203985,4.1762342,6.498823,-2.2932801,2.7439198,-3.056422,3.50612,91.5,-165.3,-30.300001,,,,,x,
1204005,4.157692,7.0443296,-2.8788621,1.951232,-2.065562,1.67684,93.9,-167.70001,-30.300001,,,,,x,
1204025,4.0901017,7.175323,-3.058305,2.157026,-1.8902559,0.541162,86.700005,-170.1,-30.900002,,,,,x,
1204045,4.4280524,7.8045697,-3.3603673,1.768304,-0.92988396,-0.23628199,91.5,-167.70001,-29.1,,,,,x,
1204065,4.2569838,8.092875,-3.8753684,1.425314,0.28201398,-1.318606,89.100006,-170.1,-27.900002,,,,,x,
1204085,3.8370872,8.217288,-4.155897,1.455802,0.617382,-1.5244,93.9,-165.3,-27.300001,,,,,x,
1204145,2.5636408,8.873451,-4.021315,0.35061198,2.2408679,-1.8521459,96.3,-172.5,-27.900002,,,,,x,
1204165,2.4535825,9.00265,-4.082924,-0.091464,2.484772,-2.545748,98.700005,-165.3,-27.300001,,,,,x,
1204185,2.2011662,8.512771,-3.731814,-0.46494198,2.370442,-2.7820299,91.5,-162.90001,-27.300001,,,,,x,
1204209,1.7758865,8.060575,-3.5451934,-0.47256398,2.599102,-2.431418,96.3,-167.70001,-28.500002,,,,,x,
1204229,1.6718096,8.738869,-3.3089268,0.213416,2.431418,-1.570132,103.50001,-165.3,-26.7,,,,,x,
1204249,1.2453337,8.96736,-2.987126,-0.182928,2.660078,-1.935988,105.9,-158.1,-27.900002,,,,,x,
1204269,0.87328875,8.904554,-3.1857095,-0.518296,2.903982,-1.920744,108.3,-162.90001,-26.1,,,,,x,
1204293,0.76323044,8.883021,-2.978154,-0.297258,2.416174,-1.56251,105.9,-170.1,-27.900002,,,,,x,
1204313,0.656761,8.689821,-2.8806565,-0.60976,2.2332458,-1.326228,98.700005,-167.70001,-26.1,,,,,x,
1204333,0.46954224,8.86747,-2.8340013,-0.251526,1.8292799,-1.150922,108.3,-162.90001,-28.500002,,,,,x,
1204357,0.4342518,9.4428835,-3.0636883,0.243904,1.44818,-1.021348,105.9,-162.90001,-27.300001,,,,,x,
1204377,0.32239905,9.022986,-3.033781,-0.022866,0.830798,-1.33385,105.9,-167.70001,-27.900002,,,,,x,
1204401,0.4300648,8.824403,-2.9189377,0.30488,0.480186,-0.792688,110.700005,-160.5,-27.900002,,,,,,
1204421,0.5790024,9.183289,-2.819048,0.160062,0.327746,-0.68597996,110.700005,-165.3,-27.900002,,,,,,
1204441,0.7410991,9.507483,-2.8046925,0.198172,0.46494198,-0.663114,110.700005,-158.1,-26.7,,,,,,
1204461,0.5778061,9.148597,-2.8537402,-0.868908,0.731712,-1.8597679,110.700005,-162.90001,-26.7,,,,,,
1204482,0.4593738,8.278897,-2.515191,-0.739334,0.632626,-1.8369019,110.700005,-158.1,-27.300001,,,,,,
1204503,0.38221335,8.533108,-2.7143729,-0.40396598,1.089946,-1.25763,113.100006,-165.3,-27.300001,,,,,,
1204523,0.2990715,8.877638,-2.9823408,-0.068598,0.967994,-1.1356779,115.50001,-160.5,-27.300001,,,,,,
1204545,0.34572664,9.171925,-2.9189377,0.19055,0.69360197,-1.29574,115.50001,-162.90001,-25.500002,,,,,,
1204565,0.5945541,9.268824,-3.0068648,-0.121952,0.754578,-1.67684,117.9,-162.90001,-27.300001,,,,,,
1204585,0.5012438,8.801076,-3.1199138,-0.26677,0.853664,-1.935988,113.100006,-160.5,-25.500002,,,,,,
1204605,0.4551868,8.80287,-3.2437294,0.198172,0.92988396,-1.8978779,113.100006,-158.1,-23.7,,,,,,
1204625,0.40733537,9.083998,-3.460257,0.487808,1.013726,-1.8902559,120.3,-162.90001,-24.300001,,,,,,
1204645,0.4019521,9.138429,-3.5039215,0.251526,1.021348,-2.050318,120.3,-162.90001,-26.7,,,,,,
1204665,0.23626648,8.652737,-3.4363313,-0.23628199,1.089946,-2.09605,125.100006,-155.70001,-26.7,,,,,,
1204685,0.24404234,8.9356575,-3.588858,-0.03811,1.006104,-1.539644,125.100006,-160.5,-25.500002,,,,,,
1204706,0.12022674,8.939845,-3.6630275,-0.083841994,0.754578,-1.44818,125.100006,-153.3,-26.1,,,,,,
1204726,0.1016843,9.085792,-3.5457916,0.07622,0.40396598,-1.3643379,120.3,-162.90001,-25.500002,,,,,,
1204746,0.13338588,9.067249,-3.4901643,-0.182928,0.251526,-1.509156,132.3,-155.70001,-25.500002,,,,,,
1204766,0.26138848,8.868068,-3.3322544,-0.41158798,0.121952,-1.455802,129.90001,-158.1,-25.500002,,,,,,
1204788,0.38998923,8.887208,-3.2275794,-0.41921,0.23628199,-1.41007,132.3,-153.3,-25.500002,,,,,,
1204808,0.3881948,8.909938,-3.0900066,-0.41921,0.442076,-1.41007,129.90001,-155.70001,-24.300001,,,,,,
1204828,0.3050529,9.025977,-3.0577068,-0.388722,0.769822,-1.425314,134.70001,-150.90001,-24.300001,,,,,,
1204848,0.24822934,8.915321,-2.987126,-0.41921,1.036592,-1.509156,134.70001,-158.1,-26.1,,,,,,
1204870,0.13278773,8.836366,-2.811272,-0.34298998,1.280496,-1.417692,134.70001,-150.90001,-26.1,,,,,,
1204890,-0.059814297,8.925489,-2.9691818,-0.327746,1.417692,-1.097568,137.1,-155.70001,-24.300001,,,,,,
1204910,-0.24464047,9.107923,-3.1354654,-0.251526,1.3567159,-0.94512796,134.70001,-150.90001,-26.1,,,,,,
1204932,-0.2601922,8.783132,-3.1241007,-0.518296,0.769822,-1.166166,134.70001,-153.3,-24.900002,,,,,,
1204952,-0.11065645,8.844142,-3.062492,-0.045732,0.56402797,-0.81555396,132.3,-153.3,-24.300001,,,,,,
1204973,-0.10646945,9.133643,-3.1235025,-0.007622,0.480186,-0.7622,137.1,-150.90001,-24.300001,,,,,,
1204993,-0.023925718,9.200635,-3.0283978,-0.07622,0.34298998,-0.70122397,139.5,-155.70001,-23.1,,,,,,
1205013,-0.015551717,9.025977,-2.9518356,-0.289636,0.274392,-0.792688,144.3,-153.3,-24.900002,,,,,,
1205034,-0.011962859,8.961378,-2.857927,-0.33536798,0.30488,-0.632626,141.90001,-153.3,-26.7,,,,,,
1205054,-0.30565107,9.052894,-3.071464,-0.289636,0.297258,-0.602138,141.90001,-150.90001,-24.300001,,,,,,
1205074,-0.26497734,9.155176,-3.0385664,-0.083841994,-0.144818,-0.586894,139.5,-148.5,-25.500002,,,,,,
1205094,-0.21114446,9.111512,-3.0014815,-0.15244,-0.26677,-0.594516,134.70001,-155.70001,-25.500002,,,,,,
1205114,-0.11005831,9.214991,-2.962004,-0.251526,-0.41921,-0.487808,144.3,-150.90001,-26.1,,,,,,
1205134,-0.16448931,8.80287,-2.882451,-0.655492,-0.47256398,-0.3811,139.5,-150.90001,-26.1,,,,,,
1205156,-0.14235802,9.0002575,-2.9799483,-0.33536798,-0.396344,-0.198172,144.3,-155.70001,-24.900002,,,,,,
1205216,-0.029309006,8.945827,-2.915947,-0.47256398,-0.07622,-0.480186,149.1,-155.70001,-26.7,,,,,,
1205236,-0.12979703,8.8919935,-2.8435717,-0.274392,0.007622,-0.33536798,141.90001,-153.3,-24.900002,,,,,,
1205256,-0.11005831,8.920704,-2.7137747,-0.182928,0.0,-0.320124,134.70001,-150.90001,-25.500002,,,,,,
1205276,-0.09450659,9.044519,-2.690447,-0.22865999,0.11432999,-0.41158798,144.3,-148.5,-26.7,,,,,,
1205298,-0.21652776,9.20243,-2.811272,-0.045732,0.083841994,-0.3811,144.3,-153.3,-24.900002,,,,,x,
1205318,-0.33077306,9.309497,-2.6886528,0.23628199,-0.289636,-0.449698,137.1,-150.90001,-26.1,,,,,x,
1205338,-0.2936882,9.253272,-2.3985534,0.3811,-0.983238,-0.40396598,139.5,-153.3,-26.7,,,,,x,
1205359,-0.21772404,8.639577,-1.6759967,0.17530599,-1.798792,-0.625004,149.1,-158.1,-26.7,,,,,x,
1205379,0.117236026,8.630605,-1.1472383,0.92226195,-2.522882,0.030488,149.1,-148.5,-25.500002,,,,,x,
1205400,0.11903045,8.785524,-0.5335435,0.960372,-4.207344,0.053354,141.90001,-150.90001,-24.900002,,,,,x,
1205421,-0.10407688,7.6167526,-0.33735263,0.41158798,-5.495462,-0.69360197,141.90001,-148.5,-25.500002,,,,,x,
1205441,-0.10467502,6.965375,-0.08732887,1.471046,-8.224138,-1.310984,144.3,-148.5,-24.900002,,,,,x,
1205461,0.4216908,6.2787066,0.36785793,1.71495,-10.846106,-1.8369019,146.70001,-150.90001,-26.1,,,,,x,
1205481,0.5700303,4.856323,1.0282078,1.1128119,-13.125084,-3.003068,151.5,-150.90001,-26.7,,,,,x,
1205501,1.1101533,4.9340816,1.150229,2.050318,-13.300389,-1.730194,153.90001,-148.5,-29.1,,,,,x,
1205521,1.1741546,4.551868,0.9911229,2.301844,-14.070211,-2.431418,158.70001,-148.5,-29.1,,,,,x,
1205541,1.3835047,3.710879,1.5073203,2.881116,-14.961986,-3.094532,163.5,-143.70001,-27.900002,,,,,x,
1205561,1.3458217,3.4829865,1.7035112,3.437522,-14.840034,-3.2164838,165.90001,-141.3,-28.500002,,,,,x,
1205584,1.1717621,2.631829,1.8386915,2.62959,-14.001614,-3.971062,168.3,-134.1,-29.7,,,,,x,
1205625,0.90798104,2.4781063,0.6077133,2.004586,-9.077802,-3.147886,170.70001,-138.90001,-31.500002,,,,,x,
1205645,0.2254999,3.3699374,-1.589864,1.745438,-6.257662,-4.123502,175.5,-141.3,-31.500002,,,,,x,
1205707,-1.6299396,6.091488,-6.7500434,1.554888,-3.445144,-4.329296,192.3,-126.9,-30.900002,,,,,x,
1205727,-3.0272017,4.638599,-6.726716,1.570132,1.33385,-7.8430376,194.70001,-124.50001,-30.900002,,,,,x,
1205749,-2.5098078,6.882831,-9.325647,3.475632,6.996996,-5.251558,201.90001,-124.50001,-28.500002,,,,,x,
1205769,-1.8775707,8.31658,-10.316172,0.541162,6.829312,-6.32626,201.90001,-117.3,-29.1,,,,,x,
1205789,-3.2891881,6.338521,-10.314976,1.966476,8.5899935,-10.800374,213.90001,-114.9,-27.300001,,,,,x,
1205812,-3.192289,7.422954,-11.757098,5.350644,12.492457,-8.46042,216.3,-105.3,-25.500002,,,,,x,
1205832,-1.9523387,10.937642,-13.059854,2.865872,15.137292,-6.768336,223.50002,-100.50001,-23.1,,,,,x,
1205853,-3.397452,10.987288,-14.009107,3.155508,14.71046,-10.914703,223.50002,-98.100006,-21.900002,,,,,x,
1205873,-4.3993416,9.350171,-14.506164,3.102154,13.07173,-13.2013035,228.3,-88.5,-20.1,,,,,x,
1205893,-5.475999,9.5296135,-14.562388,0.655492,12.660142,-11.829344,228.3,-71.700005,-15.3,,,,,x,
1205913,-6.852924,10.251573,-14.814207,1.6006199,15.213511,-11.105254,242.70001,-71.700005,-13.500001,,,,,x,
1205933,-6.1142173,12.345671,-15.863948,1.1128119,14.2531395,-10.358297,237.90001,-57.300003,-10.5,,,,,x,
1205953,-6.939655,12.708744,-15.06124,-3.025934,10.411652,-11.821722,242.70001,-57.300003,-12.900001,,,,,x,
1205973,-7.9804235,11.255257,-13.62151,-4.756128,8.407065,-12.949778,247.50002,-47.7,-9.900001,,,,,x,
1205993,-10.170823,10.429819,-12.3797655,-5.3354,11.844587,-12.469592,252.3,-50.100002,-8.1,,,,,x,
1206013,-11.300117,10.90295,-14.0533695,-3.7881339,17.1495,-8.902495,257.1,-40.5,-9.3,,,,,x,
1206033,-8.585744,12.562797,-13.768653,-8.628104,4.15399,-6.6158957,257.1,-35.7,-6.3,,,,,x,
1206053,-12.3695965,9.935753,-6.811652,-15.526013,-4.222588,-9.94671,257.1,-42.9,-11.1,,,,,x,
1206073,-13.85658,9.947716,-7.6592207,-6.25004,16.943707,-3.1783738,264.30002,-38.100002,-9.900001,,,,,x,
1206093,-10.832369,13.307485,-9.025379,-12.99551,2.17227,-1.3795819,257.1,-42.9,-7.5000005,,,,,x,
1206113,-14.152062,8.880031,-4.237843,-11.692148,2.2408679,-2.55337,257.1,-50.100002,-9.3,,,,,x,
1206133,-11.02198,12.177592,-6.977936,-7.911636,8.23176,5.480218,257.1,-52.500004,-10.5,,,,,x,
1206157,-10.436996,13.339187,-4.810864,-11.608306,1.097568,5.015276,249.90001,-59.7,-9.900001,,,,,x,
1206177,-12.214678,10.445371,-3.1235025,-10.1982355,3.025934,3.140264,247.50002,-64.5,-12.900001,,,,,x,
1206197,-11.035738,11.560309,-5.090795,-8.818654,5.0838737,8.132674,247.50002,-66.9,-11.1,,,,,x,
1206220,-9.233533,12.811027,-3.4524813,-10.373542,-1.585376,9.405548,245.1,-76.5,-12.900001,,,,,x,
1206240,-8.906947,9.851415,-2.1730535,-8.91774,-0.80030996,8.109808,233.1,-83.700005,-15.3,,,,,x,
1206262,-6.819428,9.692906,-1.4636558,-6.8369336,-1.56251,9.37506,223.50002,-90.9,-17.1,,,,,x,
1206282,-6.2601643,9.926183,-1.3165127,-6.562542,-1.951232,8.95585,221.1,-102.9,-18.900002,,,,,x,
1206302,-6.776362,7.2321467,-0.6101058,-6.737848,-2.7820299,6.067112,216.3,-98.100006,-18.900002,,,,,x,
1206322,-5.852829,7.724418,-0.9845433,-4.30643,-2.93447,10.792751,197.1,-117.3,-20.7,,,,,x,
1206342,-4.799499,8.55165,-0.6501814,-4.740884,-4.695152,9.885734,201.90001,-117.3,-20.7,,,,,x,
1206362,-4.1810193,6.418074,0.33854893,-5.3811316,-6.006136,6.25004,197.1,-119.700005,-23.1,,,,,x,
1206424,-2.4828916,3.9100606,0.33795077,-2.40093,-5.5640597,7.3628516,177.90001,-134.1,-27.900002,,,,,x,
1206444,-1.8093824,2.9955,0.1363766,-0.70122397,-6.920776,6.5701637,175.5,-141.3,-27.900002,,,,,x,
1206464,-1.594051,2.1443427,-0.0807493,0.41158798,-7.294254,6.78358,173.1,-136.5,-26.1,,,,,x,
1206484,-0.8457742,2.866301,-0.8062967,1.3719599,-7.8430376,8.0945635,165.90001,-143.70001,-29.7,,,,,x,
1206544,1.7280351,3.6767848,-1.6700152,3.597584,-8.391822,6.737848,146.70001,-153.3,-29.7,,,,,x,
1206564,2.5157893,4.907763,-2.1150336,3.338436,-7.896392,6.623518,141.90001,-153.3,-29.1,,,,,x,
1206584,3.0212202,5.321678,-2.2609804,2.17227,-7.8582816,5.327778,134.70001,-155.70001,-28.500002,,,,,x,
1206606,3.5715117,5.1027575,-2.3495057,1.509156,-7.248522,3.971062,134.70001,-155.70001,-27.300001,,,,,x,
1206666,4.5973268,7.628117,-3.693533,2.7744079,-4.504602,2.7362978,122.700005,-160.5,-30.300001,,,,,x,
1206686,4.2767224,7.9427404,-3.376517,1.539644,-4.11588,0.899396,122.700005,-158.1,-30.300001,,,,,x,
1206707,3.8227317,7.840458,-3.530838,0.426832,-2.126538,-0.26677,120.3,-158.1,-27.900002,,,,,x,
1206727,2.9943037,7.999564,-4.33534,0.41921,-0.373478,-1.3567159,120.3,-160.5,-29.1,,,,,x,
1206751,2.0426583,7.8129435,-4.7558346,1.661596,-0.144818,-1.013726,122.700005,-160.5,-29.1,,,,,x,
1206772,1.940974,8.772963,-4.1570935,1.425314,-0.19055,-0.259148,132.3,-158.1,-26.7,,,,,x,
1206792,1.9421703,9.481164,-4.0727553,0.129574,1.089946,-0.67073596,122.700005,-158.1,-29.1,,,,,x,
1206812,1.5737141,9.01222,-4.0135393,-0.80030996,2.027452,-1.775926,120.3,-150.90001,-27.300001,,,,,x,
1206832,0.94327146,8.964369,-3.9297993,-0.769822,2.36282,-2.339954,129.90001,-153.3,-29.7,,,,,x,
1206852,0.71418273,8.682643,-3.7886376,-0.525918,2.103672,-2.652456,129.90001,-153.3,-29.1,,,,,x,
1206872,0.49107537,8.737673,-3.4793978,-0.22865999,1.699706,-2.179892,127.50001,-153.3,-26.1,,,,,x,
1206892,0.31641763,8.93805,-3.250309,-0.434454,1.227142,-1.9131219,134.70001,-153.3,-27.900002,,,,,x,
1206913,0.05084215,8.46791,-2.9015915,-0.792688,1.02897,-1.94361,129.90001,-153.3,-27.300001,,,,,x,
1206934,-0.16867632,9.073231,-2.848955,-0.518296,0.907018,-1.684462,134.70001,-155.70001,-26.1,,,,,x,
1206954,-0.31821206,9.158765,-2.9063766,-0.861286,0.899396,-2.17227,139.5,-155.70001,-28.500002,,,,,x,
1206974,-0.5161974,8.695205,-2.8674974,-0.708846,0.541162,-2.111294,139.5,-155.70001,-28.500002,,,,,x,
1206994,-0.46475708,8.729897,-2.6390069,-0.297258,0.297258,-1.33385,139.5,-150.90001,-29.1,,,,,,
1207014,-0.5090197,8.96736,-2.6013238,-0.297258,0.327746,-0.739334,141.90001,-150.90001,-26.7,,,,,,
1207034,-0.7847636,9.182691,-2.7550466,-0.198172,0.434454,-0.617382,144.3,-150.90001,-27.900002,,,,,,
1207057,-0.748875,9.295142,-2.95363,0.11432999,0.20579399,-0.83842,137.1,-148.5,-26.1,,,,,,
1207078,-0.6914533,9.271216,-3.0272017,0.55640596,-0.022866,-0.434454,141.90001,-155.70001,-26.7,,,,,,
1207098,-0.7177716,8.923695,-2.9590132,0.289636,-0.33536798,-0.213416,144.3,-158.1,-27.300001,,,,,,
1207140,-0.7835673,9.116297,-3.0200238,0.129574,-0.3811,0.07622,144.3,-150.90001,-26.1,,,,,,
1207161,-0.81467074,8.981715,-2.991313,0.22865999,-0.746956,0.045732,141.90001,-155.70001,-27.300001,,,,,,
1207181,-0.62446123,9.048109,-2.9171433,0.312502,-0.94512796,0.312502,141.90001,-155.70001,-28.500002,,,,,,
1207201,-0.66334057,9.077417,-3.1402507,0.11432999,-0.91463995,0.41921,139.5,-153.3,-27.300001,,,,,,
1207224,-0.4731311,9.057679,-2.9643965,0.327746,-1.158544,0.442076,137.1,-155.70001,-29.1,,,,,,
1207244,-0.07177716,9.323853,-3.1599894,-0.884152,-0.053354,-0.15244,139.5,-153.3,-26.7,,,,,,
1207264,-0.10467502,8.81902,-3.3190954,-1.455802,0.434454,-0.46494198,137.1,-155.70001,-27.300001,,,,,x,
1207288,-0.14953575,8.5360985,-3.6301296,-0.182928,0.967994,-0.060976,144.3,-155.70001,-26.1,,,,,x,
1207308,-0.12321745,8.671877,-3.7748804,0.312502,0.975616,0.091464,139.5,-150.90001,-26.7,,,,,x,
1207330,0.040075578,8.82859,-3.539212,0.602138,0.861286,0.07622,137.1,-150.90001,-29.1,,,,,x,
1207350,0.10467502,9.164746,-3.2981603,0.274392,1.3567159,-0.40396598,141.90001,-153.3,-27.900002,,,,,x,
1207370,0.08792701,9.255664,-3.5027251,-0.28201398,2.187514,-1.272874,137.1,-153.3,-26.7,,,,,x,
1207390,-0.031701576,8.70298,-3.3268712,-0.46494198,2.484772,-1.760682,139.5,-150.90001,-25.500002,,,,,x,
1207410,-0.18781689,9.061866,-3.2951696,-0.03811,2.957336,-1.71495,137.1,-155.70001,-27.300001,,,,,x,
1207434,-0.32239905,9.078614,-3.0565107,-0.15244,2.93447,-1.692084,141.90001,-150.90001,-26.1,,,,,x,
1207454,-0.56883395,8.826796,-2.6001275,-0.144818,2.522882,-1.56251,151.5,-146.1,-26.1,,,,,x,
1207474,-0.5287584,8.878236,-2.0318916,0.312502,1.577754,-1.250008,141.90001,-150.90001,-25.500002,,,,,x,
1207497,-0.14056359,8.642568,-1.0407687,0.396344,0.0,-0.92226195,149.1,-150.90001,-27.300001,,,,,x,
1207560,-0.3493155,7.403814,-0.933103,-2.568614,-5.5945477,1.242386,144.3,-153.3,-25.500002,,,,,x,
1207581,0.07596416,5.864194,-0.2619866,-3.1783738,-10.472628,0.365856,149.1,-153.3,-28.500002,,,,,x,
1207601,0.8762795,4.546485,1.0048802,-2.332332,-14.13881,0.487808,141.90001,-155.70001,-29.7,,,,,x,
1207621,2.0881171,4.3784065,1.9206371,-1.242386,-15.198268,0.655492,153.90001,-146.1,-29.7,,,,,x,
1207643,2.0629952,3.3621616,2.3070374,-1.013726,-14.7485695,-1.318606,153.90001,-153.3,-32.100002,,,,,x,
1207664,1.5091147,2.205353,1.8416822,0.20579399,-12.835447,-2.7210538,151.5,-148.5,-32.7,,,,,x,
1207684,1.2596891,2.4481993,1.2501189,1.425314,-11.516842,-2.644834,149.1,-153.3,-34.5,,,,,x,
1207744,-0.31282878,1.3835047,-2.2274845,2.195136,-5.929916,-5.3963757,163.5,-143.70001,-33.9,,,,,x,
1207764,0.3074455,4.806677,-4.301844,5.18296,-3.384168,-2.843006,163.5,-141.3,-35.7,,,,,x,
1207804,-0.31282878,7.2680354,-5.88154,-0.23628199,-2.111294,-9.474146,170.70001,-143.70001,-32.7,,,,,x,
1207824,-2.940471,2.6874564,-6.76739,2.2408679,0.47256398,-11.0519,187.5,-126.9,-35.7,,,,,x,
1207844,-2.3788147,6.8888125,-7.182501,0.449698,1.303362,-5.3811316,187.5,-126.9,-34.5,,,,,x,
1207864,-1.5886678,10.0368395,-7.576079,-1.326228,3.437522,-5.86894,192.3,-119.700005,-33.300003,,,,,x,
1207927,-4.752844,10.3173685,-10.236619,0.34298998,8.53664,-6.189064,211.50002,-107.700005,-30.900002,,,,,x,
1207969,-4.5865602,11.241499,-8.79629,-2.484772,4.283564,-7.9954777,223.50002,-100.50001,-29.1,,,,,x,
1207989,-6.842756,9.515259,-8.546267,-1.9131219,10.236346,-7.9649897,228.3,-93.3,-29.1,,,,,x,
1208009,-6.1387415,10.095457,-9.64984,-1.204276,11.730258,-6.661628,233.1,-93.3,-28.500002,,,,,x,
1208029,-5.8330903,12.22365,-8.734084,-2.850628,9.649452,-5.4421077,233.1,-86.100006,-26.1,,,,,x,
1208051,-8.48406,12.915701,-9.115101,-2.43904,15.526013,-5.343022,240.3,-81.3,-26.1,,,,,x,
1208071,-5.9084563,13.457021,-10.469296,-2.347576,12.2409315,-5.5030837,237.90001,-83.700005,-23.7,,,,,x,
1208091,-8.290261,10.613449,-7.22138,-4.893324,8.597616,-8.018344,247.50002,-78.9,-24.300001,,,,,x,
1208111,-9.110913,12.546049,-9.34419,-1.958854,17.881212,-3.7424018,245.1,-71.700005,-21.900002,,,,,x,
1208133,-6.901972,15.675533,-9.868761,-5.358266,9.618964,-5.213448,242.70001,-74.100006,-21.300001,,,,,x,
1208153,-11.356342,12.409074,-7.389458,-5.4573517,12.2104435,-6.78358,245.1,-71.700005,-20.1,,,,,x,
1208174,-9.770665,15.756881,-10.379575,-4.397894,14.634239,-0.503052,249.90001,-71.700005,-19.5,,,,,x,
1208194,-8.9679575,15.697664,-7.3816824,-7.477182,2.6829438,-4.38265,249.90001,-69.3,-19.5,,,,,x,
1208214,-10.949007,11.856988,-4.419678,-5.5488157,7.477182,-4.786616,257.1,-69.3,-17.1,,,,,x,
1208237,-9.116895,15.040305,-7.2847834,-4.245454,11.867454,2.332332,247.50002,-71.700005,-17.1,,,,,x,
1208257,-9.750329,14.27528,-5.080028,-6.760714,6.562542,0.091464,242.70001,-76.5,-17.1,,,,,x,
1208277,-10.187572,12.392924,-5.03756,-5.205826,8.323224,0.586894,242.70001,-76.5,-17.7,,,,,x,
1208301,-8.204129,14.02406,-4.5572515,-5.853696,4.87808,3.018312,240.3,-76.5,-16.5,,,,,x,
1208321,-7.8619914,13.582032,-3.1839151,-6.9893737,6.0976,2.408552,233.1,-83.700005,-16.5,,,,,x,
1208343,-9.882518,11.718817,-4.681067,-6.257662,7.339986,3.2774599,230.70001,-86.100006,-17.1,,,,,x,
1208363,-8.523538,12.213481,-3.0923991,-5.22107,1.326228,5.670768,233.1,-90.9,-16.5,,,,,x,
1208445,-6.9001775,8.382376,-1.5707234,-4.664664,-0.320124,9.367437,209.1,-110.100006,-20.1,,,,,x,
1208465,-5.8097625,7.9511147,-0.8876442,-4.413138,-3.528986,8.6814575,204.3,-117.3,-21.300001,,,,,x,
1208487,-5.153002,7.236334,-0.5849838,-4.5427117,-4.8857017,8.26987,194.70001,-117.3,-22.5,,,,,x,
1208527,-4.5674195,4.4914556,-0.40972793,-3.498498,-9.725672,6.158576,180.3,-134.1,-27.300001,,,,,x,
1208547,-4.108644,4.009352,-0.36785793,-2.93447,-10.78513,6.349126,177.90001,-138.90001,-27.300001,,,,,x,
1208567,-2.9003952,3.7515528,0.011962859,-2.065562,-12.561056,7.3628516,180.3,-143.70001,-27.900002,,,,,x,
1208589,-1.5372274,3.5613432,0.63403153,-1.974098,-13.475696,7.58389,170.70001,-141.3,-29.7,,,,,x,
1208609,-0.9881322,2.5217707,0.9378882,-1.554888,-12.660142,6.768336,161.1,-146.1,-31.500002,,,,,x,
1208629,-0.32180092,2.5887628,0.4384388,-0.602138,-10.952814,7.797306,156.3,-148.5,-32.7,,,,,x,
1208650,0.12740445,2.083332,0.124413736,1.196654,-10.44214,7.073216,151.5,-150.90001,-34.5,,,,,x,
1208692,2.2645693,3.204252,0.039477438,2.43904,-9.230242,6.112844,139.5,-155.70001,-33.9,,,,,x,
1208712,2.894414,3.8041892,-0.33735263,3.6890478,-7.957368,6.082356,132.3,-162.90001,-34.5,,,,,x,
1208732,3.8340964,5.143431,-0.5096178,3.574718,-6.623518,6.036624,122.700005,-165.3,-33.9,,,,,x,
1208752,4.002175,5.5752907,-1.4020472,2.7515419,-4.275942,4.390272,120.3,-158.1,-35.7,,,,,x,
1208772,3.7659082,6.2224813,-2.6384087,4.070148,-2.835384,3.7195358,115.50001,-167.70001,-33.9,,,,,x,
1208792,3.9423604,7.1005554,-2.9231248,4.138746,-2.93447,2.85825,108.3,-160.5,-32.100002,,,,,x,
1208815,3.8287132,7.561723,-3.8933127,3.3155699,-1.150922,0.95274997,110.700005,-160.5,-32.100002,,,,,x,
1208837,3.672598,7.705278,-4.697815,3.7652678,-0.983238,0.388722,110.700005,-162.90001,-33.300003,,,,,x,
1208858,2.681475,8.103043,-5.435325,2.995446,-0.396344,0.548784,105.9,-162.90001,-30.300001,,,,,x,
1208878,2.8459642,8.554043,-5.9904017,1.722572,-1.234764,0.053354,110.700005,-160.5,-30.300001,,,,,x,
1208898,3.0595014,8.997267,-5.4981303,1.432936,-1.8902559,0.221038,103.50001,-167.70001,-29.7,,,,,x,
1208918,2.9757612,9.034949,-4.8808465,0.060976,-0.426832,-0.640248,108.3,-162.90001,-30.300001,,,,,x,
1208938,2.7807667,9.365125,-4.4794927,-0.23628199,0.594516,-1.570132,110.700005,-162.90001,-27.900002,,,,,,
1208958,2.4715269,8.28428,-3.915444,-1.1356779,1.783548,-2.469528,110.700005,-160.5,-29.1,,,,,,
1208980,2.3644593,8.845937,-4.0231094,-0.487808,3.109776,-1.9054999,120.3,-162.90001,-29.1,,,,,,
1209000,1.6562579,8.732887,-3.966286,-0.20579399,3.54423,-2.317088,115.50001,-158.1,-27.300001,,,,,,
1209021,1.0168431,9.064259,-3.7802637,0.388722,3.54423,-2.012208,113.100006,-165.3,-29.7,,,,,,
1209041,0.45638308,8.612062,-3.33046,-0.426832,3.2088618,-2.538126,120.3,-162.90001,-30.300001,,,,,,
1209061,0.25720146,8.220279,-2.9673872,-0.594516,3.452766,-2.2789779,122.700005,-155.70001,-29.7,,,,,,
1209082,0.18422803,8.823805,-2.8304126,-0.442076,3.3079479,-1.928366,120.3,-165.3,-28.500002,,,,,,
1209102,-0.0807493,8.894984,-2.7933276,-0.868908,2.7972739,-2.012208,117.9,-160.5,-29.1,,,,,,
1209123,-0.25122005,8.363235,-2.3046448,-0.625004,2.09605,-2.004586,125.100006,-160.5,-29.1,,,,,,
1209143,-0.15133017,8.728103,-2.1569035,-0.541162,1.699706,-1.577754,125.100006,-160.5,-29.1,,,,,,
1209164,-0.21832219,8.293252,-2.008564,-0.81555396,1.722572,-1.310984,127.50001,-150.90001,-29.7,,,,,,
1209184,-0.35290435,9.427331,-2.305243,-0.182928,1.745438,-0.548784,125.100006,-160.5,-29.1,,,,,,
1209206,-0.8517556,9.519445,-2.590557,-0.64787,1.432936,-1.250008,127.50001,-160.5,-27.900002,,,,,,
1209226,-0.8978126,8.958387,-2.8256273,-0.26677,1.082324,-1.516778,132.3,-158.1,-27.300001,,,,,,
1209246,-0.7219586,8.978126,-3.016435,0.41921,0.518296,-1.227142,129.90001,-158.1,-26.7,,,,,,
1209266,-0.5455064,9.401013,-3.2814124,0.87653,0.22865999,-0.625004,127.50001,-153.3,-27.900002,,,,,,
1209286,-0.46236452,9.780834,-3.4237704,0.57164997,0.030488,-0.625004,127.50001,-158.1,-27.300001,,,,,,
1209310,-0.37084866,8.7843275,-3.4219759,-0.47256398,-0.083841994,-0.55640596,129.90001,-155.70001,-29.7,,,,,,
1209330,-0.26378104,8.031265,-3.376517,-0.55640596,-0.312502,-0.182928,122.700005,-158.1,-27.300001,,,,,,
1209350,0.3146232,8.370413,-3.0571086,0.0,-0.449698,0.739334,127.50001,-162.90001,-29.1,,,,,,
1209392,1.1274995,8.686233,-2.958415,-1.722572,0.792688,-1.173788,127.50001,-158.1,-29.1,,,,,,
1209442,-0.0077758585,8.851918,-3.4088168,0.15244,2.317088,-1.006104,132.3,-160.5,-29.1,,,,,,
1209481,-0.32239905,9.319068,-3.3370397,0.769822,1.3795819,-2.111294,141.90001,-160.5,-28.500002,,,,,,
1209502,-0.15491903,9.668383,-3.3190954,0.55640596,1.722572,-2.40093,132.3,-150.90001,-27.300001,,,,,,
1209542,-0.5347398,8.927882,-3.1731484,-0.716468,2.888738,-1.98172,139.5,-148.5,-26.1,,,,,,
1209562,-0.34752107,9.147401,-3.1300821,-1.06708,3.376546,-1.4024479,144.3,-148.5,-27.900002,,,,,,
1209582,-0.3858022,9.606774,-3.1498208,-0.868908,3.84911,-1.547266,141.90001,-153.3,-26.1,,,,,,
1209602,-0.42228892,8.954799,-3.0044723,-1.250008,3.910086,-2.103672,134.70001,-153.3,-27.300001,,,,,,
1209622,-0.36905423,8.613258,-2.6766899,-0.846042,3.910086,-1.661596,144.3,-148.5,-26.7,,,,,,
1209642,-0.2685662,9.196448,-2.735906,-0.56402797,4.131124,-0.983238,149.1,-150.90001,-27.300001,,,,,x,
1209662,-0.60472256,9.398621,-2.8250291,-0.617382,3.864354,-1.211898,144.3,-150.90001,-26.7,,,,,x,
1209685,-0.86371845,9.191663,-2.6055107,-0.320124,2.843006,-1.158544,146.70001,-153.3,-27.300001,,,,,x,
1209705,-0.7123883,9.247889,-2.1658757,-0.777444,2.2637339,-0.640248,139.5,-150.90001,-26.1,,,,,x,
1209725,-1.6484821,8.985902,-2.7329152,-1.432936,2.378064,-0.121952,146.70001,-146.1,-26.7,,,,,x,
1209745,-2.9626021,9.679748,-2.932695,-0.23628199,-0.56402797,1.707328,144.3,-148.5,-26.1,,,,,x,
1209768,-2.5672297,10.154075,-1.1161348,-1.21952,-5.3354,3.498498,146.70001,-158.1,-26.1,,,,,x,
1209788,-0.13876916,9.998558,1.5127035,-3.612828,-8.696702,4.176856,139.5,-160.5,-27.300001,,,,,x,
1209808,0.39297992,7.0915833,5.06328,-5.137228,-9.192132,3.155508,139.5,-155.70001,-29.7,,,,,x,
1209828,-0.8272317,5.170946,6.2619586,-3.833866,-4.809482,2.606724,139.5,-158.1,-30.300001,,,,,x,
1209852,-1.0018895,4.8712764,3.343619,-0.83842,-3.414656,0.396344,134.70001,-158.1,-30.900002,,,,,x,
1209872,0.19499461,4.4866705,3.0266035,4.893324,-9.245486,-0.95274997,132.3,-162.90001,-30.300001,,,,,x,
1209896,0.51559925,3.3735263,1.8183546,5.29729,-13.887283,-0.3811,132.3,-160.5,-31.500002,,,,,x,
1209916,0.81168,1.6036214,1.5623494,5.800342,-16.638826,-1.471046,132.3,-155.70001,-30.900002,,,,,x,
1209938,1.6185749,2.037275,0.79373574,6.875044,-16.95895,-0.40396598,139.5,-153.3,-30.300001,,,,,x,
1209958,2.4499936,3.5248566,0.30146405,5.739366,-16.608337,-1.3643379,137.1,-153.3,-29.7,,,,,x,
1210018,0.77280074,-0.29009935,-2.1108465,5.52595,-7.942124,-6.623518,151.5,-148.5,-28.500002,,,,,x,
1210040,0.76323044,0.99710435,-4.2701426,6.006136,-1.935988,-5.388754,161.1,-143.70001,-29.1,,,,,x,
1210060,1.0922091,4.9430537,-7.5587325,10.503116,3.109776,-4.672286,163.5,-138.90001,-25.500002,,,,,x,
1210080,-0.016748004,5.4203715,-9.824498,8.1555395,0.975616,-10.045795,168.3,-129.3,-26.7,,,,,x,
1210100,-2.4194884,3.0427532,-10.5984955,7.751574,2.301844,-11.897942,175.5,-131.70001,-22.5,,,,,x,
1210121,-0.5748154,5.032177,-12.525114,6.036624,1.75306,-8.57475,185.1,-122.100006,-21.900002,,,,,x,
1210141,-0.25181818,9.560718,-12.302605,2.17227,2.492394,-6.0976,182.70001,-117.3,-21.900002,,,,,x,
1210162,-0.4898791,11.908428,-13.622108,1.8673899,8.948228,-8.643348,194.70001,-107.700005,-21.900002,,,,,x,
1210182,-1.45588,9.02837,-15.000828,2.7744079,12.256176,-15.876626,206.70001,-105.3,-18.900002,,,,,x,
1210204,-1.5067221,7.2847834,-16.561382,3.2622159,12.073248,-13.445208,201.90001,-95.700005,-17.7,,,,,x,
1210224,0.26557547,11.238508,-16.602057,-1.94361,11.006167,-5.838452,211.50002,-93.3,-17.1,,,,,x,
1210266,-5.442503,9.606774,-16.516521,-1.509156,25.678518,-16.448277,221.1,-78.9,-14.1,,,,,x,
1210286,-5.364146,11.655414,-19.599949,-3.2317278,19.93153,-6.25004,216.3,-71.700005,-8.1,,,,,x,
1210306,-4.188795,13.356532,-19.236279,-10.259212,8.53664,-6.143332,221.1,-69.3,-9.900001,,,,,x,
1210326,-10.238413,10.081699,-13.062844,-13.635757,-1.150922,-14.100699,233.1,-62.100002,-12.3,,,,,x,
1210346,-10.526718,8.947022,-12.370793,-8.68908,6.204308,-7.705842,237.90001,-66.9,-11.700001,,,,,x,
1210366,-12.254155,10.130149,-8.400918,-14.878143,0.373478,-6.6158957,240.3,-57.300003,-12.900001,,,,,x,
1210386,-13.086172,11.995757,-7.7710733,-10.152504,11.936051,-2.942092,247.50002,-62.100002,-13.500001,,,,,x,
1210406,-11.297127,13.446254,-9.09297,-9.428413,12.469592,-1.6234859,245.1,-74.100006,-12.900001,,,,,x,
1210426,-11.514851,11.414961,-5.860007,-14.702838,1.532022,-6.4786997,242.70001,-66.9,-14.1,,,,,x,
1210446,-14.860264,9.623522,-3.2114296,-10.754642,7.6067557,-3.917708,249.90001,-71.700005,-17.1,,,,,x,
1210466,-10.797677,15.909407,-5.727219,-10.1372595,8.6509695,5.213448,240.3,-74.100006,-17.1,,,,,x,
1210486,-10.331723,15.311264,-0.99291736,-14.016858,0.07622,0.487808,237.90001,-81.3,-16.5,,,,,x,
1210506,-12.915701,11.212789,-0.07536601,-9.923843,7.263766,-0.182928,233.1,-86.100006,-18.300001,,,,,x,
1210530,-9.429126,16.560186,-1.8811597,-9.253108,3.521364,9.740916,230.70001,-90.9,-18.900002,,,,,x,
1210550,-8.601295,14.51992,3.6241484,-10.36592,-0.586894,5.9985137,228.3,-98.100006,-19.5,,,,,x,
1210570,-9.951304,11.844427,1.5085166,-8.6204815,6.36437,7.103704,223.50002,-107.700005,-21.300001,,,,,x,
1210615,-7.103546,14.155053,0.9701879,-3.7424018,-3.437522,9.687562,204.3,-114.9,-23.1,,,,,x,
1210635,-7.9218054,10.718123,0.9217383,-5.846074,-2.2637339,6.646384,192.3,-119.700005,-23.1,,,,,x,
1210655,-7.773466,7.9756384,0.4342518,-4.53509,-4.862836,7.8735256,197.1,-129.3,-24.300001,,,,,x,
1210676,-4.8856316,8.6114645,0.2296869,-2.2865999,-8.53664,11.54733,182.70001,-129.3,-26.7,,,,,x,
1210759,-0.2906975,2.7472706,1.2046599,0.15244,-11.074766,3.650938,161.1,-146.1,-32.100002,,,,,x,
1210805,1.4971519,2.368048,-0.06340315,3.041178,-9.123534,3.8186219,158.70001,-155.70001,-32.7,,,,,x,
1210846,2.3728333,2.652166,-1.7495682,4.984788,-6.0290017,2.980202,151.5,-150.90001,-30.300001,,,,,x,
1210886,3.3567784,3.017033,-3.0888102,3.368924,-4.245454,1.806414,146.70001,-155.70001,-30.900002,,,,,x,
1210939,4.078737,6.866681,-3.5499785,1.6387299,-3.7652678,3.879598,141.90001,-153.3,-29.7,,,,,x,
1210979,2.97935,6.9587955,-3.6618314,0.632626,-0.861286,-0.434454,132.3,-160.5,-30.900002,,,,,,
1210999,2.1144354,6.2996416,-3.7455714,0.541162,0.160062,-0.960372,141.90001,-153.3,-29.7,,,,,,
1211041,1.6783892,8.143119,-4.1283827,2.583858,-0.17530599,1.94361,139.5,-155.70001,-28.500002,,,,,,
1211061,1.6215656,9.807751,-3.9220235,1.798792,-0.07622,2.2103798,132.3,-158.1,-27.900002,,,,,,
1211081,0.995908,10.267124,-4.2300673,0.015244,0.68597996,-0.091464,132.3,-158.1,-29.1,,,,,,
1211103,0.39597064,8.378787,-4.3449106,-0.358234,0.327746,-2.309466,134.70001,-155.70001,-27.300001,,,,,,
1211124,0.3576895,8.30701,-4.157692,0.830798,-0.388722,-1.3414719,132.3,-160.5,-29.7,,,,,,
1211145,0.39178365,8.627016,-3.9064717,0.967994,-0.891774,-0.777444,132.3,-153.3,-28.500002,,,,,,
1211165,0.6878644,9.303515,-3.2198036,0.81555396,-1.013726,0.137196,134.70001,-155.70001,-27.900002,,,,,,
1211186,0.1531246,9.055286,-2.7921314,-1.56251,0.7622,-0.67835796,129.90001,-158.1,-27.300001,,,,,,
1211206,0.16748004,9.02837,-2.9213302,-1.56251,1.204276,-0.754578,129.90001,-160.5,-27.300001,,,,,,
1211226,-0.2936882,8.472097,-2.807683,-1.318606,1.44818,-0.92988396,134.70001,-155.70001,-27.900002,,,,,,
1211246,-0.5030382,8.827992,-2.7574391,-0.769822,1.250008,-0.594516,132.3,-150.90001,-28.500002,,,,,,
1211266,-0.72794,8.706569,-2.7454762,-0.655492,0.868908,-0.853664,134.70001,-153.3,-27.300001,,,,,,
1211286,-0.63522786,8.84474,-2.7634206,-0.182928,0.64787,-0.663114,144.3,-155.70001,-27.900002,,,,,,
1211310,-0.57601166,9.41477,-3.0385664,0.17530599,0.289636,-0.56402797,139.5,-158.1,-28.500002,,,,,,
1211330,-0.891233,8.991285,-3.0523236,0.099086,-0.289636,-0.655492,137.1,-153.3,-29.1,,,,,,
