time,sensor_accX,sensor_accY,sensor_accZ,sensor_gyroX,sensor_gyroY,sensor_gyroZ,sensor_magX,sensor_magY,sensor_magZ,label_Boxing_slip_left,label_Boxing_slip_right,label_Boxing_pullback,label_Boxing_roll_left,label_Boxing_roll_right,label_Boxing_recording_cut
1077584,0.9869359,8.009134,-3.9226215,0.388722,-0.312502,-2.309466,122.700005,-155.70001,-26.1,,,,,,
1077604,1.0317966,7.6580243,-3.5386138,-0.07622,-0.137196,-1.3795819,120.3,-162.90001,-27.300001,,,,,,
1077624,0.94087887,7.6053877,-3.5954373,-0.548784,0.213416,-0.41921,117.9,-158.1,-27.300001,,,,,,
1077646,1.1197237,8.5791645,-3.752749,0.022866,0.22865999,0.663114,127.50001,-158.1,-25.500002,,,,,,
1077666,1.0431614,8.391946,-3.647476,-0.358234,-0.67073596,0.03811,122.700005,-153.3,-24.900002,,,,,,
1077688,1.0258152,7.902665,-3.13726,-0.20579399,-0.907018,0.487808,125.100006,-162.90001,-27.900002,,,,,,
1077708,1.0389743,8.961378,-3.2335608,0.274392,-0.594516,0.67073596,125.100006,-160.5,-26.1,,,,,,
1077728,0.88046646,9.619335,-3.2700477,-0.259148,-0.30488,0.320124,117.9,-160.5,-27.300001,,,,,,
1077749,0.9965062,10.589523,-3.4566681,-0.503052,-0.388722,-0.327746,125.100006,-153.3,-27.900002,,,,,,
1077769,0.5873764,9.226356,-3.0301924,-1.250008,-0.518296,-1.692084,125.100006,-158.1,-26.7,,,,,,
1077789,0.0077758585,8.372806,-2.589361,-1.1356779,-0.28201398,-1.3872039,127.50001,-160.5,-27.300001,,,,,,
1077813,-0.061608724,9.057081,-2.7502613,-0.449698,0.19055,-0.731712,125.100006,-160.5,-26.7,,,,,,
1077833,-0.38101706,9.319666,-2.8974047,-0.55640596,0.129574,-1.059458,122.700005,-153.3,-27.300001,,,,,,
1077855,-0.30923992,9.448865,-2.668316,-0.19055,-0.23628199,-1.3719599,125.100006,-158.1,-26.1,,,,,,
1077875,-0.34692293,9.598998,-2.5821831,-0.30488,0.068598,-1.585376,127.50001,-158.1,-27.900002,,,,,,
1077896,-0.35589507,9.272412,-2.6180718,-0.67835796,0.525918,-1.8597679,125.100006,-158.1,-27.900002,,,,,,
1077957,-0.4372425,8.671279,-2.7197561,-0.11432999,1.44818,-0.64787,132.3,-155.70001,-26.7,,,,,,
1077977,-0.31821206,8.804067,-2.7855518,0.327746,1.18141,-0.41158798,134.70001,-155.70001,-26.7,,,,,,
1078001,-0.28112718,8.954201,-2.9721725,0.541162,0.907018,-0.45731997,132.3,-155.70001,-28.500002,,,,,,
1078021,-0.31701577,9.045716,-2.9608078,0.602138,0.49543,-0.510674,132.3,-155.70001,-27.300001,,,,,,
1078041,-0.31402507,9.127064,-3.212626,0.358234,-0.007622,-0.785066,129.90001,-158.1,-26.7,,,,,,
1078061,-0.41989636,8.878236,-3.250907,0.213416,-0.41158798,-0.754578,129.90001,-158.1,-24.900002,,,,,,
1078083,-0.30864176,9.274207,-3.4106112,0.548784,-0.853664,-0.53354,132.3,-155.70001,-26.7,,,,,,
1078104,-0.19918162,9.167139,-3.2772253,0.182928,-0.899396,-0.579272,127.50001,-158.1,-26.1,,,,,,
1078124,-0.12321745,9.1731205,-3.2574866,-0.007622,-0.769822,-0.53354,132.3,-153.3,-26.1,,,,,,
1078144,-0.13817103,9.037342,-3.3322544,-0.274392,-0.55640596,-0.518296,132.3,-158.1,-26.1,,,,,,
1078164,-0.17166704,8.993678,-3.326273,-0.23628199,-0.525918,-0.503052,129.90001,-153.3,-26.1,,,,,,
1078206,0.09570287,8.847731,-3.162382,-0.510674,-0.56402797,-0.663114,132.3,-153.3,-26.7,,,,,,
1078227,0.17106889,8.744252,-3.2269814,-0.503052,-0.327746,-0.68597996,129.90001,-158.1,-27.300001,,,,,,
1078247,0.38759664,8.99966,-3.4464998,-0.20579399,-0.274392,-0.731712,134.70001,-148.5,-27.300001,,,,,,
1078267,0.62805015,8.617446,-3.1719522,-0.579272,-0.312502,-1.06708,132.3,-155.70001,-25.500002,,,,,,
1078288,0.6687238,8.573183,-3.1025677,-0.525918,-0.160062,-1.021348,132.3,-150.90001,-26.1,,,,,,
1078328,0.6154891,8.618044,-3.0277996,-0.83842,0.64787,-1.18141,132.3,-148.5,-26.7,,,,,,
1078348,0.5556748,8.771169,-3.1103435,-0.67835796,0.769822,-1.33385,144.3,-146.1,-26.1,,,,,,
1078369,0.19678904,8.562417,-3.075053,-0.586894,0.81555396,-1.928366,139.5,-155.70001,-27.300001,,,,,,
1078389,0.20097604,9.120484,-3.4494905,0.144818,0.746956,-1.928366,141.90001,-150.90001,-26.7,,,,,,
1078409,0.02213129,9.092371,-3.5302398,0.198172,0.35061198,-2.2637339,139.5,-150.90001,-26.7,,,,,,
1078429,-0.023925718,9.072035,-3.4656403,0.30488,-0.060976,-2.2256238,141.90001,-148.5,-26.1,,,,,,
1078453,-0.078954875,8.65154,-3.4249666,-0.007622,-0.251526,-1.966476,144.3,-143.70001,-25.500002,,,,,,
1078473,-0.15252645,8.612062,-3.5751004,-0.022866,-0.327746,-1.547266,156.3,-146.1,-26.7,,,,,,
1078493,-0.2003779,8.659914,-3.5930448,0.15244,-0.586894,-0.99086,151.5,-146.1,-26.7,,,,,,
1078513,0.0077758585,9.393835,-3.8215353,0.68597996,-0.716468,-0.3811,153.90001,-153.3,-27.300001,,,,,,
1078533,0.11962859,9.755114,-3.8017967,0.67073596,-1.1432999,-0.373478,158.70001,-153.3,-27.300001,,,,,,
1078554,-0.051440295,9.570886,-3.3621616,0.33536798,-1.265252,-0.358234,146.70001,-155.70001,-24.900002,,,,,,
1078574,-0.64898515,9.775451,-3.1187174,-0.060976,-0.579272,-0.541162,156.3,-150.90001,-25.500002,,,,,,
1078594,-1.1556122,9.849022,-3.0810344,-0.739334,-0.182928,-1.150922,156.3,-146.1,-27.300001,,,,,,
1078614,-1.4295617,9.506885,-2.736504,-1.021348,0.060976,-1.692084,156.3,-148.5,-27.300001,,,,,,
1078637,-1.9068798,8.694606,-2.5702202,-1.3490939,0.754578,-1.996964,156.3,-143.70001,-26.7,,,,,,
1078657,-2.5241632,8.144913,-2.6126885,-0.7622,1.044214,-1.71495,156.3,-143.70001,-26.1,,,,,,
1078677,-2.7723927,8.739467,-2.7580373,0.22865999,1.211898,-0.70122397,158.70001,-143.70001,-26.1,,,,,,
1078699,-2.9757612,8.09108,-2.6665213,0.07622,0.03811,-1.089946,163.5,-148.5,-26.7,,,,,,
1078720,-3.125297,8.051004,-2.7705982,0.503052,-0.015244,-0.434454,153.90001,-146.1,-26.1,,,,,,
1078741,-2.9530318,8.166446,-2.932695,0.47256398,0.137196,-0.106708,158.70001,-141.3,-24.300001,,,,,,
1078761,-2.0952947,8.857301,-2.9733686,0.480186,-0.106708,0.33536798,161.1,-146.1,-26.1,,,,,,
1078781,-1.6221638,8.734084,-2.844768,-0.388722,0.327746,0.251526,158.70001,-148.5,-26.1,,,,,,
1078801,-1.0210301,9.217383,-2.9356856,-0.518296,0.846042,0.69360197,156.3,-148.5,-26.1,,,,,,
1078885,-0.006579573,9.414172,-3.325675,0.030488,1.48629,0.022866,158.70001,-146.1,-27.300001,,,,,,
1078915,-0.033496007,9.585839,-3.701907,0.144818,1.3414719,-0.655492,151.5,-148.5,-24.900002,,,,,,
1078935,-0.41989636,8.762197,-3.8269188,-0.106708,1.082324,-0.93750596,158.70001,-148.5,-25.500002,,,,,,
1078975,-0.4874865,8.604286,-4.2109265,0.426832,-0.16768399,0.259148,158.70001,-143.70001,-23.7,,,,x,,
1078995,-0.44621465,8.684438,-4.229469,0.251526,-0.144818,0.274392,151.5,-146.1,-24.900002,,,,x,,
1079019,-0.09211402,8.858498,-4.246815,-0.327746,-0.03811,-0.106708,153.90001,-148.5,-24.900002,,,,x,,
1079039,0.21652776,8.964967,-4.075148,-0.60976,0.442076,-0.17530599,153.90001,-141.3,-26.1,,,,x,,
1079059,0.40972793,8.954799,-3.9938006,-1.211898,1.272874,-0.35061198,153.90001,-146.1,-24.900002,,,,x,,
1079080,0.39836323,8.893189,-4.100868,-1.6463519,2.17227,-0.55640596,153.90001,-148.5,-24.300001,,,,x,,
1079100,0.51859,8.743654,-4.2516003,-1.707328,2.873494,-0.960372,153.90001,-141.3,-26.7,,,,x,,
1079120,0.92233646,8.578567,-4.342518,-2.012208,3.422278,-1.6082419,156.3,-143.70001,-23.7,,,,x,,
1079140,1.3864954,7.9917884,-4.5416994,-2.454284,4.30643,-2.7591639,161.1,-143.70001,-24.300001,,,,x,,
1079163,1.9248241,7.4080005,-4.688843,-2.2865999,4.413138,-3.2850819,158.70001,-138.90001,-27.300001,,,,x,,
1079183,2.149726,6.5993114,-4.221693,-3.2774599,4.26832,-4.519846,163.5,-138.90001,-27.300001,,,,x,,
1079203,2.6390069,5.92341,-4.1068497,-2.446662,4.72564,-5.79272,168.3,-141.3,-26.7,,,,x,,
1079223,3.0218184,5.794211,-3.4578645,-2.911604,4.80186,-6.791202,168.3,-134.1,-24.900002,,,,x,,
1079244,3.2485144,5.429942,-3.4147983,-3.01069,6.5091877,-8.391822,175.5,-136.5,-23.7,,,,x,,
1079264,3.57211,5.0848136,-3.1701577,-3.3155699,6.875044,-9.481768,180.3,-134.1,-25.500002,,,,x,,
1079286,2.8094776,2.7496634,-1.7364091,-5.464974,7.6219997,-12.408616,189.90001,-126.9,-24.300001,,,,x,,
1079307,2.4452085,1.8117751,-0.71597713,-5.403998,8.468041,-12.599166,209.1,-122.100006,-24.900002,,,,x,,
1079327,1.426571,1.1825286,-0.2548089,-5.510706,9.550365,-13.155572,211.50002,-114.9,-24.900002,,,,x,,
1079348,-0.5096178,0.60890955,0.22011662,-4.207344,9.504634,-13.193682,221.1,-105.3,-24.900002,,,,x,,
1079389,-0.5299547,4.3616586,2.1515203,-3.1936178,4.4969797,-11.798856,235.50002,-102.9,-24.300001,,,,x,,
1079411,-2.9608078,2.7819629,2.4673398,-0.70122397,5.434486,-13.551916,245.1,-88.5,-22.5,,,,x,,
1079431,-4.313209,5.784641,3.0565107,1.8826339,3.871976,-10.716532,254.70001,-83.700005,-21.900002,,,,x,,
1079452,-5.3210797,6.925299,2.380609,2.942092,4.359784,-10.144882,257.1,-76.5,-21.900002,,,,x,,
1079472,-9.361536,7.417571,1.3165127,4.855214,1.1280559,-10.152504,261.90002,-69.3,-20.7,,,,x,,
1079492,-10.303013,7.967264,1.66523,5.114362,-3.437522,-6.3872356,264.30002,-64.5,-18.900002,,,,x,,
1079512,-11.794183,8.458938,1.9050853,4.504602,-5.647902,-3.92533,269.1,-59.7,-19.5,,,,x,,
1079532,-13.541957,9.526025,0.14295617,5.236314,-6.3719916,-1.059458,276.30002,-54.9,-20.7,,,,x,,
1079556,-12.424625,14.131726,-0.42348522,5.0533857,-12.00465,2.32471,271.5,-59.7,-23.7,,,,x,,
1079577,-16.509344,12.071721,-2.095893,3.978684,-9.458901,-0.579272,273.90002,-54.9,-22.5,,,,x,,
1079597,-13.849402,11.612946,-3.6139798,6.0899777,-14.740948,3.064044,273.90002,-57.300003,-23.1,,,,x,,
1079620,-12.375578,14.178381,-0.631639,5.37351,-17.751638,5.419242,278.7,-54.9,-27.300001,,,,x,,
1079641,-13.528798,15.214963,-3.0026777,4.0777698,-10.990924,5.60217,273.90002,-64.5,-27.900002,,,,x,,
1079661,-12.386345,14.956565,-3.693533,4.443626,-14.634239,5.586926,269.1,-66.9,-29.7,,,,x,,
1079681,-13.339187,11.605768,-1.7974197,3.910086,-13.948259,4.5731997,266.7,-66.9,-31.500002,,,,x,,
1079701,-13.518031,12.44556,-4.660132,5.419242,-7.294254,8.673836,266.7,-69.3,-31.500002,,,,x,,
1079722,-11.473578,14.806431,-6.1441245,5.205826,-11.295804,9.474146,257.1,-76.5,-31.500002,,,,x,,
1079742,-11.044112,13.397804,-4.660132,3.2698379,-12.454348,6.981752,252.3,-83.700005,-32.100002,,,,x,,
1079762,-11.715228,11.105123,-7.5461717,4.4207597,-2.431418,6.44059,245.1,-88.5,-34.5,,,,x,,
1079782,-10.834762,10.231833,-8.959583,5.800342,-1.3414719,6.638762,247.50002,-95.700005,-33.9,,,,x,,
1079802,-7.957694,11.938335,-9.325647,2.416174,-10.358297,11.150986,233.1,-100.50001,-33.9,,,,x,,
1079822,-7.8476357,12.150078,-8.701186,2.05794,-9.352194,11.128119,235.50002,-102.9,-33.300003,,,,x,,
1079842,-6.6160593,11.626703,-9.262244,3.833866,-6.257662,10.015307,221.1,-110.100006,-34.5,,,,x,,
1079865,-5.497532,10.986092,-9.439893,2.919226,-3.650938,11.50922,213.90001,-114.9,-34.5,,,,x,,
1079885,-4.581775,12.203313,-10.125364,2.13416,-0.182928,12.172334,197.1,-122.100006,-33.300003,,,,x,,
1079925,-2.8561327,9.443481,-10.2312355,-0.503052,-1.75306,11.250072,192.3,-131.70001,-34.5,,,,x,,
1079945,-1.5300497,10.2204685,-8.596511,-2.309466,-2.042696,12.515324,170.70001,-134.1,-33.9,,,,x,,
1079967,-1.3643641,8.747841,-7.1639585,-1.8673899,2.370442,9.154022,163.5,-138.90001,-35.7,,,,x,,
1079987,-0.88046646,7.259661,-7.2614555,0.442076,5.5640597,6.9588857,163.5,-143.70001,-35.100002,,,,x,,
1080007,-0.049047723,5.6040015,-5.310313,-0.731712,4.504602,5.9985137,144.3,-148.5,-32.100002,,,,x,,
1080027,0.029309006,5.242125,-4.5159793,-0.80030996,5.5030837,6.227174,146.70001,-148.5,-33.300003,,,,x,,
1080067,0.16209674,4.3114147,-3.8801534,-1.158544,10.007686,5.4878397,137.1,-155.70001,-32.7,,,,x,,
1080087,0.6663313,3.1940835,-1.9762644,-0.91463995,8.23176,4.53509,132.3,-165.3,-29.7,,,,x,,
1080127,1.4546837,3.1019695,-0.7757914,-1.8750119,11.211962,1.821658,122.700005,-162.90001,-32.100002,,,,x,,
1080147,1.6365192,2.8298144,-0.64240557,-2.004586,11.029034,0.92988396,127.50001,-165.3,-30.900002,,,,x,,
1080168,2.4840877,2.590557,0.099291734,-2.2103798,10.762263,0.640248,120.3,-160.5,-30.300001,,,,x,,
1080188,2.8962083,3.6163723,0.062206868,-2.355198,11.631172,1.4024479,117.9,-162.90001,-31.500002,,,,x,,
1080208,2.5803888,3.6839626,-0.112450875,-3.2545938,12.370505,0.49543,117.9,-165.3,-29.7,,,,x,,
1080230,2.8393848,4.7630124,-0.15491903,-2.7058098,11.440621,0.594516,105.9,-167.70001,-29.1,,,,x,,
1080250,3.0260053,5.7242284,0.086132586,-2.812518,10.373542,-0.17530599,108.3,-158.1,-30.900002,,,,x,,
1080274,3.0672772,7.007245,0.2380609,-2.179892,9.192132,-0.861286,115.50001,-162.90001,-30.900002,,,,x,,
1080294,2.6174736,7.8721595,0.16927446,-1.814036,8.407065,-1.745438,110.700005,-165.3,-29.1,,,,x,,
1080315,2.1688664,8.31658,0.22250919,-1.303362,7.118948,-3.033556,113.100006,-158.1,-30.900002,,,,x,,
1080336,1.1400605,8.805263,-0.037084863,-0.198172,6.349126,-3.917708,115.50001,-155.70001,-30.900002,,,,x,,
1080356,0.08134744,8.563015,-0.5467027,-0.007622,4.45887,-4.367406,120.3,-165.3,-29.7,,,,x,,
1080376,-0.2075556,8.385366,-0.51978624,1.1128119,2.926848,-3.445144,125.100006,-162.90001,-27.900002,,,,x,,
1080398,-0.66453683,9.604382,-0.98514146,2.088428,2.530504,-2.050318,125.100006,-160.5,-28.500002,,,,x,,
1080419,-1.0736667,10.826387,-1.4325525,1.440558,1.8902559,-1.775926,127.50001,-153.3,-28.500002,,,,x,,
1080439,-1.0640963,11.057869,-1.7567459,0.87653,0.82317597,-2.888738,132.3,-155.70001,-29.1,,,,x,,
1080459,-0.9911229,9.713841,-1.3224941,0.503052,-0.449698,-2.964958,134.70001,-165.3,-26.1,,,,x,,
1080479,-0.6172835,9.6480465,-1.3852991,0.121952,-0.22865999,-1.29574,129.90001,-155.70001,-27.900002,,,,x,,
1080499,-0.3134269,10.1558695,-1.6873614,0.053354,-0.289636,-0.11432999,129.90001,-162.90001,-29.1,,,,x,,
1080523,-0.31940836,9.348974,-1.8183546,-0.46494198,-0.846042,-0.19055,137.1,-153.3,-27.300001,,,,x,,
1080543,-0.14116174,9.283179,-2.037275,0.030488,-1.493912,-0.16768399,137.1,-158.1,-27.900002,,,,,,
1080583,0.25720146,9.262842,-2.2478213,0.358234,-2.179892,-0.19055,134.70001,-155.70001,-27.900002,,,,,,
1080603,0.30086592,9.48894,-2.4523861,0.243904,-2.2332458,-0.373478,132.3,-160.5,-26.7,,,,,,
1080626,0.32479164,9.12826,-2.3770201,0.15244,-2.2103798,-0.69360197,134.70001,-153.3,-27.300001,,,,,,
1080646,0.33196935,9.124073,-2.455975,0.34298998,-1.8521459,-0.487808,129.90001,-153.3,-29.1,,,,,,
1080668,0.30445477,9.091175,-2.4930599,0.365856,-1.478668,-0.396344,134.70001,-158.1,-28.500002,,,,,,
1080688,0.23566833,9.0110235,-2.5032284,0.26677,-1.204276,-0.30488,134.70001,-160.5,-28.500002,,,,,,
1080708,0.07476787,9.022986,-2.740093,0.327746,-0.80030996,-0.106708,137.1,-158.1,-27.300001,,,,,,
1080728,0.020935005,9.325048,-2.903984,0.426832,-0.868908,-0.060976,137.1,-155.70001,-27.900002,,,,,,
1080748,-0.066992015,9.511071,-2.8609178,0.182928,-1.089946,-0.33536798,137.1,-153.3,-28.500002,,,,,,
1080768,-0.018542431,9.475183,-2.6970267,0.068598,-1.33385,-0.503052,134.70001,-155.70001,-27.300001,,,,,,
1080832,-0.025122005,9.225159,-2.4793026,-0.160062,-0.785066,-0.091464,139.5,-148.5,-29.1,,,,,,
1080852,0.015551717,9.185681,-2.4697323,-0.060976,-0.716468,-0.19055,129.90001,-158.1,-27.900002,,,,,,
1080872,-0.014355431,8.92848,-2.4212828,0.11432999,-0.67835796,-0.274392,139.5,-155.70001,-27.900002,,,,,,
1080892,0.08732887,9.114503,-2.4440122,0.518296,-0.518296,-0.137196,137.1,-150.90001,-27.300001,,,,,,
1080912,0.04246815,9.219177,-2.6144829,0.663114,-0.312502,-0.243904,137.1,-155.70001,-29.1,,,,,,
1080932,-0.09510473,9.021193,-2.635418,0.49543,-0.213416,-0.34298998,139.5,-153.3,-28.500002,,,,,,
1080954,0.029907148,9.306506,-2.8005054,0.69360197,-0.099086,-0.22865999,139.5,-153.3,-29.1,,,,,,
1080976,-0.07476787,8.995472,-2.799309,0.091464,-0.060976,-0.30488,139.5,-150.90001,-28.500002,,,,,,
1080996,-0.117834166,9.201832,-2.9380782,0.56402797,0.060976,-0.099086,134.70001,-158.1,-27.300001,,,,,,
1081018,-0.11005831,9.27301,-2.932097,0.274392,-0.091464,-0.510674,134.70001,-155.70001,-27.900002,,,,,,
1081039,-0.10347874,9.180298,-2.986528,0.091464,-0.129574,-0.67073596,137.1,-158.1,-26.1,,,,,,
1081060,-0.02033686,9.08938,-2.820244,0.0,-0.274392,-0.68597996,139.5,-150.90001,-28.500002,,,,,,
1081080,0.059814297,9.099549,-2.790935,-0.198172,-0.17530599,-0.67073596,132.3,-155.70001,-27.300001,,,,,,
1081100,0.008972145,9.26344,-2.6707084,-0.251526,0.015244,-0.64787,137.1,-153.3,-29.1,,,,,,
1081120,-0.036486723,9.223963,-2.7377005,-0.426832,0.121952,-0.983238,137.1,-153.3,-27.900002,,,,,,
1081140,-0.07177716,8.920704,-2.530743,-0.442076,0.099086,-1.06708,146.70001,-155.70001,-27.900002,,,,,,
1081163,-0.07835673,9.254468,-2.5971367,-0.121952,0.35061198,-0.846042,137.1,-153.3,-27.300001,,,,,,
1081183,-0.24822934,9.167737,-2.5259578,-0.320124,0.3811,-0.846042,139.5,-155.70001,-27.300001,,,,,,
1081203,-0.36546534,8.906947,-2.5044246,-0.312502,0.30488,-0.708846,141.90001,-146.1,-29.1,,,,,,
1081224,-0.32359535,9.083399,-2.597735,-0.053354,0.30488,-0.34298998,141.90001,-153.3,-29.1,,,,,,
1081245,-0.30266035,9.1294565,-2.6916435,0.03811,0.083841994,-0.251526,141.90001,-150.90001,-28.500002,,,,,,
1081268,-0.24404234,9.186279,-2.6790824,0.099086,-0.007622,-0.17530599,153.90001,-153.3,-28.500002,,,,,,
1081289,-0.17346147,9.230542,-2.7012136,-0.07622,0.060976,-0.106708,139.5,-155.70001,-27.900002,,,,,,
1081310,-0.21832219,9.159364,-2.7221487,-0.198172,0.182928,-0.144818,137.1,-153.3,-27.300001,,,,,,
1081330,-0.2045649,9.085792,-2.807683,-0.19055,0.221038,-0.221038,144.3,-150.90001,-27.900002,,,,,,
1081350,-0.21652776,9.067249,-2.748467,-0.091464,0.198172,-0.16768399,141.90001,-150.90001,-26.7,,,,,,
1081370,-0.2045649,9.082203,-2.7048025,-0.144818,0.182928,-0.17530599,151.5,-153.3,-25.500002,,,,,,
1081390,-0.20994818,9.294543,-2.7753835,-0.060976,0.30488,-0.28201398,144.3,-153.3,-26.1,,,,,,
1081410,-0.27993092,9.203028,-2.9255173,-0.16768399,0.28201398,-0.55640596,144.3,-158.1,-27.300001,,,,,,
1081430,-0.2338739,8.985304,-2.8058887,-0.045732,0.129574,-0.47256398,141.90001,-158.1,-26.7,,,,,,
1081450,-0.18422803,9.109119,-2.8250291,-0.030488,0.243904,-0.213416,144.3,-153.3,-26.7,,,,,,
1081470,-0.2601922,9.161756,-2.8357959,-0.17530599,0.28201398,-0.22865999,137.1,-155.70001,-28.500002,,,,,,
1081492,-0.2757439,9.156373,-2.886638,-0.274392,0.213416,-0.34298998,139.5,-150.90001,-26.7,,,,,,
1081516,-0.19260204,9.0188,-2.7843556,-0.34298998,0.15244,-0.510674,139.5,-150.90001,-27.900002,,,,,,
1081536,-0.086132586,9.25387,-2.7771778,-0.30488,0.20579399,-0.41921,141.90001,-148.5,-26.1,,,,,,
1081556,-0.21592961,9.002051,-2.7622242,-0.72409,0.182928,-0.487808,141.90001,-148.5,-27.900002,,,,,,
1081580,-0.30983806,8.917115,-2.7801685,-0.320124,0.221038,-0.30488,139.5,-155.70001,-27.300001,,,,,,
1081600,-0.20277047,9.197046,-2.7299244,-0.007622,0.106708,-0.274392,139.5,-153.3,-25.500002,,,,,,
1081620,-0.22789247,9.092371,-2.7418873,-0.137196,0.060976,-0.35061198,149.1,-155.70001,-26.7,,,,,,
1081640,-0.29309005,9.082203,-2.8106737,0.0,0.022866,-0.33536798,146.70001,-150.90001,-27.900002,,,,,,
1081664,-0.26677176,9.081605,-2.8848436,0.03811,-0.15244,-0.297258,146.70001,-150.90001,-26.1,,,,,,
1081684,-0.18123733,8.9865,-2.857329,-0.015244,-0.23628199,-0.23628199,151.5,-148.5,-26.7,,,,,,
1081704,-0.08673073,8.932069,-2.8124683,-0.091464,-0.19055,-0.07622,141.90001,-150.90001,-26.1,,,,,,
1081724,0.01016843,9.143811,-2.8256273,-0.160062,-0.07622,-0.03811,146.70001,-153.3,-26.7,,,,,,
1081748,0.21353704,9.317871,-2.9093673,-0.160062,-0.015244,-0.243904,141.90001,-153.3,-26.1,,,,,,
1081768,0.22250919,8.789711,-2.698821,-0.525918,-0.099086,-0.64787,144.3,-153.3,-26.7,,,,,,
1081790,0.41690564,8.684438,-2.6431937,-0.045732,-0.083841994,-0.525918,141.90001,-146.1,-26.1,,,,,,
1081810,0.64419997,9.192261,-2.8082812,0.53354,-0.26677,-0.396344,144.3,-160.5,-27.300001,,,,,,
1081832,0.95523435,8.970948,-2.907573,0.45731997,-0.93750596,-0.716468,144.3,-150.90001,-28.500002,,,,x,,
1081852,1.2483244,8.64496,-2.9972944,0.41158798,-1.18141,-0.82317597,149.1,-155.70001,-26.7,,,,x,,
1081872,1.681978,9.036146,-3.5655303,0.579272,-1.021348,-0.632626,149.1,-148.5,-25.500002,,,,x,,
1081892,1.866206,8.90575,-3.9734638,0.198172,-1.3490939,-1.455802,144.3,-150.90001,-26.7,,,,x,,
1081916,2.1622868,8.546267,-3.9710712,-0.26677,-1.48629,-2.05794,149.1,-150.90001,-26.1,,,,x,,
1081936,2.0438545,7.5587325,-3.8185446,-1.760682,-0.358234,-3.1936178,156.3,-146.1,-27.900002,,,,x,,
1081956,2.0324898,6.9552064,-4.4824834,-1.173788,1.67684,-3.399412,153.90001,-148.5,-27.900002,,,,x,,
1081979,2.0151436,7.166351,-4.836584,-1.684462,1.935988,-3.361302,153.90001,-148.5,-28.500002,,,,x,,
1082024,2.6539605,7.940946,-5.832492,-2.545748,6.341504,-5.8918056,165.90001,-143.70001,-28.500002,,,,x,,
1082044,2.5062191,6.5921335,-5.0190177,-3.932952,6.166198,-8.704324,170.70001,-143.70001,-27.300001,,,,x,,
1082064,2.2232974,5.06986,-4.0697646,-4.298808,7.5000477,-9.5275,173.1,-136.5,-26.7,,,,x,,
1082106,1.3183072,2.5983331,-3.8628073,-6.8826656,13.651002,-11.24245,194.70001,-136.5,-28.500002,,,,x,,
1082126,0.074169725,1.2040617,-3.9387715,-5.0838737,13.734843,-10.800374,194.70001,-122.100006,-27.300001,,,,x,,
1082148,-0.7393047,1.4959556,-2.920134,-4.428382,11.39489,-8.056454,206.70001,-124.50001,-25.500002,,,,x,,
1082168,-1.3506068,1.6347247,-1.4983481,-4.5122237,10.083906,-8.490908,201.90001,-117.3,-24.300001,,,,x,,
1082208,-3.8484519,4.763611,-0.43365365,-0.868908,9.22262,-6.981752,225.90001,-107.700005,-22.5,,,,x,,
1082230,-4.334742,6.8295965,0.7016217,-0.899396,6.4634557,-8.544262,230.70001,-102.9,-22.5,,,,x,,
1082250,-4.3245735,6.5700026,1.3589808,1.6082419,6.006136,-10.70891,237.90001,-90.9,-20.7,,,,x,,
1082272,-6.13276,7.0820127,3.0152388,-0.792688,3.528986,-10.343054,237.90001,-98.100006,-21.900002,,,,x,,
1082334,-8.410488,8.374599,3.9878192,0.92988396,-4.756128,-11.181474,259.5,-76.5,-21.900002,,,,x,,
1082354,-8.880629,8.897975,3.0577068,1.6082419,-5.686012,-7.118948,257.1,-74.100006,-22.5,,,,x,,
1082398,-11.431708,11.142805,1.6646318,3.323192,-10.083906,-1.8902559,269.1,-62.100002,-24.300001,,,,x,,
1082418,-10.009324,12.881009,3.192289,2.919226,-13.780576,-1.6539739,273.90002,-59.7,-26.1,,,,x,,
1082438,-13.285952,10.345481,2.5666316,3.064044,-12.759228,-3.7271578,278.7,-62.100002,-24.900002,,,,x,,
1082458,-12.598087,12.6285925,-0.05084215,5.175338,-12.850692,1.6463519,278.7,-59.7,-29.7,,,,x,,
1082482,-14.09165,13.858375,0.7428936,4.9161897,-14.603752,1.1128119,278.7,-62.100002,-30.900002,,,,x,,
1082502,-14.756785,13.568275,-1.6269488,5.160094,-12.88118,2.995446,278.7,-64.5,-31.500002,,,,x,,
1082523,-15.811312,12.664481,-2.14195,5.419242,-13.7577095,3.155508,273.90002,-64.5,-35.100002,,,,x,,
1082543,-14.961948,14.369188,-4.480689,8.833898,-11.067143,8.033587,269.1,-69.3,-33.9,,,,x,,
1082563,-11.8510065,18.012478,-5.1356554,7.248522,-13.612892,10.36592,261.90002,-69.3,-34.5,,,,x,,
1082583,-13.565285,16.048775,-4.3383307,4.275942,-10.480249,4.38265,261.90002,-81.3,-36.300003,,,,x,,
1082605,-15.554708,12.135723,-7.266839,7.6219997,-1.669218,4.984788,259.5,-78.9,-35.7,,,,x,,
1082625,-11.246882,15.229319,-10.297031,6.791202,-7.073216,11.532085,249.90001,-86.100006,-37.5,,,,x,,
1082645,-10.273106,14.286645,-8.684438,4.024416,-10.769886,8.224138,242.70001,-95.700005,-35.7,,,,x,,
1082668,-8.051602,10.786312,-10.21688,7.4848037,-5.853696,10.586958,235.50002,-98.100006,-36.300003,,,,x,,
1082688,-5.0291862,13.332008,-10.634384,2.621968,-7.4085836,15.861382,223.50002,-107.700005,-35.7,,,,x,,
1082728,-3.9806414,9.124671,-9.328039,2.446662,-4.093014,8.368956,201.90001,-122.100006,-37.5,,,,x,,
1082778,-1.6550616,6.908551,-5.9694667,0.93750596,-1.326228,10.045795,177.90001,-136.5,-39.300003,,,,x,,
1082838,0.099889874,4.040456,-5.1105337,1.516778,4.504602,7.042728,168.3,-148.5,-36.9,,,,x,,
1082898,0.8487649,2.4577694,-3.171354,-0.884152,6.051868,5.655524,146.70001,-148.5,-34.5,,,,x,,
1082935,1.4798057,3.1097453,-1.8470654,-1.5244,7.4543157,7.073216,139.5,-153.3,-34.5,,,,x,,
1082955,1.91645,3.5822783,-1.2136321,-2.2256238,7.789684,5.586926,137.1,-155.70001,-34.5,,,,x,,
1082995,2.5026302,4.157692,-0.023327576,-1.6158639,10.205858,3.559474,122.700005,-160.5,-33.9,,,,x,,
1083015,2.7867482,4.5219607,0.03409415,-1.6387299,10.777508,3.2850819,122.700005,-165.3,-31.500002,,,,x,,
1083035,3.2473183,6.2810993,-0.22789247,-1.783548,11.951296,1.935988,120.3,-155.70001,-30.900002,,,,x,,
1083055,3.0900066,6.3367267,-0.3828115,-1.661596,11.936051,0.899396,115.50001,-162.90001,-32.7,,,,x,,
1083075,2.8657029,5.75593,-0.24164976,-1.242386,10.968058,-0.251526,113.100006,-160.5,-30.900002,,,,x,,
1083095,3.3872836,6.73509,-0.105273165,-0.20579399,10.487872,0.274392,113.100006,-167.70001,-30.300001,,,,x,,
1083116,2.6725028,7.9517126,-0.3881948,-0.594516,10.388785,-1.775926,110.700005,-160.5,-29.1,,,,x,,
1083178,0.5592637,8.901564,-0.8972145,1.9054999,5.37351,-4.580822,117.9,-160.5,-29.1,,,,x,,
1083199,-0.34034336,9.027174,-1.0946016,1.6158639,3.7271578,-4.093014,125.100006,-158.1,-27.900002,,,,x,,
1083219,-0.25959405,9.642663,-1.1143403,1.478668,2.2942219,-2.7896519,132.3,-155.70001,-27.300001,,,,x,,
1083239,-0.656761,10.118785,-1.7627274,0.442076,2.370442,-2.2408679,129.90001,-158.1,-27.300001,,,,x,,
1083260,-1.3272792,9.771862,-2.2896912,0.129574,1.242386,-2.004586,132.3,-158.1,-26.1,,,,x,,
1083280,-1.0006932,9.460828,-2.2765322,0.251526,-0.47256398,-1.3948259,129.90001,-155.70001,-26.1,,,,x,,
1083300,-0.5658432,9.563109,-2.062397,0.15244,-1.1356779,-0.541162,137.1,-155.70001,-27.300001,,,,x,,
1083324,0.18961132,10.070335,-2.10008,-0.320124,-1.8521459,-0.3811,134.70001,-160.5,-26.1,,,,,,
1083344,0.29608077,9.3567505,-1.6616411,-0.70122397,-2.126538,-0.853664,132.3,-155.70001,-27.900002,,,,,,
1083364,0.46116823,9.119885,-1.5964435,-0.35061198,-1.707328,-0.853664,134.70001,-162.90001,-26.1,,,,,,
1083384,0.41152236,9.109119,-1.6831744,0.015244,-1.303362,-1.089946,134.70001,-155.70001,-26.7,,,,,,
1083404,0.085534446,8.91891,-1.9014965,0.17530599,-0.907018,-1.3490939,139.5,-150.90001,-28.500002,,,,,,
1083428,-0.2338739,9.203028,-2.3883848,0.861286,-0.70122397,-1.493912,139.5,-160.5,-27.900002,,,,,,
1083448,-0.33854893,9.083998,-2.6593437,1.06708,-0.868908,-1.577754,139.5,-153.3,-26.1,,,,,,
1083468,-0.30923992,9.251477,-2.940471,1.25763,-0.64787,-1.326228,139.5,-155.70001,-26.1,,,,,,
1083488,-0.41451308,9.264038,-3.1486247,1.166166,-0.480186,-1.1128119,144.3,-150.90001,-27.900002,,,,,,
1083508,-0.4312611,9.005042,-3.2108314,0.70122397,-0.548784,-0.830798,144.3,-153.3,-26.7,,,,,,
1083551,-0.60232997,9.060072,-3.4907625,0.388722,-0.525918,-0.03811,151.5,-155.70001,-25.500002,,,,,,
1083572,-0.59754485,8.974537,-3.455472,0.434454,-0.983238,0.015244,141.90001,-148.5,-26.1,,,,,,
1083592,-0.2865105,9.181495,-3.3065343,0.41158798,-1.3948259,0.17530599,144.3,-153.3,-26.7,,,,,,
1083612,-0.20576118,9.085792,-3.2072427,0.17530599,-1.3795819,0.160062,146.70001,-155.70001,-25.500002,,,,,,
1083632,-0.20815375,9.107923,-3.0307903,-0.045732,-0.99086,0.213416,141.90001,-150.90001,-27.300001,,,,,,
1083652,-0.4067372,9.085792,-3.061894,-0.221038,-0.731712,0.083841994,141.90001,-155.70001,-26.7,,,,,,
1083675,-0.32897863,8.8704605,-2.887236,-0.259148,-0.884152,0.068598,129.90001,-148.5,-28.500002,,,,,,
1083695,-0.22729433,8.998463,-2.8507495,-0.144818,-0.80793196,0.274392,146.70001,-153.3,-26.7,,,,,,
1083719,-0.23746276,9.042128,-2.7921314,-0.17530599,-0.792688,0.16768399,139.5,-153.3,-26.7,,,,,,
1083739,-0.21054633,9.271814,-2.7819629,-0.099086,-0.754578,0.106708,141.90001,-153.3,-26.1,,,,,,
1083759,-0.20935003,9.244898,-2.91176,-0.365856,-0.7622,-0.23628199,144.3,-160.5,-26.7,,,,,,
1083780,-0.21054633,8.944032,-2.836394,-0.40396598,-0.846042,-0.20579399,141.90001,-150.90001,-27.300001,,,,,,
1083803,-0.09749731,9.145008,-2.8429735,-0.091464,-0.625004,-0.053354,144.3,-160.5,-26.7,,,,,,
1083823,-0.15850788,9.148597,-2.7502613,-0.198172,-0.40396598,-0.07622,144.3,-150.90001,-25.500002,,,,,,
1083843,-0.011364716,9.352564,-2.8477588,-0.221038,-0.213416,-0.22865999,146.70001,-153.3,-27.900002,,,,,,
1083863,-0.01016843,9.09297,-2.7329152,-0.46494198,-0.053354,-0.388722,144.3,-153.3,-26.7,,,,,,
1083884,-0.08374002,8.987098,-2.7065969,-0.35061198,0.17530599,-0.289636,141.90001,-158.1,-26.7,,,,,,
1083904,-0.093310304,9.106129,-2.6796806,-0.198172,0.221038,-0.213416,144.3,-146.1,-26.1,,,,,,
1083924,-0.092712164,9.1294565,-2.5498836,-0.182928,0.213416,-0.23628199,144.3,-150.90001,-27.300001,,,,,,
1083944,-0.06998273,9.291553,-2.5181818,-0.137196,0.33536798,-0.480186,144.3,-150.90001,-24.900002,,,,,,
1083968,-0.21353704,8.954201,-2.5439022,-0.358234,0.289636,-0.69360197,144.3,-150.90001,-25.500002,,,,,,
1083988,-0.36068022,9.042128,-2.6455863,0.099086,0.16768399,-0.57164997,137.1,-150.90001,-28.500002,,,,,,
1084010,-0.4258778,9.015809,-2.5678277,0.358234,-0.30488,-0.41158798,144.3,-150.90001,-26.1,,,,,,
1084030,-0.19320019,9.106129,-2.4212828,0.602138,-0.640248,-0.16768399,141.90001,-158.1,-26.1,,,,,,
1084050,0.06280501,9.143213,-2.346515,0.41921,-0.487808,-0.030488,144.3,-148.5,-26.7,,,,,,
1084072,0.1016843,9.145606,-2.7442799,0.22865999,0.030488,-0.17530599,141.90001,-155.70001,-26.7,,,,,,
1084092,0.12261931,8.982313,-2.761028,0.33536798,0.129574,-0.327746,141.90001,-148.5,-27.300001,,,,,,
1084112,0.086132586,9.186878,-2.987126,0.45731997,0.358234,-0.525918,144.3,-155.70001,-24.900002,,,,,,
1084132,-0.0029907147,8.994276,-2.9015915,0.442076,0.22865999,-0.7622,149.1,-153.3,-25.500002,,,,,,
1084154,0.01016843,9.095961,-2.9255173,0.480186,0.3811,-0.769822,141.90001,-148.5,-24.900002,,,,,,
1084174,-0.11005831,9.104334,-3.0044723,0.30488,0.518296,-0.769822,144.3,-143.70001,-27.300001,,,,,,
1084194,-0.24224791,9.113306,-3.13726,0.274392,0.541162,-0.731712,144.3,-155.70001,-27.300001,,,,,,
1084214,-0.32538977,8.96736,-3.0595014,0.11432999,0.47256398,-0.69360197,146.70001,-158.1,-26.1,,,,,,
1084234,-0.25421077,9.056482,-3.1396525,0.022866,0.41921,-0.56402797,151.5,-153.3,-26.7,,,,,,
1084254,-0.20396675,9.071436,-3.0888102,-0.11432999,0.41921,-0.41921,146.70001,-153.3,-26.1,,,,,,
1084274,-0.2254999,9.062464,-3.1270914,-0.365856,0.365856,-0.33536798,149.1,-148.5,-27.900002,,,,,,
1084294,-0.11065645,8.830983,-3.100773,-0.57164997,0.198172,-0.251526,139.5,-146.1,-26.1,,,,,,
1084314,-0.026916433,8.973939,-3.1719522,-0.160062,0.121952,0.11432999,144.3,-150.90001,-24.900002,,,,,,
1084334,0.026916433,9.275403,-3.0134442,-0.26677,-0.030488,0.198172,144.3,-150.90001,-26.1,,,,,,
1084354,0.03409415,9.601391,-2.7394948,-0.518296,-0.068598,-0.053354,144.3,-148.5,-24.300001,,,,,,
1084374,0.07536601,9.076221,-2.7000175,-1.310984,-0.23628199,-0.960372,146.70001,-150.90001,-26.1,,,,,,
1084395,0.0071777157,8.402114,-2.6366143,-0.92988396,-0.47256398,-1.036592,144.3,-148.5,-26.7,,,,,,
1084415,0.23626648,8.615651,-2.6826713,-0.07622,-0.579272,-0.548784,151.5,-155.70001,-25.500002,,,,,,
1084435,0.3050529,8.675466,-2.7622242,0.28201398,-0.480186,-0.373478,146.70001,-155.70001,-27.300001,,,,,,
1084455,0.49107537,9.113904,-3.1037638,0.663114,-0.3811,-0.15244,149.1,-148.5,-24.900002,,,,,,
1084475,0.5514878,8.960181,-3.5374177,0.221038,-0.243904,-0.259148,149.1,-155.70001,-26.1,,,,,,
1084495,0.61847985,8.891396,-3.6546535,-0.068598,-0.106708,-0.297258,149.1,-146.1,-26.1,,,,,,
1084515,0.7895487,8.803469,-4.0936904,-0.46494198,0.320124,-0.34298998,144.3,-148.5,-23.7,,,,x,,
1084535,0.62745196,8.69341,-4.4920535,-0.95274997,0.72409,-0.33536798,144.3,-150.90001,-26.1,,,,x,,
1084555,0.9241309,8.650344,-4.8168454,-1.204276,0.91463995,-0.69360197,144.3,-143.70001,-23.7,,,,x,,
1084578,1.5133017,8.314187,-4.9185295,-1.8826339,2.004586,-1.684462,149.1,-146.1,-26.1,,,,x,,
1084599,1.9571238,7.669987,-5.044738,-2.309466,3.1783738,-2.55337,149.1,-150.90001,-27.300001,,,,x,,
1084620,2.8441699,7.385271,-5.062682,-2.065562,4.1921,-3.2469718,156.3,-146.1,-25.500002,,,,x,,
1084682,4.438221,5.4078107,-4.5781865,-3.521364,6.890288,-11.265316,165.90001,-143.70001,-26.7,,,,x,,
1084702,4.639795,3.8203392,-3.9130514,-3.483254,7.0503497,-12.340017,177.90001,-134.1,-26.1,,,,x,,
1084722,4.1570935,3.2371497,-3.355582,-3.917708,8.795788,-12.561056,180.3,-122.100006,-24.900002,,,,x,,
1084765,2.108454,1.6867632,-2.802898,-4.253076,9.664696,-15.426928,204.3,-124.50001,-24.900002,,,,x,,
1084820,-2.5175838,1.9966012,0.031103434,-2.59148,7.5610237,-13.178437,240.3,-95.700005,-24.900002,,,,x,,
1084858,-6.7464547,4.208534,0.67291087,-0.56402797,7.9497457,-11.516842,249.90001,-76.5,-21.900002,,,,x,,
1084879,-6.037057,7.5162644,1.4720298,0.708846,2.17227,-8.475664,254.70001,-76.5,-21.900002,,,,x,,
1084919,-10.215086,6.458748,2.0606024,1.06708,3.50612,-8.57475,269.1,-62.100002,-21.900002,,,,x,,
1084961,-11.27978,9.356153,3.4064243,3.917708,-4.390272,-5.198204,278.7,-50.100002,-22.5,,,,x,,
1084981,-10.895772,12.644742,2.2890933,0.81555396,-6.661628,-1.98172,290.7,-52.500004,-22.5,,,,x,,
1085001,-11.672162,9.636084,4.224086,1.425314,-9.961954,-6.4786997,288.30002,-45.300003,-24.300001,,,,x,,
1085042,-12.999441,9.701281,3.363956,2.850628,-12.965022,-3.2241058,285.90002,-40.5,-26.7,,,,x,,
1085062,-14.38474,9.924986,1.3583827,3.2545938,-11.379645,0.3811,290.7,-45.300003,-27.900002,,,,x,,
1085084,-11.491523,13.074209,0.62326497,5.350644,-15.579368,2.149404,297.90002,-42.9,-29.7,,,,x,,
1085104,-14.717308,10.148692,0.9977025,5.67839,-13.178437,-0.72409,295.5,-42.9,-32.7,,,,x,,
1085144,-12.785904,15.786787,-6.4928417,7.27901,-12.804959,8.30798,283.5,-45.300003,-34.5,,,,x,,
1085164,-14.96135,11.929961,-2.2855043,5.0228977,-18.79585,2.576236,281.1,-50.100002,-34.5,,,,x,,
1085184,-14.089856,14.206493,-6.1489096,8.1555395,-7.85066,8.368956,278.7,-52.500004,-35.7,,,,x,,
1085206,-13.301503,13.191445,-5.065673,4.9543,-16.600716,2.7134318,269.1,-62.100002,-38.100002,,,,x,,
1085226,-13.682521,10.844931,-4.6427855,7.0351057,-9.359816,5.343022,276.30002,-62.100002,-36.300003,,,,x,,
1085246,-11.751117,14.356627,-7.5371995,8.003099,-4.504602,9.862867,271.5,-74.100006,-38.100002,,,,x,,
1085266,-10.914913,13.153762,-7.5437794,7.1418138,-8.254626,7.16468,261.90002,-81.3,-38.100002,,,,x,,
1085287,-10.407688,10.432212,-6.3732133,6.3872356,-7.210412,7.179924,261.90002,-83.700005,-38.100002,,,,x,,
1085307,-8.638381,11.111104,-8.097659,6.166198,-0.365856,11.646416,247.50002,-90.9,-38.100002,,,,x,,
1085328,-6.5921335,12.391728,-9.389648,4.786616,1.06708,12.850692,242.70001,-93.3,-39.300003,,,,x,,
1085348,-5.8474455,10.653524,-9.440491,3.7424018,-0.442076,11.173852,233.1,-105.3,-36.9,,,,x,,
1085370,-4.966381,9.36333,-9.245496,1.692084,0.182928,11.798856,218.70001,-112.50001,-36.9,,,,x,,
1085390,-3.154606,9.304712,-9.301124,0.663114,0.82317597,12.279041,218.70001,-114.9,-36.300003,,,,x,,
1085410,-2.438629,8.424844,-8.253177,-0.083841994,-0.769822,9.420792,211.50002,-122.100006,-35.7,,,,x,,
1085432,-1.8895336,6.1859946,-6.7494454,0.129574,0.312502,6.78358,199.50002,-124.50001,-33.9,,,,x,,
1085495,0.27993092,4.355079,-4.3742194,-0.960372,4.80186,5.67839,177.90001,-138.90001,-35.100002,,,,x,,
1085541,0.41391495,3.8514426,-3.5027251,-2.195136,9.512256,6.798824,163.5,-146.1,-34.5,,,,x,,
1085579,0.94745845,3.6241484,-1.995405,-2.500016,8.292736,5.693634,153.90001,-155.70001,-33.9,,,,x,,
1085600,1.6903521,4.339527,-1.4469079,-2.149404,8.445176,5.670768,144.3,-153.3,-32.7,,,,x,,
1085640,1.9056835,5.136254,-0.38640037,-2.7896519,11.707392,2.538126,144.3,-153.3,-32.100002,,,,x,,
1085660,1.3547938,4.447193,-0.66214424,-2.492394,12.164712,0.594516,137.1,-158.1,-30.300001,,,,x,,
1085680,1.908076,4.417286,0.16927446,-1.318606,10.304944,0.830798,141.90001,-153.3,-30.900002,,,,x,,
1085703,1.8219435,5.7738743,0.5987411,-1.6463519,10.74702,1.737816,141.90001,-155.70001,-30.300001,,,,x,,
1085724,1.9625071,7.1190977,0.04067372,-1.41007,10.076283,1.493912,132.3,-158.1,-31.500002,,,,x,,
1085784,1.4732262,9.308899,0.16448931,-0.22865999,4.9771657,0.022866,132.3,-160.5,-27.300001,,,,x,,
1085821,0.18542433,8.807655,-0.6495833,-0.221038,2.2637339,-2.980202,127.50001,-150.90001,-28.500002,,,,x,,
1085842,0.112450875,8.920106,-0.6501814,0.388722,0.80793196,-2.301844,134.70001,-153.3,-29.1,,,,x,,
1085882,-0.7548564,9.796984,-1.4678428,1.150922,0.69360197,-1.5244,134.70001,-155.70001,-28.500002,,,,x,,
1085902,-1.0646945,10.179795,-1.8997021,1.280496,-0.16768399,-1.021348,144.3,-148.5,-28.500002,,,,,,
1085922,-1.2094451,9.675561,-1.6448932,1.1204339,-1.21952,-1.3948259,139.5,-153.3,-27.900002,,,,,,
1085945,-0.76801556,9.503894,-1.3254849,1.1432999,-1.798792,-0.510674,144.3,-155.70001,-28.500002,,,,,,
1085966,-0.3798208,9.805956,-1.4618614,0.64787,-1.417692,0.0,141.90001,-158.1,-26.7,,,,,,
1085987,-0.36965236,9.858592,-1.6616411,0.053354,-1.173788,-0.030488,141.90001,-155.70001,-28.500002,,,,,,
1086007,-0.3134269,9.569091,-1.7071,0.11432999,-1.3490939,-0.33536798,141.90001,-155.70001,-27.300001,,,,,,
1086027,-0.15671346,9.078614,-1.6897539,0.35061198,-1.310984,-0.33536798,141.90001,-155.70001,-27.900002,,,,,,
1086050,-0.3295768,8.664101,-2.159296,1.150922,-1.036592,0.373478,141.90001,-153.3,-27.300001,,,,,,
1086070,-0.21832219,9.225758,-2.3949645,1.798792,-1.417692,0.81555396,139.5,-153.3,-28.500002,,,,,,
1086094,-0.16508746,9.486547,-2.6431937,1.6311079,-1.41007,0.67835796,144.3,-155.70001,-26.1,,,,,,
1086114,-0.2213129,9.143213,-2.8639085,1.1128119,-1.3490939,0.221038,137.1,-155.70001,-26.1,,,,,,
1086138,-0.043664437,9.19286,-3.1145306,1.272874,-1.425314,0.17530599,134.70001,-148.5,-26.1,,,,,,
1086158,0.08194559,9.255066,-3.1731484,1.006104,-1.6311079,0.19055,141.90001,-148.5,-25.500002,,,,,,
1086178,0.1782466,9.384265,-3.070866,0.541162,-1.3719599,0.312502,144.3,-153.3,-26.1,,,,,,
1086198,0.09570287,9.166541,-3.0367718,-0.068598,-1.074702,0.106708,141.90001,-153.3,-25.500002,,,,,,
1086218,0.1794429,9.053492,-2.8968065,-0.03811,-0.81555396,0.17530599,141.90001,-153.3,-26.7,,,,,,
1086238,0.10886202,8.882423,-2.7807667,-0.160062,-0.518296,0.083841994,144.3,-155.70001,-26.1,,,,,,
1086258,0.0765623,9.061866,-2.8328052,0.083841994,-0.182928,0.083841994,141.90001,-153.3,-27.300001,,,,,,
1086281,0.18721876,8.972743,-2.8046925,0.23628199,-0.022866,-0.160062,139.5,-150.90001,-26.7,,,,,,
1086301,0.2129389,9.091773,-2.7969165,0.221038,0.289636,-0.07622,134.70001,-158.1,-26.1,,,,,,
1086324,0.09450659,9.12168,-2.8609178,-0.03811,0.55640596,-0.28201398,132.3,-155.70001,-26.1,,,,,,
1086344,-0.0035888578,8.80945,-3.0313885,-0.198172,0.69360197,-0.49543,139.5,-155.70001,-26.7,,,,,,
1086364,-0.15252645,9.066053,-3.066679,0.47256398,0.35061198,-0.327746,141.90001,-155.70001,-24.300001,,,,,,
1086384,-0.011962859,9.365723,-3.0756512,0.198172,0.259148,-0.67073596,137.1,-150.90001,-26.1,,,,,,
1086404,0.01016843,9.070838,-2.9955,0.007622,0.160062,-1.089946,141.90001,-155.70001,-26.7,,,,,,
1086424,0.0,8.866872,-2.8860397,0.129574,0.17530599,-0.998482,139.5,-150.90001,-26.7,,,,,,
1086444,-0.20815375,9.034351,-2.8142626,0.15244,0.480186,-0.442076,139.5,-150.90001,-25.500002,,,,,,
1086464,-0.3229972,9.166541,-2.9021897,-0.160062,0.518296,-0.30488,141.90001,-150.90001,-23.7,,,,,,
1086484,-0.35170805,9.107325,-2.8459642,-0.274392,0.312502,-0.259148,144.3,-148.5,-23.7,,,,,,
1086547,-0.46954224,9.041529,-2.9255173,0.045732,-0.449698,0.15244,139.5,-153.3,-27.300001,,,,,,
1086603,-0.016748004,9.149793,-2.8226366,-0.015244,-0.55640596,0.3811,144.3,-150.90001,-26.1,,,,,,
1086623,0.029309006,9.12168,-2.9518356,-0.083841994,-0.28201398,0.34298998,146.70001,-150.90001,-25.500002,,,,,,
1086663,0.105273165,8.90276,-3.0612957,-0.106708,-0.320124,0.26677,141.90001,-148.5,-24.900002,,,,,,
1086683,0.25122005,9.014613,-3.0810344,-0.106708,-0.358234,0.23628199,137.1,-150.90001,-26.1,,,,,,
1086704,0.4509998,9.246693,-3.1282878,-0.19055,-0.365856,0.053354,139.5,-153.3,-27.300001,,,,,,
1086724,0.5610581,8.980518,-3.246122,-0.655492,-0.26677,-0.274392,137.1,-155.70001,-25.500002,,,,,,
1086746,0.7506694,8.762197,-3.2215981,-0.80793196,-0.045732,-0.091464,137.1,-158.1,-26.1,,,,,,
1086767,1.1328828,8.810048,-3.1402507,-1.051836,0.221038,0.045732,141.90001,-150.90001,-27.300001,,,,,,
1086787,1.0868257,8.815431,-3.1396525,-1.417692,0.792688,-0.30488,141.90001,-150.90001,-26.7,,,,,,
1086811,1.2453337,9.086988,-3.2096353,-1.425314,1.089946,-0.80030996,141.90001,-153.3,-26.1,,,,,,
1086831,1.2525114,8.628212,-3.3531895,-2.317088,1.440558,-1.501534,134.70001,-155.70001,-26.1,,,,,,
1086851,1.1113496,8.32615,-3.4165926,-2.065562,1.547266,-1.56251,141.90001,-148.5,-25.500002,,,,,,
1086871,1.1053683,8.619839,-3.6809719,-1.1051899,1.425314,-0.94512796,141.90001,-153.3,-28.500002,,,,,,
1086891,1.4164026,9.309497,-3.710879,-1.1280559,1.432936,-1.051836,137.1,-150.90001,-27.300001,,,,,,
1086953,1.4235803,7.8249063,-3.9549212,-1.814036,3.422278,-2.103672,146.70001,-153.3,-29.1,,,,x,,
1086973,1.915852,9.149195,-4.301844,-1.684462,4.824726,-2.385686,149.1,-153.3,-27.900002,,,,x,,
1086997,2.6970267,8.022293,-4.2695446,-3.521364,6.272906,-5.807964,151.5,-143.70001,-28.500002,,,,x,,
1087019,2.9015915,6.392952,-4.146327,-3.8109999,8.102186,-7.5610237,158.70001,-146.1,-27.900002,,,,x,,
1087039,3.2574866,5.7266207,-4.1804214,-2.7439198,9.618964,-8.262248,163.5,-143.70001,-26.7,,,,x,,
1087059,3.2676551,5.5537577,-3.685757,-2.51526,10.144882,-9.786648,168.3,-138.90001,-27.900002,,,,x,,
1087083,2.9823408,4.355079,-3.0612957,-3.01069,11.623549,-12.164712,177.90001,-136.5,-26.7,,,,x,,
1087104,2.585772,2.16767,-1.6759967,-3.025934,12.698252,-14.542776,192.3,-129.3,-24.300001,,,,x,,
1087144,0.027514577,0.3158195,-0.43664438,-3.064044,15.686075,-14.070211,213.90001,-114.9,-22.5,,,,x,,
1087164,-1.2261931,1.0515354,-0.28471604,-0.442076,13.666245,-13.102218,216.3,-107.700005,-21.900002,,,,x,,
1087187,-0.8673073,3.4734163,0.77758586,1.310984,10.51836,-12.2409315,223.50002,-107.700005,-19.5,,,,x,,
1087207,-2.339337,3.7078884,1.5402181,0.80030996,9.474146,-14.603752,233.1,-100.50001,-18.300001,,,,x,,
1087227,-4.7749753,3.2538977,1.3422328,3.170752,7.9802337,-15.670832,235.50002,-86.100006,-17.1,,,,x,,
1087249,-6.10046,4.837182,1.9218334,4.8857017,4.0167937,-12.515324,247.50002,-78.9,-15.900001,,,,x,,
1087269,-8.573781,7.604192,0.41870007,4.45887,3.1936178,-8.6204815,257.1,-71.700005,-14.1,,,,x,,
1087289,-11.31866,8.490042,0.04844958,3.7881339,-2.164648,-8.811031,254.70001,-69.3,-12.3,,,,x,,
1087310,-11.469392,8.664101,0.44442022,3.58234,-7.0655937,-8.178406,261.90002,-52.500004,-14.700001,,,,x,,
1087330,-12.001141,10.334116,0.018542431,2.012208,-9.100668,-4.390272,266.7,-54.9,-17.1,,,,x,,
1087350,-15.539156,12.095647,-2.5797906,-0.259148,-13.887283,-2.431418,278.7,-45.300003,-16.5,,,,x,,
1087370,-14.7771225,12.06574,-2.075556,1.3795819,-16.326324,-2.13416,281.1,-47.7,-18.300001,,,,x,,
1087390,-12.093853,12.051983,-0.2087519,2.850628,-19.809578,0.053354,290.7,-42.9,-22.5,,,,x,,
1087414,-14.084473,10.634384,-1.0772555,1.3643379,-15.259244,1.006104,283.5,-45.300003,-26.7,,,,x,,
1087434,-12.178191,13.264419,-1.5838826,4.87808,-17.027548,5.663146,288.30002,-47.7,-26.7,,,,x,,
1087516,-10.6415615,11.923382,-1.0617038,4.329296,-13.460452,5.312534,276.30002,-57.300003,-34.5,,,,x,,
1087561,-10.2097025,11.588422,-1.3464198,5.807964,-12.629654,6.067112,264.30002,-66.9,-36.9,,,,x,,
1087581,-10.460922,11.666181,-2.5127985,5.236314,-8.1555395,6.189064,261.90002,-78.9,-37.5,,,,x,,
1087622,-8.841749,12.690201,-3.9321918,6.21193,-8.948228,6.410102,254.70001,-83.700005,-39.300003,,,,x,,
1087679,-8.098856,10.815023,-8.30701,7.08846,-2.97258,8.407065,242.70001,-93.3,-39.300003,,,,x,,
1087701,-5.6291237,12.51016,-6.953412,3.993928,-6.112844,8.826276,230.70001,-107.700005,-36.9,,,,x,,
1087742,-4.504615,9.650438,-8.336319,3.589962,-0.03811,8.673836,211.50002,-112.50001,-37.5,,,,x,,
1087762,-3.890322,9.51466,-6.9851136,1.02897,-1.745438,9.336949,216.3,-119.700005,-36.300003,,,,x,,
1087782,-3.1641762,8.524136,-6.6322093,0.92988396,1.4024479,8.391822,197.1,-119.700005,-35.7,,,,x,,
1087802,-2.6419976,7.5742846,-6.562227,0.93750596,1.966476,7.92688,199.50002,-124.50001,-35.100002,,,,x,,
1087822,-1.6765947,6.922907,-5.894699,0.579272,1.6311079,7.972612,187.5,-131.70001,-38.100002,,,,x,,
1087842,-1.0144504,6.0926843,-4.9765496,0.365856,2.05794,6.9893737,180.3,-138.90001,-33.9,,,,x,,
1087862,-0.27215505,5.2606673,-4.6870484,0.72409,3.643316,6.82169,170.70001,-141.3,-35.7,,,,x,,
1087882,0.50064564,5.342613,-4.2139173,0.213416,4.695152,7.172302,173.1,-141.3,-34.5,,,,x,,
1087906,0.9725805,5.1649647,-3.899892,0.16768399,5.807964,6.722604,161.1,-146.1,-34.5,,,,x,,
1087926,0.86910176,4.577588,-3.6133816,-0.137196,6.699738,5.800342,158.70001,-148.5,-33.300003,,,,x,,
1087946,0.76622117,3.8813498,-3.380106,-0.007622,7.324742,5.251558,161.1,-146.1,-34.5,,,,x,,
1087970,1.5880696,4.5584474,-2.3776183,-0.3811,6.775958,5.769854,153.90001,-150.90001,-32.7,,,,x,,
1087990,1.9768625,4.757031,-1.7938308,-1.280496,7.6524878,4.794238,144.3,-155.70001,-32.100002,,,,x,,
1088010,2.2436342,5.2098255,-1.560555,-1.463424,8.61286,3.902464,134.70001,-150.90001,-30.900002,,,,x,,
1088030,2.3201966,5.421568,-1.1705658,-1.493912,8.628104,2.7515419,132.3,-153.3,-31.500002,,,,x,,
1088050,2.4631526,5.513084,-0.60173184,-1.3795819,8.887252,1.996964,137.1,-158.1,-30.300001,,,,x,,
1088090,2.3794127,7.033563,-0.27753833,-1.3948259,8.826276,0.213416,129.90001,-165.3,-30.300001,,,,x,,
1088110,1.4678428,6.247005,-0.34153965,-1.18141,7.766818,-1.242386,127.50001,-160.5,-28.500002,,,,x,,
1088130,1.9565257,7.396636,0.056225438,0.15244,5.571682,-0.548784,132.3,-158.1,-29.7,,,,x,,
1088150,1.9038891,8.90276,0.05084215,-0.106708,4.778994,-0.358234,129.90001,-158.1,-29.7,,,,x,,
1088170,1.0353855,9.812535,-0.77997845,-0.72409,4.657042,-1.539644,127.50001,-150.90001,-27.900002,,,,x,,
1088194,0.105871305,7.9427404,-0.832615,-0.769822,2.6905658,-3.7271578,129.90001,-153.3,-29.1,,,,x,,
1088214,0.4743274,8.807655,-0.64898515,0.93750596,1.745438,-1.8673899,129.90001,-155.70001,-29.7,,,,x,,
1088234,-0.23207948,9.045118,-1.3398403,-0.083841994,1.814036,-1.6539739,132.3,-160.5,-27.900002,,,,x,,
1088254,-0.1752559,9.448266,-1.3356533,0.053354,1.051836,-1.21952,139.5,-155.70001,-26.7,,,,x,,
1088274,-0.24942562,10.276694,-2.1359684,0.16768399,0.899396,-1.3872039,132.3,-160.5,-27.300001,,,,x,,
1088294,-0.49227166,9.063063,-2.0940986,-0.358234,-0.548784,-1.814036,141.90001,-155.70001,-28.500002,,,,,,
1088334,-0.38041893,9.766479,-2.003779,0.289636,-0.846042,-0.57164997,137.1,-153.3,-27.300001,,,,,,
1088394,-0.6214706,9.177308,-2.2023625,-0.015244,-1.1432999,-1.661596,141.90001,-146.1,-29.1,,,,,,
1088415,-0.39357808,9.93336,-2.2657657,0.70122397,-1.006104,-1.3795819,146.70001,-150.90001,-27.900002,,,,,,
1088435,-0.5586655,9.701879,-2.14195,0.26677,-0.56402797,-1.8978779,139.5,-153.3,-28.500002,,,,,,
1088455,-0.85414815,8.756813,-2.0067697,-0.20579399,-0.68597996,-2.126538,144.3,-150.90001,-27.300001,,,,,,
1088518,-1.0425632,9.15398,-3.0295942,1.768304,-0.617382,-0.358234,151.5,-148.5,-27.300001,,,,,,
1088538,-0.4581775,9.198841,-2.836394,1.318606,-1.250008,-0.754578,153.90001,-150.90001,-26.7,,,,,,
1088558,-0.36965236,9.492529,-3.309525,1.539644,-0.579272,-0.53354,146.70001,-150.90001,-26.7,,,,,,
1088578,0.0077758585,10.232431,-3.8795552,1.8521459,-0.449698,-0.396344,153.90001,-150.90001,-27.900002,,,,,,
1088599,0.10347874,10.161253,-3.944753,1.33385,-0.3811,-0.94512796,146.70001,-148.5,-27.900002,,,,,,
1088619,-0.13398403,9.697094,-3.9417622,1.166166,0.022866,-1.547266,153.90001,-143.70001,-24.300001,,,,,,
1088639,-0.117236026,8.902162,-3.7144678,0.586894,0.22865999,-1.692084,149.1,-150.90001,-26.7,,,,,,
1088659,-0.33914706,8.345291,-3.5134919,0.3811,1.006104,-1.25763,156.3,-148.5,-26.1,,,,,,
1088679,-0.0059814295,9.526025,-3.7635155,0.426832,0.884152,-0.731712,153.90001,-143.70001,-26.1,,,,,,
1088700,-0.16209674,8.61924,-3.4285555,-0.3811,0.41158798,-1.760682,156.3,-153.3,-26.7,,,,,,
1088720,-0.36127836,7.610771,-3.2192054,-0.16768399,0.091464,-1.928366,153.90001,-143.70001,-24.300001,,,,,,
1088740,-0.12740445,7.950516,-3.1366618,0.297258,-0.182928,-0.891774,158.70001,-146.1,-25.500002,,,,,,
1088760,-0.13278773,7.8368692,-2.9542282,-0.358234,-0.213416,-0.7622,156.3,-143.70001,-26.1,,,,,,
1088780,-0.3397452,7.9798255,-3.1229045,-0.19055,0.137196,-0.55640596,158.70001,-150.90001,-24.300001,,,,,,
1088800,0.062206868,9.555334,-3.9626973,0.92226195,0.746956,0.091464,158.70001,-143.70001,-24.900002,,,,,,
1088820,1.1005831,11.409577,-4.565027,1.8978779,0.030488,0.57164997,161.1,-146.1,-24.300001,,,,,,
1088840,0.6059188,10.060166,-3.1450357,0.57164997,-1.989342,-0.769822,153.90001,-146.1,-24.300001,,,,,,
1088860,-0.004187001,10.713339,-3.359171,0.602138,0.198172,0.259148,161.1,-146.1,-23.7,,,,,,
1088880,-0.45458865,10.686422,-3.4142,0.22865999,-0.022866,-0.41158798,153.90001,-141.3,-23.7,,,,,,
1088904,-1.5719197,9.361536,-3.3627598,-0.320124,-0.388722,-1.5244,153.90001,-143.70001,-24.900002,,,,,,
1088924,-2.1389592,8.421255,-2.9943037,-0.144818,-1.227142,-1.463424,153.90001,-143.70001,-24.900002,,,,,,
1088944,-2.2286806,8.045023,-3.017033,-0.541162,-1.036592,-0.67073596,156.3,-146.1,-24.300001,,,,,,
1088964,-2.3626647,7.158575,-2.8722825,-0.82317597,-1.3567159,-0.426832,158.70001,-143.70001,-23.7,,,,,,
1088984,-2.104865,6.8756533,-2.659942,-0.327746,-1.6006199,0.327746,161.1,-143.70001,-25.500002,,,,,,
1089008,-1.3912805,7.677165,-2.2615786,-0.251526,-1.036592,0.82317597,163.5,-146.1,-26.1,,,,,,
1089028,-1.1424531,8.463125,-2.476312,-0.586894,-0.57164997,0.045732,163.5,-143.70001,-25.500002,,,,,,
1089049,-1.3171108,7.3404107,-1.8075881,-1.455802,0.19055,-0.47256398,158.70001,-141.3,-24.300001,,,,,,
1089069,-1.3212978,8.859694,-2.2071476,-1.158544,1.8292799,0.327746,163.5,-143.70001,-26.7,,,,,,
1089089,-1.116733,10.155272,-2.8280199,-1.21952,2.164648,-0.358234,161.1,-143.70001,-25.500002,,,,,,
1089109,-1.238156,10.030259,-3.087614,-1.1051899,1.8445239,-1.280496,161.1,-148.5,-26.7,,,,,,
1089130,-1.1609955,9.597802,-2.8094776,-1.036592,1.33385,-1.150922,163.5,-143.70001,-26.7,,,,,,
1089150,-0.84457785,9.863378,-2.8441699,-0.792688,1.29574,-0.846042,163.5,-141.3,-26.1,,,,,,
1089170,-0.803306,9.797582,-2.948845,-1.006104,1.3643379,-0.82317597,161.1,-143.70001,-25.500002,,,,,,
1089190,-1.0772555,9.524829,-3.0367718,-1.150922,1.288118,-1.006104,168.3,-148.5,-27.300001,,,,,,
1089214,-1.3835047,9.045118,-3.3358433,-0.754578,0.57164997,-1.196654,156.3,-143.70001,-24.900002,,,,,,
1089234,-1.3918787,8.555837,-3.2347572,-0.297258,0.015244,-1.006104,163.5,-141.3,-25.500002,,,,,,
1089255,-1.3446254,8.844142,-3.3167028,0.297258,-0.373478,-0.365856,168.3,-146.1,-26.1,,,,,,
1089275,-1.2961758,9.031361,-3.4303498,0.434454,-0.426832,-0.11432999,161.1,-141.3,-26.7,,,,,,
1089295,-1.0479465,9.016407,-3.192887,0.23628199,-0.358234,0.0,158.70001,-138.90001,-25.500002,,,,,,
1089315,-0.74708056,9.082203,-2.991313,-0.160062,0.251526,0.083841994,161.1,-146.1,-25.500002,,,,,,
1089359,-0.715379,8.932069,-2.9309006,-0.320124,1.432936,0.0,158.70001,-143.70001,-25.500002,,,,,,
1089379,-0.7201641,8.859694,-2.8459642,-0.26677,1.6234859,-0.221038,161.1,-141.3,-26.1,,,,,,
1089399,-0.73511773,9.130054,-2.928508,-0.099086,1.8521459,-0.182928,163.5,-138.90001,-27.300001,,,,,,
1089419,-0.98035634,8.976332,-3.2365515,-0.07622,1.692084,-0.487808,161.1,-143.70001,-27.300001,,,,,,
1089441,-1.07905,8.75442,-3.2748327,0.289636,1.1280559,-0.41158798,165.90001,-138.90001,-25.500002,,,,,,
1089462,-1.0999849,9.125867,-3.576895,0.373478,0.518296,-0.297258,163.5,-148.5,-24.300001,,,,,,
1089482,-1.0048802,9.253272,-3.5433989,0.28201398,0.106708,-0.274392,163.5,-146.1,-23.7,,,,,,
1089502,-0.9977025,9.059473,-3.409415,-0.23628199,-0.11432999,-0.449698,161.1,-143.70001,-24.900002,,,,,,
1089522,-1.0473484,8.70298,-3.3167028,-0.663114,-0.213416,-0.259148,163.5,-141.3,-25.500002,,,,,,
1089542,-1.0724703,8.615053,-3.2395422,-0.655492,-0.221038,0.03811,161.1,-143.70001,-23.7,,,,,,
1089562,-0.96420646,8.911732,-3.2168128,-0.41921,-0.221038,0.213416,165.90001,-146.1,-26.1,,,,,,
1089584,-0.78895056,9.275403,-3.1803262,-0.33536798,-0.16768399,0.137196,163.5,-146.1,-24.300001,,,,,,
1089604,-0.7458843,9.089979,-3.0840251,-0.510674,-0.099086,-0.11432999,170.70001,-143.70001,-26.7,,,,,,
1089625,-0.7548564,8.916517,-3.0056684,-0.541162,0.068598,0.0,161.1,-146.1,-26.7,,,,,,
1089645,-0.72435117,8.945827,-3.0236127,-0.41158798,0.213416,0.160062,161.1,-141.3,-24.900002,,,,,,
1089665,-0.62326497,9.094166,-2.933293,-0.259148,0.28201398,0.19055,165.90001,-146.1,-26.1,,,,,,
1089685,-0.6286483,9.212598,-2.9602096,-0.373478,0.34298998,-0.007622,161.1,-146.1,-26.1,,,,,,
1089705,-0.660948,8.6868305,-2.9093673,-0.632626,0.221038,-0.022866,163.5,-143.70001,-25.500002,,,,,,
1089725,-0.631639,8.8381605,-2.9249191,-0.083841994,0.28201398,0.358234,165.90001,-143.70001,-26.1,,,,,,
1089747,-0.5496934,8.96078,-2.9356856,-0.022866,0.259148,0.41158798,165.90001,-143.70001,-25.500002,,,,,,
1089768,-0.5724228,9.168934,-3.0493329,-0.022866,0.358234,0.365856,158.70001,-141.3,-26.1,,,,,,
1089788,-0.67171454,9.331629,-3.0983806,-0.091464,0.40396598,0.007622,156.3,-148.5,-25.500002,,,,,,
1089808,-0.6878644,9.384863,-3.1785316,-0.16768399,0.40396598,-0.40396598,161.1,-143.70001,-24.900002,,,,,,
1089830,-1.1041719,9.156971,-3.1438394,-0.28201398,0.20579399,-0.442076,163.5,-143.70001,-26.7,,,,,,
1089850,-1.3529994,9.01222,-2.9859297,-0.480186,0.091464,-0.068598,163.5,-143.70001,-26.1,,,,,,
1089871,-1.3326626,9.171925,-2.9440596,-0.510674,-0.137196,0.182928,161.1,-146.1,-25.500002,,,,,,
1089891,-1.12092,8.994276,-2.81187,-0.746956,-0.243904,0.3811,165.90001,-141.3,-25.500002,,,,,,
1089913,-1.0186375,8.598305,-2.7065969,-0.907018,-0.33536798,0.434454,161.1,-143.70001,-26.7,,,,,,
1089933,-0.55746925,8.653335,-2.940471,-0.594516,-0.396344,0.80030996,156.3,-141.3,-25.500002,,,,,,
1089953,-0.1016843,8.879433,-3.1151285,-0.602138,-0.373478,0.891774,161.1,-150.90001,-26.7,,,,,,
1089975,0.33137122,8.970948,-3.417789,-1.1356779,-0.060976,0.80030996,156.3,-148.5,-27.900002,,,,,,
1089995,0.42647594,8.552248,-4.14214,-1.8369019,1.33385,0.121952,156.3,-146.1,-27.300001,,,,x,,
1090015,0.8421853,8.71614,-5.3964458,-0.754578,1.94361,-0.030488,158.70001,-138.90001,-27.900002,,,,x,,
1090075,1.6951371,7.6029954,-5.319884,-2.050318,2.850628,-1.3567159,161.1,-141.3,-27.900002,,,,x,,
1090095,2.234064,7.806962,-5.7834444,-1.463424,4.146368,-1.539644,161.1,-150.90001,-27.300001,,,,x,,
1090117,3.2180092,8.315384,-5.991598,-1.3490939,5.556438,-2.93447,156.3,-148.5,-27.300001,,,,x,,
1090137,3.7934227,8.075528,-5.785837,-2.2865999,5.693634,-6.272906,158.70001,-143.70001,-26.7,,,,x,,
1090158,3.9256122,4.438819,-4.247413,-3.064044,7.4390717,-10.922326,170.70001,-138.90001,-25.500002,,,,x,,
1090178,4.664917,3.4913604,-3.0816326,-3.567096,7.942124,-11.01379,177.90001,-134.1,-26.1,,,,x,,
1090200,4.466932,2.56065,-1.6323322,-3.96344,9.7028055,-11.821722,192.3,-126.9,-26.7,,,,x,,
1090220,3.363358,1.5713216,-0.92951417,-3.612828,12.096114,-12.7058735,201.90001,-129.3,-24.300001,,,,x,,
1090260,0.71358454,2.275934,-0.09689916,-2.7286758,12.370505,-11.593061,216.3,-114.9,-23.1,,,,x,,
1090280,0.07536601,2.2532046,-0.17645217,-3.536608,11.311048,-14.664727,221.1,-114.9,-23.1,,,,x,,
1090300,-3.0870159,-0.24404234,1.2190154,-2.118916,8.498529,-17.03517,233.1,-100.50001,-20.7,,,,x,,
1090320,-2.807683,3.8023949,2.2388492,1.3567159,4.4207597,-10.70891,240.3,-95.700005,-20.7,,,,x,,
1090340,-2.3847961,4.3365364,5.3785014,-2.995446,4.146368,-12.7363615,245.1,-86.100006,-21.300001,,,,x,,
1090400,-8.7735615,8.769374,2.6366143,3.16313,-1.074702,-5.304912,269.1,-64.5,-20.7,,,,x,,
1090436,-12.98389,12.885196,-0.56225437,4.4055157,-4.100636,-2.126538,276.30002,-59.7,-17.1,,,,x,,
1090460,-12.949197,14.158044,0.34453034,3.368924,-11.16623,-3.2774599,278.7,-52.500004,-20.1,,,,x,,
1090500,-12.519133,11.16374,0.7925394,5.015276,-15.526013,0.868908,283.5,-52.500004,-22.5,,,,x,,
1090520,-12.840335,14.28485,0.82364285,3.490876,-13.269901,2.7820299,283.5,-59.7,-24.900002,,,,x,,
1090542,-15.284348,11.86596,-1.8614209,2.919226,-10.686044,1.6539739,283.5,-47.7,-25.500002,,,,x,,
1090562,-12.8875885,12.730277,-1.7220536,5.061008,-17.210476,6.128088,281.1,-54.9,-26.7,,,,x,,
1090583,-12.869046,12.581339,-0.7919413,3.4299,-14.001614,5.403998,278.7,-57.300003,-29.7,,,,x,,
1090603,-15.353732,11.976617,-4.120009,4.923812,-6.8979096,5.358266,271.5,-54.9,-32.100002,,,,x,,
1090625,-12.330717,14.196923,-7.1621637,7.629622,-9.779026,8.658592,273.90002,-62.100002,-29.7,,,,x,,
1090645,-11.144002,14.927256,-3.0032759,3.879598,-17.027548,7.2409,254.70001,-71.700005,-33.300003,,,,x,,
1090665,-14.789683,11.052485,-8.40989,9.237864,6.1204658,6.890288,259.5,-78.9,-32.7,,,,x,,
1090685,-11.660797,12.892972,-12.037627,11.58544,5.769854,11.074766,264.30002,-71.700005,-29.7,,,,x,,
1090748,-7.561723,12.37498,-10.478269,6.28815,2.149404,9.878112,235.50002,-93.3,-33.9,,,,x,,
1090803,-5.2146106,11.078206,-9.983604,2.309466,-3.338436,9.588476,221.1,-114.9,-31.500002,,,,x,,
1090824,-3.9477437,10.502792,-10.1451025,0.358234,-0.16768399,11.532085,211.50002,-117.3,-33.300003,,,,x,,
1090864,-1.6161823,8.71614,-8.247793,-1.8445239,-1.1128119,10.282078,189.90001,-124.50001,-33.9,,,,x,,
1090887,-0.5413194,5.9108486,-6.180611,0.541162,1.768304,5.5183277,177.90001,-136.5,-32.100002,,,,x,,
1090908,0.12740445,4.798303,-5.5962257,0.960372,4.176856,4.45887,175.5,-141.3,-33.300003,,,,x,,
1090928,0.23028505,4.9227166,-5.096178,-0.34298998,5.8613176,5.0686297,168.3,-141.3,-31.500002,,,,x,,
1090948,0.037084863,4.053615,-4.363453,-1.288118,6.768336,3.7271578,170.70001,-141.3,-29.7,,,,x,,
1090969,0.1794429,3.6624293,-3.527249,-1.21952,5.9985137,3.567096,168.3,-146.1,-30.900002,,,,x,,
1090989,0.25779963,3.405228,-2.0635931,-2.812518,6.455834,3.018312,165.90001,-141.3,-30.300001,,,,x,,
1091009,0.25241634,2.673101,-1.0084691,-4.03966,8.91774,1.745438,153.90001,-141.3,-29.7,,,,x,,
1091029,0.39357808,2.515191,-0.8362039,-4.0015497,9.306461,1.577754,156.3,-153.3,-29.1,,,,x,,
1091050,0.8643166,3.2939734,-0.8481667,-2.8048959,9.763782,1.989342,161.1,-146.1,-29.7,,,,x,,
1091070,0.8714943,3.0894084,-0.10347874,-2.195136,8.971094,1.006104,161.1,-146.1,-30.300001,,,,x,,
1091090,1.6849687,3.9812396,0.001196286,-0.907018,8.635726,1.928366,149.1,-153.3,-29.1,,,,x,,
1091112,1.8010085,4.9095573,0.9785619,-1.547266,8.658592,1.265252,149.1,-153.3,-27.900002,,,,x,,
1091132,2.3620665,6.213509,0.39477435,-1.013726,9.67994,0.64787,146.70001,-153.3,-27.300001,,,,x,,
1091152,1.8207473,5.5950294,0.35230622,-0.754578,9.832379,-1.1051899,149.1,-155.70001,-26.1,,,,x,,
1091213,0.95044917,9.506885,-0.24404234,-1.166166,5.769854,-1.326228,146.70001,-148.5,-25.500002,,,,x,,
1091233,0.15252645,8.205325,-0.99471176,-0.72409,4.138746,-2.835384,139.5,-153.3,-23.7,,,,x,,
1091256,0.5945541,9.296936,-0.8810646,0.26677,1.6234859,-1.737816,141.90001,-165.3,-26.1,,,,x,,
1091276,0.27753833,9.781432,-1.0222263,-0.396344,0.99086,-0.87653,144.3,-153.3,-25.500002,,,,x,,
1091296,-0.3869985,9.696496,-1.7280351,-0.81555396,0.41158798,-0.830798,146.70001,-153.3,-24.300001,,,,x,,
1091316,-0.5275621,9.465612,-1.9702829,0.0,-0.92988396,-0.746956,146.70001,-155.70001,-25.500002,,,,x,,
1091336,-0.34034336,9.857396,-2.216718,0.53354,-1.692084,-0.426832,144.3,-150.90001,-25.500002,,,,x,,
1091356,-0.41271865,9.661803,-2.1604924,0.365856,-2.164648,-0.388722,149.1,-153.3,-25.500002,,,,x,,
1091378,-0.28112718,10.014708,-2.275934,0.586894,-1.79117,-0.243904,151.5,-150.90001,-26.7,,,,x,,
1091398,-0.52696395,9.93336,-2.4787045,-0.28201398,-1.6463519,-1.1051899,149.1,-148.5,-24.300001,,,,x,,
1091419,-0.79553014,9.393835,-2.3339539,-0.602138,-1.67684,-1.471046,151.5,-153.3,-26.1,,,,,,
1091439,-1.032993,9.332227,-2.6073053,-0.28201398,-1.3719599,-1.02897,153.90001,-146.1,-27.300001,,,,,,
1091459,-1.1053683,9.227551,-2.6384087,-0.251526,-1.44818,-0.99086,149.1,-146.1,-27.900002,,,,,,
1091479,-0.92233646,8.832179,-2.6641288,0.030488,-1.707328,-0.510674,151.5,-148.5,-27.300001,,,,,,
1091499,-0.48688838,8.884217,-2.2657657,0.45731997,-1.9054999,0.358234,156.3,-148.5,-27.300001,,,,,,
1091521,-0.25301448,9.25387,-2.4631526,0.274392,-0.785066,0.92226195,153.90001,-148.5,-26.7,,,,,,
1091541,-0.30086592,9.289161,-2.7335134,0.22865999,-0.57164997,0.41158798,146.70001,-148.5,-26.7,,,,,,
1091561,-0.26138848,9.235926,-2.7586353,0.41158798,-0.72409,0.11432999,158.70001,-148.5,-24.300001,,,,,,
1091582,-0.19918162,8.932667,-2.828618,0.15244,-0.67073596,-0.030488,149.1,-148.5,-24.300001,,,,,,
1091603,-0.2033686,8.749636,-2.8034961,0.213416,-0.579272,0.26677,151.5,-150.90001,-26.7,,,,,,
1091623,-0.26916432,9.223963,-2.957817,0.35061198,-0.40396598,0.16768399,151.5,-148.5,-24.900002,,,,,,
1091643,-0.32060462,9.192261,-3.0283978,0.015244,-0.365856,-0.259148,146.70001,-150.90001,-26.1,,,,,,
1091663,-0.35170805,9.014613,-2.95363,-0.060976,-0.373478,-0.47256398,151.5,-143.70001,-25.500002,,,,,,
1091683,-0.29608077,8.932667,-2.8591235,-0.099086,-0.23628199,-0.289636,153.90001,-150.90001,-26.7,,,,,,
1091703,-0.3702505,9.04751,-2.8836472,-0.053354,-0.137196,-0.20579399,146.70001,-146.1,-26.1,,,,,,
1091723,-0.37204492,9.049903,-2.8884325,0.045732,-0.17530599,-0.312502,151.5,-153.3,-24.900002,,,,,,
1091764,-0.38879293,9.158765,-2.8710864,-0.083841994,0.060976,-0.487808,153.90001,-146.1,-24.900002,,,,,,
1091784,-0.43245736,9.053492,-2.8046925,-0.137196,0.160062,-0.449698,153.90001,-148.5,-25.500002,,,,,,
1091804,-0.5508897,9.034351,-2.8794603,-0.07622,0.26677,-0.548784,158.70001,-150.90001,-24.900002,,,,,,
1091824,-0.70640683,8.956593,-2.9386764,0.083841994,0.16768399,-0.56402797,156.3,-146.1,-26.1,,,,,,
1091847,-0.76981,8.936854,-2.9428635,0.23628199,0.045732,-0.251526,151.5,-148.5,-24.900002,,,,,,
1091867,-0.71597713,9.103138,-2.8884325,0.121952,-0.068598,0.015244,149.1,-143.70001,-26.1,,,,,,
1091887,-0.7733989,9.141419,-2.878264,-0.03811,-0.121952,0.007622,151.5,-148.5,-24.300001,,,,,,
1091907,-0.8350076,9.326843,-2.9835372,0.053354,-0.17530599,0.030488,149.1,-148.5,-26.7,,,,,,
1091927,-0.72614557,9.414172,-2.9925094,-0.053354,-0.41921,-0.17530599,149.1,-143.70001,-26.7,,,,,,
1091948,-0.5072252,9.29574,-2.6964285,-0.251526,-0.449698,-0.28201398,156.3,-146.1,-24.300001,,,,,,
1091968,-0.5048327,9.027174,-2.6736991,-0.777444,0.144818,-0.28201398,156.3,-148.5,-24.900002,,,,,,
1091989,-0.49586052,9.100745,-2.8674974,-0.72409,0.40396598,-0.129574,156.3,-150.90001,-24.900002,,,,,,
1092012,-0.61847985,8.90575,-2.8537402,-0.57164997,0.28201398,-0.297258,156.3,-150.90001,-24.900002,,,,,,
1092053,-0.44860724,8.88661,-2.8262255,-0.388722,-0.007622,-0.160062,156.3,-141.3,-25.500002,,,,,,
1092073,-0.47253296,8.851319,-2.8399827,-0.11432999,-0.11432999,0.0,153.90001,-148.5,-25.500002,,,,,,
1092093,-0.44142953,9.049903,-2.8997972,0.091464,-0.28201398,-0.091464,153.90001,-150.90001,-26.1,,,,,,
1092113,-0.4940661,9.042128,-2.9853315,0.015244,-0.46494198,-0.22865999,153.90001,-148.5,-28.500002,,,,,,
1092134,-0.35469878,9.072035,-2.9099655,0.11432999,-0.769822,-0.35061198,151.5,-148.5,-25.500002,,,,,,
1092155,-0.2643792,9.190467,-2.8645067,0.007622,-0.7622,-0.45731997,156.3,-143.70001,-27.300001,,,,,,
1092175,-0.30565107,9.045716,-2.9350874,-0.358234,-0.625004,-0.60976,153.90001,-146.1,-25.500002,,,,,,
1092195,-0.2296869,9.058875,-2.957817,-0.297258,-0.548784,-0.57164997,151.5,-150.90001,-24.300001,,,,,,
1092215,-0.018542431,9.078614,-2.865105,-0.388722,-0.34298998,-0.663114,153.90001,-146.1,-26.1,,,,,,
1092235,0.21114446,9.328039,-2.932097,-0.68597996,0.16768399,-0.72409,153.90001,-143.70001,-27.300001,,,,,,
1092316,0.8834572,8.048014,-3.5057158,-2.05794,2.2103798,-1.8978779,156.3,-146.1,-27.900002,,,,,,
1092362,1.2555021,7.561723,-4.30962,-0.64787,3.932952,-1.432936,161.1,-148.5,-26.7,,,,,,
1092382,1.6682208,7.7004924,-4.782751,0.23628199,4.9924097,-1.684462,161.1,-148.5,-26.1,,,,x,,
1092402,2.460162,8.028873,-5.317491,0.891774,6.676872,-2.614346,161.1,-143.70001,-26.1,,,,x,,
1092422,3.1569986,8.169436,-5.630918,1.25763,6.753092,-3.338436,161.1,-141.3,-25.500002,,,,x,,
1092442,3.5912504,7.559929,-4.631421,-0.57164997,7.5457797,-5.091496,161.1,-136.5,-23.1,,,,x,,
1092462,3.6414945,6.571797,-4.247413,-1.669218,9.954331,-7.179924,165.90001,-141.3,-27.300001,,,,x,,
1092482,3.0870159,4.9430537,-3.5200713,-2.347576,11.067143,-9.268352,175.5,-136.5,-23.1,,,,x,,
1092502,3.0923991,4.278517,-2.6431937,-2.32471,11.913186,-9.626586,180.3,-131.70001,-22.5,,,,x,,
1092522,2.4990413,3.4482942,-2.171857,-3.6814258,13.117462,-10.541225,182.70001,-129.3,-21.900002,,,,x,,
1092542,1.9182445,2.6216607,-1.6006306,-3.833866,12.949778,-10.792751,187.5,-119.700005,-20.7,,,,x,,
1092564,1.4277673,2.2280827,-0.73033255,-3.338436,12.477214,-11.39489,197.1,-114.9,-19.5,,,,x,,
1092585,0.3104362,1.8129714,-0.25301448,-2.126538,10.891838,-12.957399,206.70001,-107.700005,-19.5,,,,x,,
1092605,-0.581395,1.401449,0.63462967,-0.449698,8.490908,-13.742466,218.70001,-105.3,-17.7,,,,x,,
1092645,-0.7620341,3.0128462,2.9560225,1.196654,3.7119138,-14.497044,235.50002,-86.100006,-16.5,,,,x,,
1092665,-2.8268237,1.945759,3.439322,1.692084,4.45887,-16.760778,245.1,-78.9,-15.3,,,,x,,
1092685,-5.5292335,2.744878,3.1934853,4.0167937,2.500016,-15.2439995,249.90001,-74.100006,-14.700001,,,,x,,
1092705,-9.470398,4.950231,3.091801,5.137228,1.013726,-11.77599,259.5,-54.9,-12.900001,,,,x,,
1092725,-13.953479,7.7381754,1.0066746,4.30643,-0.03811,-8.1250515,266.7,-54.9,-12.3,,,,x,,
1092749,-13.739943,9.560718,-1.3625697,5.9375377,-3.475632,-5.693634,273.90002,-45.300003,-12.3,,,,x,,
1092769,-14.715513,9.066651,0.7548564,6.4482117,-12.789716,-6.036624,278.7,-40.5,-13.500001,,,,x,,
1092789,-15.228122,11.27021,-1.3733363,5.4116197,-10.609824,-0.891774,288.30002,-38.100002,-14.1,,,,x,,
1092813,-15.485323,13.119668,-1.4301598,2.6829438,-14.771436,0.45731997,283.5,-38.100002,-15.3,,,,x,,
1092833,-17.292912,12.444365,-4.9436517,6.242418,-12.103736,3.62045,295.5,-38.100002,-20.7,,,,x,,
1092854,-13.997144,15.671346,-4.9322867,3.7805119,-19.59616,6.394858,281.1,-40.5,-21.300001,,,,x,,
1092894,-14.5181265,14.600072,-6.7703805,5.114362,-13.940638,7.4085836,290.7,-47.7,-24.900002,,,,x,,
1092914,-14.281261,13.974414,-5.4413066,3.605206,-17.850723,7.3628516,278.7,-54.9,-29.1,,,,x,,
1092934,-14.736448,13.400795,-5.3288555,3.8186219,-12.942156,7.58389,278.7,-54.9,-29.7,,,,x,,
1092954,-13.556313,15.472762,-8.653933,6.166198,-6.036624,10.190614,273.90002,-62.100002,-30.300001,,,,x,,
1092975,-11.266621,15.736544,-9.310096,3.650938,-13.7196,8.132674,271.5,-57.300003,-30.300001,,,,x,,
1092995,-12.083684,11.838446,-5.7361913,2.454284,-16.585472,5.7165,264.30002,-69.3,-33.300003,,,,x,,
1093015,-11.762482,11.750519,-6.802082,4.5427117,-6.379614,9.596098,261.90002,-76.5,-34.5,,,,x,,
1093035,-9.183289,13.925964,-9.470398,5.4573517,-3.7652678,11.01379,249.90001,-81.3,-33.300003,,,,x,,
1093055,-8.758009,11.661395,-8.699391,4.336918,-8.757678,8.521396,252.3,-90.9,-34.5,,,,x,,
1093075,-8.097659,10.662497,-8.2986355,3.2698379,-5.647902,11.082388,240.3,-93.3,-35.100002,,,,x,,
1093095,-5.8773527,11.340193,-9.468603,2.8048959,-2.2713559,13.140327,225.90001,-100.50001,-34.5,,,,x,,
1093115,-4.9131465,10.176805,-8.487649,1.18141,-5.29729,11.1890955,221.1,-110.100006,-34.5,,,,x,,
1093135,-3.8669944,8.57438,-7.429534,1.1204339,-2.309466,10.221102,211.50002,-112.50001,-36.300003,,,,x,,
1093155,-3.007463,7.8554115,-7.483965,0.87653,0.434454,9.817136,211.50002,-117.3,-33.9,,,,x,,
1093175,-2.1993718,7.083209,-6.8002872,0.769822,1.1356779,7.957368,194.70001,-124.50001,-35.100002,,,,x,,
1093199,-1.6173786,5.6919284,-6.0753384,1.051836,1.730194,5.343022,194.70001,-129.3,-35.100002,,,,x,,
1093219,-0.9468603,4.7349,-6.024496,1.493912,3.96344,5.388754,189.90001,-136.5,-31.500002,,,,x,,
1093240,-0.27993092,5.0184197,-5.676377,0.17530599,3.445144,6.562542,185.1,-134.1,-33.300003,,,,x,,
1093260,0.26916432,4.091896,-4.5321293,-0.853664,3.551852,5.25918,180.3,-129.3,-32.7,,,,x,,
1093324,1.3697474,2.3195984,-1.915852,-2.012208,6.966508,6.920776,163.5,-148.5,-29.7,,,,x,,
1093344,1.8147658,4.041652,-1.3793176,-0.777444,6.410102,8.201272,156.3,-148.5,-30.300001,,,,x,,
1093364,2.1557074,6.093282,-0.98095447,-0.47256398,6.425346,7.118948,146.70001,-153.3,-31.500002,,,,x,,
1093384,2.024714,5.0399528,-0.05682358,-0.434454,7.4238276,3.2012398,146.70001,-150.90001,-29.7,,,,x,,
1093404,2.4715269,5.070458,-0.18781689,-0.480186,8.315601,3.109776,139.5,-160.5,-28.500002,,,,x,,
1093424,2.6252494,5.8803434,-0.29428634,-0.198172,9.047314,2.6829438,132.3,-150.90001,-29.1,,,,x,,
1093444,2.899199,6.191976,-0.2266962,-0.121952,9.009204,1.6082419,132.3,-158.1,-29.7,,,,x,,
1093464,2.794524,6.5538526,-0.43305552,0.022866,9.093046,1.06708,127.50001,-153.3,-27.900002,,,,x,,
1093486,3.0272017,7.3063164,-0.5592637,-0.182928,8.772922,0.358234,129.90001,-158.1,-27.900002,,,,x,,
1093509,2.4188902,8.026481,-0.6932477,-0.221038,8.323224,-1.082324,132.3,-158.1,-26.7,,,,x,,
1093529,1.6550616,8.903358,-0.9235327,0.03811,7.01224,-2.492394,129.90001,-162.90001,-27.900002,,,,x,,
1093549,1.493563,9.063661,-0.31940836,0.022866,4.53509,-4.367406,132.3,-158.1,-27.300001,,,,x,,
1093569,1.940974,9.480566,0.1698726,-0.358234,3.3003259,-4.504602,132.3,-153.3,-26.1,,,,x,,
1093589,0.37563378,7.915226,0.4874865,-1.920744,4.45887,-4.771372,144.3,-150.90001,-27.300001,,,,x,,
1093612,-1.3069423,8.318973,-0.74947315,0.053354,4.1921,-3.2088618,146.70001,-148.5,-25.500002,,,,x,,
1093696,-1.1992767,9.685729,-2.4428158,0.617382,0.28201398,0.35061198,151.5,-150.90001,-24.900002,,,,x,,
1093736,-0.6824811,10.12656,-2.8310106,0.518296,-2.2942219,0.60976,151.5,-150.90001,-23.7,,,,,,
1093756,-0.43664438,9.599597,-2.7598317,-0.022866,-3.399412,0.0,156.3,-150.90001,-24.900002,,,,,,
1093796,0.13338588,9.700085,-2.7430837,-0.083841994,-3.513742,0.03811,149.1,-150.90001,-26.7,,,,,,
1093817,0.2631829,9.621728,-2.715569,-0.221038,-3.3079479,-0.11432999,149.1,-148.5,-25.500002,,,,,,
1093837,0.4151112,9.275403,-2.601922,-0.19055,-2.7896519,-0.198172,149.1,-153.3,-27.300001,,,,,,
1093858,0.5909653,9.201832,-2.1981754,0.320124,-1.6539739,0.3811,141.90001,-146.1,-26.1,,,,,,
1093879,0.51559925,8.971546,-2.2328677,0.121952,-0.67835796,0.259148,149.1,-148.5,-27.300001,,,,,,
1093899,0.29009935,9.017604,-2.292084,0.518296,-0.015244,0.213416,144.3,-150.90001,-25.500002,,,,,,
1093920,-0.12740445,8.840553,-2.5450983,0.518296,0.320124,0.0,144.3,-146.1,-24.900002,,,,,,
1093941,-0.20277047,9.147401,-2.798711,0.884152,0.213416,-0.045732,149.1,-150.90001,-25.500002,,,,,,
1093961,-0.14594689,9.32146,-2.694036,0.91463995,0.20579399,-0.49543,144.3,-148.5,-24.900002,,,,,,
1093983,-0.44860724,8.612062,-2.6156793,0.198172,0.19055,-1.227142,146.70001,-155.70001,-24.300001,,,,,,
1094003,-0.6029281,8.5139675,-2.8411791,0.47256398,0.594516,-0.72409,149.1,-148.5,-26.7,,,,,,
1094023,-0.9145606,8.370413,-2.9273117,0.297258,0.57164997,-0.602138,151.5,-148.5,-23.7,,,,,,
1094043,-0.820054,9.06067,-3.1821206,0.846042,0.548784,-0.396344,149.1,-153.3,-26.7,,,,,,
1094066,-0.93190676,9.046912,-3.196476,0.449698,0.16768399,-1.097568,146.70001,-150.90001,-24.300001,,,,,,
1094086,-0.857737,9.181495,-3.2401404,0.289636,0.19055,-1.280496,149.1,-141.3,-25.500002,,,,,,
1094106,-0.99231917,9.113306,-3.5302398,0.213416,0.434454,-1.6158639,149.1,-146.1,-24.300001,,,,,,
1094126,-0.96420646,9.152185,-3.6462796,0.53354,-0.030488,-1.585376,146.70001,-148.5,-24.300001,,,,,,
1094168,-0.753062,9.426135,-3.5505767,0.198172,-0.137196,-1.3795819,161.1,-143.70001,-24.900002,,,,,,
1094189,-0.6406111,9.152783,-3.4620516,-0.083841994,-0.251526,-1.166166,156.3,-141.3,-24.300001,,,,,,
1094210,-0.46475708,8.917713,-3.2700477,-0.35061198,-0.160062,-0.754578,153.90001,-148.5,-24.300001,,,,,,
1094230,-0.2213129,9.122876,-3.0906048,-0.45731997,0.121952,-0.503052,153.90001,-143.70001,-26.7,,,,,,
1094270,-0.12979703,8.61924,-2.790935,-0.586894,0.358234,-1.189032,161.1,-143.70001,-24.900002,,,,,,
1094294,-0.1614986,8.994874,-2.7921314,-0.07622,0.594516,-1.1432999,165.90001,-136.5,-23.7,,,,,,
1094315,-0.24703304,9.14441,-2.807683,-0.03811,0.60976,-1.21952,161.1,-143.70001,-23.1,,,,,,
1094335,-0.49466425,8.912929,-2.7580373,-0.091464,0.602138,-1.21952,163.5,-143.70001,-24.300001,,,,,,
1094355,-0.72136045,8.985902,-2.7927296,0.030488,0.731712,-1.097568,163.5,-143.70001,-24.300001,,,,,,
1094375,-0.8696999,9.274207,-3.062492,0.11432999,0.785066,-1.06708,165.90001,-141.3,-24.900002,,,,,,
1094395,-0.95044917,8.972743,-3.1330729,-0.106708,0.41158798,-1.02897,161.1,-143.70001,-23.1,,,,,,
1094415,-1.0210301,8.545669,-3.2766273,-0.243904,0.099086,-0.518296,170.70001,-143.70001,-21.900002,,,,,,
1094435,-1.0120579,8.839356,-3.3501987,0.274392,-0.30488,0.198172,163.5,-143.70001,-24.900002,,,,,,
1094455,-0.79134315,9.299329,-3.3137121,0.16768399,-0.487808,0.099086,165.90001,-146.1,-22.5,,,,,,
1094519,-1.1149385,8.815431,-3.2317665,-0.106708,-0.57164997,-0.47256398,163.5,-138.90001,-27.300001,,,,,,
1094539,-1.2363615,8.975734,-3.2790198,-0.060976,-0.55640596,-0.487808,168.3,-136.5,-23.7,,,,,,
1094559,-1.2154266,9.15398,-3.2204018,-0.17530599,-0.518296,-0.442076,163.5,-141.3,-24.900002,,,,,,
1094579,-1.0975924,9.1946535,-3.2574866,-0.388722,-0.41158798,-0.586894,165.90001,-141.3,-26.7,,,,,,
1094642,-1.146042,8.897975,-3.2335608,-0.19055,-0.57164997,-0.053354,165.90001,-143.70001,-23.1,,,,,,
1094662,-1.0407687,8.851319,-3.179728,-0.358234,-0.579272,0.160062,165.90001,-138.90001,-26.1,,,,,,
1094682,-0.9325049,8.873451,-3.2012613,-0.388722,-0.510674,0.19055,173.1,-143.70001,-24.300001,,,,,,
1094702,-0.7925394,9.039137,-3.2198036,-0.358234,-0.442076,-0.022866,168.3,-143.70001,-23.7,,,,,,
1094722,-0.65616286,8.829188,-3.1264932,-0.55640596,-0.396344,-0.20579399,165.90001,-141.3,-25.500002,,,,,,
1094742,-0.5108141,8.799879,-3.1558022,-0.67835796,-0.022866,-0.045732,158.70001,-141.3,-24.300001,,,,,,
1094762,-0.41092423,8.882423,-3.299955,-0.777444,0.312502,0.0,170.70001,-141.3,-25.500002,,,,,,
1094782,-0.23746276,9.027772,-3.4680328,-0.846042,0.64787,-0.30488,165.90001,-143.70001,-26.7,,,,,,
1094802,-0.16269489,8.847133,-3.4829865,-1.051836,0.663114,-0.53354,168.3,-146.1,-26.1,,,,,,
1094822,0.08314187,8.530117,-3.5451934,-1.21952,0.81555396,-0.60976,168.3,-143.70001,-26.1,,,,,,
1094842,0.14415246,8.314785,-3.6785793,-1.166166,0.861286,-0.487808,168.3,-146.1,-26.1,,,,,,
1094862,0.24822934,8.457144,-3.6636257,-1.1204339,0.442076,-0.022866,165.90001,-146.1,-27.900002,,,,,,
1094882,0.36666164,8.198148,-3.731814,-1.6311079,0.426832,0.365856,168.3,-143.70001,-25.500002,,,,x,,
1094902,0.75126755,8.323757,-3.9441547,-1.75306,0.68597996,0.81555396,161.1,-141.3,-26.1,,,,x,,
1094922,0.9492529,8.375796,-4.231263,-1.8445239,1.097568,0.442076,163.5,-148.5,-26.7,,,,x,,
1094942,1.1149385,8.205923,-4.3532844,-1.8673899,1.280496,-0.22865999,161.1,-148.5,-27.300001,,,,x,,
1094962,1.911665,8.798085,-4.8928094,-1.8445239,2.560992,-1.3872039,168.3,-148.5,-27.900002,,,,x,,
1094982,2.5983331,8.060575,-4.8497434,-2.09605,2.43904,-3.2774599,173.1,-141.3,-25.500002,,,,x,,
1095006,3.3789096,6.166854,-3.234159,-2.347576,3.7271578,-5.350644,173.1,-141.3,-27.900002,,,,x,,
1095066,3.978847,3.3208897,-1.7633255,-1.8521459,8.811031,-11.433,185.1,-136.5,-25.500002,,,,x,,
1095086,2.8423755,1.6975298,-1.1065645,-2.980202,10.228724,-13.102218,199.50002,-119.700005,-24.900002,,,,x,,
1095106,1.710689,1.3721399,-1.2907926,-2.164648,11.402512,-13.361365,209.1,-119.700005,-26.1,,,,x,,
1095128,0.53653425,0.9301123,-1.1669769,-1.440558,9.824758,-14.82479,213.90001,-114.9,-24.300001,,,,x,,
1095149,-1.0587131,-0.018542431,-0.49107537,0.28201398,7.66011,-14.916254,230.70001,-105.3,-23.1,,,,x,,
1095169,-1.1729584,1.6090046,0.033496007,2.050318,5.29729,-13.094596,235.50002,-95.700005,-21.900002,,,,x,,
1095189,-3.3579745,1.3894861,1.5079185,1.707328,3.993928,-13.437586,245.1,-86.100006,-19.5,,,,x,,
1095209,-3.9315937,4.6074953,1.527059,2.560992,2.6677,-9.992442,249.90001,-76.5,-20.1,,,,x,,
1095233,-6.778754,4.862304,3.229374,1.547266,2.484772,-13.2622795,257.1,-69.3,-18.300001,,,,x,,
1095253,-11.480756,8.074332,0.33137122,2.614346,1.8750119,-8.483286,266.7,-62.100002,-19.5,,,,x,,
1095293,-11.712835,8.953602,2.594146,2.2027578,-6.4786997,-6.486322,276.30002,-47.7,-21.300001,,,,x,,
1095313,-14.591698,11.327632,1.3464198,0.46494198,-5.762232,-2.6829438,283.5,-38.100002,-20.1,,,,x,,
1095337,-12.608255,13.585621,0.84457785,0.182928,-10.78513,-1.699706,290.7,-42.9,-21.300001,,,,x,,
1095357,-15.599568,9.087586,2.095893,1.974098,-11.692148,-5.0533857,293.1,-42.9,-24.300001,,,,x,,
1095379,-16.408855,10.864669,-1.4152063,3.01069,-10.830862,1.044214,288.30002,-35.7,-24.900002,,,,x,,
1095419,-13.663978,13.2004175,1.9026928,3.643316,-17.698284,0.22865999,288.30002,-45.300003,-28.500002,,,,x,,
1095439,-16.696564,12.122563,-3.527249,3.971062,-8.437553,2.141782,290.7,-47.7,-29.1,,,,x,,
1095459,-12.055572,16.24018,-4.9651847,6.66925,-19.009268,6.9588857,293.1,-47.7,-31.500002,,,,x,,
1095479,-16.05954,13.225539,-0.22789247,0.891774,-16.692179,0.586894,288.30002,-45.300003,-35.100002,,,,x,,
1095499,-16.331696,11.670367,-6.904364,8.277492,0.503052,6.996996,281.1,-50.100002,-36.300003,,,,x,,
1095519,-11.813922,17.198404,-10.002147,6.608274,-11.791234,11.7455015,276.30002,-57.300003,-37.5,,,,x,,
1095539,-12.589713,12.437785,-4.2414317,4.809482,-12.614409,5.175338,271.5,-74.100006,-38.100002,,,,x,,
1095562,-12.027459,12.32354,-7.727409,6.722604,-1.554888,8.780544,261.90002,-74.100006,-37.5,,,,x,,
1095582,-10.067943,13.151369,-9.489538,6.006136,-3.338436,10.640312,254.70001,-81.3,-38.7,,,,x,,
1095602,-8.905152,11.821099,-7.5084887,4.740884,-9.192132,9.18451,249.90001,-88.5,-36.9,,,,x,,
1095666,-5.9222136,10.420249,-9.125867,3.8033779,1.3795819,12.660142,223.50002,-105.3,-38.7,,,,x,,
1095686,-4.1594863,10.0583725,-8.525929,2.560992,-0.160062,12.7058735,211.50002,-110.100006,-35.7,,,,x,,
1095706,-3.4536774,8.987697,-7.677165,1.493912,1.6311079,11.448244,201.90001,-119.700005,-34.5,,,,x,,
1095726,-2.6288383,7.832682,-7.483965,1.3643379,3.1859958,9.359816,192.3,-124.50001,-35.100002,,,,x,,
1095749,-0.6555647,6.6011057,-6.6597238,1.783548,2.843006,6.714982,189.90001,-134.1,-35.7,,,,x,,
1095769,-0.8140726,5.5537577,-5.053112,-0.358234,4.1921,7.0351057,180.3,-136.5,-35.100002,,,,x,,
1095789,-0.4635608,5.5071025,-4.9466424,-1.661596,8.910118,7.9192576,175.5,-136.5,-33.300003,,,,x,,
1095809,-0.42408335,4.794714,-4.9675775,-1.501534,9.923843,6.532054,163.5,-138.90001,-33.300003,,,,x,,
1095829,-0.49645868,4.200758,-4.058998,-0.64787,8.95585,5.52595,158.70001,-148.5,-32.100002,,,,x,,
1095851,0.21533147,4.487867,-2.9560225,-0.81555396,8.551884,5.03052,161.1,-143.70001,-32.100002,,,,x,,
1095871,0.2560052,4.1517105,-2.1371648,-1.501534,9.26073,2.606724,151.5,-141.3,-31.500002,,,,x,,
1095891,0.5335435,3.1061563,-1.6125934,-1.1432999,8.811031,-0.015244,151.5,-150.90001,-30.300001,,,,x,,
1095914,-0.105871305,0.8643166,-0.038879294,-0.28201398,8.292736,-2.911604,156.3,-148.5,-30.300001,,,,x,,
1095956,2.0911078,5.225377,-0.535338,4.024416,8.216516,1.173788,153.90001,-150.90001,-25.500002,,,,x,,
1096017,1.4301598,6.3570633,-0.046655152,-2.6905658,9.192132,-1.204276,153.90001,-150.90001,-25.500002,,,,x,,
1096037,1.510311,8.324954,-0.3409415,-2.393308,8.407065,-0.708846,146.70001,-146.1,-25.500002,,,,x,,
1096057,0.77938026,7.7214274,-0.67470527,-3.0488,6.8979096,-3.2088618,151.5,-153.3,-23.1,,,,x,,
1096080,0.44023323,6.9091496,-0.64898515,-1.471046,4.5731997,-2.865872,153.90001,-146.1,-24.300001,,,,x,,
1096100,0.37084866,7.6358933,-0.79553014,-0.34298998,3.3003259,-1.326228,151.5,-146.1,-24.300001,,,,x,,
1096120,0.2715569,8.633595,-1.071274,0.068598,2.446662,-0.274392,149.1,-143.70001,-24.900002,,,,x,,
1096140,-0.004187001,10.0799055,-1.8177565,0.373478,2.2408679,0.365856,153.90001,-146.1,-24.300001,,,,x,,
1096202,-0.6543684,9.253272,-1.8793652,-0.213416,-1.425314,-1.06708,156.3,-146.1,-22.5,,,,x,,
1096266,-1.0006932,9.130652,-2.0193307,-0.99086,-1.6158639,-0.373478,156.3,-141.3,-24.300001,,,,,,
1096286,-1.1358736,9.290955,-2.3859923,-0.46494198,-1.577754,0.03811,156.3,-143.70001,-24.900002,,,,,,
1096307,-1.2549039,8.7520275,-2.530743,0.015244,-1.71495,0.503052,158.70001,-143.70001,-24.300001,,,,,,
1096327,-0.90140146,9.161756,-2.5157893,0.617382,-1.928366,1.280496,158.70001,-146.1,-25.500002,,,,,,
1096347,-0.77997845,8.82859,-2.7927296,0.327746,-1.196654,1.1204339,161.1,-146.1,-25.500002,,,,,,
1096367,-0.62326497,8.918312,-3.1229045,0.708846,-1.1128119,1.02897,158.70001,-146.1,-26.1,,,,,,
1096387,-0.4204945,9.0217905,-3.2975621,0.92226195,-1.166166,0.899396,156.3,-141.3,-25.500002,,,,,,
1096409,-0.3050529,9.130054,-3.2030556,0.525918,-1.18141,0.525918,153.90001,-143.70001,-23.7,,,,,,
1096429,-0.24763119,8.875245,-3.1803262,0.22865999,-1.082324,-0.045732,156.3,-150.90001,-24.300001,,,,,,
1096450,-0.2129389,8.862086,-3.183317,0.17530599,-0.899396,-0.35061198,156.3,-146.1,-24.900002,,,,,,
1096470,-0.25660333,8.7520275,-3.1719522,0.137196,-0.785066,-0.297258,146.70001,-146.1,-23.7,,,,,,
1096490,-0.18542433,8.836366,-2.9655929,0.19055,-0.640248,-0.07622,153.90001,-146.1,-24.900002,,,,,,
1096510,-0.24822934,8.949415,-3.0427532,0.16768399,-0.274392,-0.053354,158.70001,-143.70001,-26.7,,,,,,
1096530,-0.41929823,9.088782,-3.0762494,0.40396598,-0.091464,-0.358234,149.1,-143.70001,-24.900002,,,,,,
1096550,-0.51739365,8.922499,-3.1564004,0.3811,0.060976,-0.83842,156.3,-148.5,-24.900002,,,,,,
1096611,-0.43365365,8.815431,-3.3232822,0.327746,0.160062,-0.708846,161.1,-138.90001,-25.500002,,,,,,
1096632,-0.2769402,8.799879,-3.268253,0.16768399,0.060976,-0.70122397,153.90001,-148.5,-24.300001,,,,,,
1096652,-0.04067372,8.854909,-3.3250768,-0.07622,0.121952,-0.785066,158.70001,-146.1,-26.1,,,,,,
1096674,0.24703304,8.762197,-3.3753207,-0.297258,0.07622,-1.242386,163.5,-143.70001,-24.900002,,,,,,
1096694,0.61190027,8.488247,-3.3777134,-0.312502,0.099086,-1.463424,161.1,-148.5,-24.900002,,,,,,
1096716,0.99052477,9.083998,-3.6139798,0.060976,0.289636,-1.1280559,161.1,-143.70001,-24.900002,,,,,,
1096736,1.4690391,9.597802,-3.8747702,-0.121952,-0.26677,-1.432936,158.70001,-143.70001,-25.500002,,,,,,
1096756,1.6209675,8.692812,-3.564932,-0.907018,-0.80030996,-1.974098,156.3,-143.70001,-26.1,,,,,,
1096776,1.6580523,8.378188,-3.514688,-0.17530599,-0.95274997,-1.730194,168.3,-141.3,-23.7,,,,,,
1096800,1.6604449,8.980518,-3.1235025,-0.083841994,-1.089946,-1.417692,168.3,-141.3,-24.900002,,,,,,
1096820,0.8696999,9.538586,-3.3143103,-0.640248,-0.769822,-2.484772,165.90001,-138.90001,-23.7,,,,,,
1096840,0.4940661,8.958985,-3.2724402,-0.769822,-0.92226195,-3.033556,170.70001,-138.90001,-25.500002,,,,,,
1096862,-0.33256748,10.103831,-3.5398102,1.196654,-1.1128119,-2.2789779,173.1,-136.5,-24.300001,,,,,,
1096882,-0.6471907,10.372397,-3.5505767,0.93750596,-1.3948259,-2.2865999,173.1,-136.5,-24.900002,,,,,,
1096904,-1.6329303,10.258152,-3.350797,0.87653,-1.958854,-2.431418,182.70001,-143.70001,-24.300001,,,,,,
1096924,-1.9397776,10.106822,-2.8214405,0.503052,-2.51526,-2.6829438,175.5,-134.1,-24.300001,,,,,,
1096944,-2.5971367,9.020595,-2.3770201,-0.525918,-1.425314,-2.942092,187.5,-136.5,-26.7,,,,,,
1096964,-3.6612332,7.9086466,-2.6629324,-0.640248,-0.160062,-2.545748,180.3,-136.5,-26.7,,,,,,
1096984,-4.19358,7.626921,-2.9153488,0.40396598,-0.251526,-1.661596,187.5,-131.70001,-25.500002,,,,,,
1097004,-4.4166875,7.175323,-2.6491752,0.868908,-0.846042,-0.967994,187.5,-129.3,-24.300001,,,,,,
1097028,-4.4459968,7.9235997,-2.848955,1.3872039,-0.396344,0.251526,189.90001,-136.5,-24.300001,,,,,,
1097048,-4.1433363,9.399219,-3.3017492,1.4024479,-0.617382,0.53354,180.3,-129.3,-24.900002,,,,,,
1097068,-3.777273,9.368115,-2.9775558,0.480186,-1.41007,-0.7622,185.1,-131.70001,-23.1,,,,,,
1097088,-3.8927145,7.6550336,-2.3530943,-0.327746,-1.3414719,-1.1128119,192.3,-126.9,-26.1,,,,,,
1097108,-3.8885274,7.8416543,-2.2394474,-0.541162,-0.525918,0.022866,192.3,-134.1,-24.900002,,,,,,
1097131,-4.150514,7.5294237,-2.2932801,-0.983238,-0.07622,0.03811,185.1,-136.5,-25.500002,,,,,,
1097151,-4.0231094,8.231046,-2.3608704,-0.45731997,0.137196,-0.030488,187.5,-134.1,-24.900002,,,,,,
1097171,-3.9220235,7.6640058,-2.0653877,-1.006104,0.23628199,-0.72409,194.70001,-131.70001,-23.1,,,,,,
1097195,-3.703103,7.6801558,-1.8811597,-0.777444,0.99086,-0.34298998,187.5,-131.70001,-26.7,,,,,,
1097215,-3.4303498,8.37759,-2.3513,-0.67835796,1.737816,-0.35061198,185.1,-141.3,-26.7,,,,,,
1097235,-3.117521,8.888405,-2.685662,-0.327746,1.989342,-0.34298998,187.5,-134.1,-27.300001,,,,,,
1097255,-2.522967,9.542175,-2.9602096,-0.213416,1.8521459,-0.716468,189.90001,-138.90001,-26.1,,,,,,
1097275,-2.3225892,8.669484,-2.920134,-0.541162,1.935988,-1.1432999,187.5,-131.70001,-24.900002,,,,,,
1097295,-1.8458692,9.265235,-3.4285555,0.068598,2.339954,-0.503052,189.90001,-129.3,-26.1,,,,,,
1097318,-1.409823,9.80476,-3.8729758,0.099086,2.2713559,-0.396344,189.90001,-131.70001,-23.7,,,,,,
1097338,-1.2806242,10.094261,-4.2982554,-0.23628199,2.370442,-0.525918,187.5,-126.9,-24.300001,,,,,,
1097358,-1.1747528,9.428528,-4.3287606,-0.449698,1.760682,-1.166166,185.1,-131.70001,-25.500002,,,,,,
1097378,-0.98215073,9.286768,-4.252198,-0.213416,1.669218,-0.975616,182.70001,-131.70001,-23.7,,,,,,
1097399,-0.7919413,9.692906,-4.5584474,0.33536798,1.814036,-0.708846,187.5,-124.50001,-23.1,,,,,,
1097419,-0.6238631,9.792198,-4.4615483,0.137196,1.150922,-0.80030996,187.5,-134.1,-23.7,,,,,,
1097439,-0.50602895,9.774853,-4.430445,0.015244,1.051836,-0.746956,189.90001,-134.1,-23.7,,,,,,
1097459,-0.25122005,9.482361,-4.264161,-0.312502,0.586894,-0.434454,189.90001,-129.3,-22.5,,,,,,
1097479,-0.18781689,8.841749,-3.8921163,-0.47256398,-0.068598,-0.091464,194.70001,-129.3,-23.1,,,,,,
1097499,0.22310732,8.436209,-3.2580848,-0.28201398,-0.99086,0.663114,187.5,-126.9,-23.1,,,,,,
1097522,0.45399052,8.166446,-3.066679,-0.510674,-1.5929979,0.373478,192.3,-131.70001,-23.7,,,,,,
1097543,0.6172835,7.610173,-2.6742973,-0.251526,-1.974098,0.41158798,192.3,-134.1,-23.7,,,,,,
1097563,0.6250594,8.445779,-2.7759814,0.243904,-1.570132,1.250008,185.1,-129.3,-24.300001,,,,,,
1097583,0.39477435,9.207214,-3.0445478,0.160062,-1.3719599,1.051836,187.5,-129.3,-25.500002,,,,,,
1097603,-0.2966789,8.662905,-3.0888102,0.007622,-1.173788,-0.045732,182.70001,-126.9,-22.5,,,,,,
1097623,-0.8254373,8.67427,-3.1731484,0.46494198,-1.051836,0.26677,182.70001,-131.70001,-26.1,,,,,,
1097643,-1.1801361,8.889601,-3.212626,0.365856,-0.907018,0.33536798,187.5,-131.70001,-25.500002,,,,,,
1097667,-1.5294516,8.714943,-3.2102332,0.129574,-0.83842,0.045732,182.70001,-129.3,-24.900002,,,,,,
1097687,-2.0815375,8.400918,-3.2993567,-0.07622,-0.67073596,-0.11432999,185.1,-129.3,-24.300001,,,,,,
1097711,-2.0719674,8.221476,-3.3053381,0.15244,-1.1128119,0.060976,185.1,-126.9,-24.300001,,,,,,
1097731,-1.6957353,9.125867,-3.3531895,0.426832,-1.1280559,0.137196,187.5,-136.5,-24.300001,,,,,,
1097751,-1.8297193,8.227457,-3.2538977,-0.426832,-0.602138,-0.746956,192.3,-136.5,-24.900002,,,,,,
1097771,-1.7872512,8.6006975,-3.4357333,-0.022866,-0.129574,-0.731712,189.90001,-131.70001,-24.900002,,,,,,
1097791,-1.8542432,8.456545,-3.740786,-0.68597996,0.396344,-1.1356779,187.5,-131.70001,-24.900002,,,,,,
1097811,-2.0277047,8.2549715,-4.120607,-0.95274997,0.80793196,-1.1204339,187.5,-131.70001,-23.7,,,,,,
1097831,-1.7998122,8.643166,-4.51897,-0.45731997,0.57164997,-0.846042,194.70001,-134.1,-23.7,,,,,,
1097851,-1.9714792,8.534304,-4.7588253,-1.1280559,0.967994,-1.1204339,189.90001,-131.70001,-24.900002,,,,,,
1097871,-1.9038891,8.559426,-5.803183,-0.746956,2.378064,-1.1128119,197.1,-129.3,-24.900002,,,,,,
1097891,-1.3410366,8.717934,-6.505403,-0.449698,0.99086,-0.868908,187.5,-134.1,-25.500002,,,,,,
1097911,-0.8738869,7.736381,-6.221285,-0.83842,-0.015244,-0.632626,189.90001,-129.3,-26.7,,,,x,,
1097934,-0.17346147,6.8254094,-6.408504,-0.655492,1.48629,-0.64787,192.3,-129.3,-26.1,,,,x,,
1097954,1.0874239,6.590339,-6.8080635,0.17530599,2.149404,-1.8521459,185.1,-126.9,-24.900002,,,,x,,
1097976,2.4362364,6.3935504,-6.915131,0.434454,1.06708,-3.932952,189.90001,-122.100006,-23.7,,,,x,,
1097996,4.476502,6.0137296,-4.421473,-1.074702,-0.708846,-6.036624,194.70001,-126.9,-25.500002,,,,x,,
1098017,5.108141,4.8670893,-1.7782791,-4.38265,1.326228,-8.711946,204.3,-114.9,-26.1,,,,x,,
1098097,-1.0832369,0.4342518,-1.2549039,-2.004586,12.164712,-10.952814,237.90001,-95.700005,-23.7,,,,x,,
1098124,-2.7054007,1.3063443,-0.82364285,-1.71495,9.336949,-10.922326,242.70001,-95.700005,-22.5,,,,x,,
1098144,-2.799309,2.3279724,-0.6794904,-0.28201398,7.416206,-9.458901,249.90001,-90.9,-19.5,,,,x,,
1098186,-7.4145803,4.099074,0.29608077,-0.099086,6.8521776,-6.265284,259.5,-76.5,-19.5,,,,x,,
1098206,-7.1484065,7.7800455,0.05443101,-0.11432999,3.635694,-4.939056,261.90002,-69.3,-18.300001,,,,x,,
1098226,-7.103546,9.60797,1.6036214,-1.234764,-0.846042,-6.257662,264.30002,-66.9,-18.300001,,,,x,,
1098248,-10.057774,9.957884,1.1603974,-0.769822,0.327746,-5.785098,259.5,-64.5,-18.900002,,,,x,,
1098288,-10.086485,11.65362,3.0612957,-0.754578,-6.036624,-4.771372,273.90002,-54.9,-21.900002,,,,x,,
1098350,-12.349858,14.970323,1.2016692,1.989342,-11.593061,1.6082419,273.90002,-54.9,-23.7,,,,x,,
1098420,-13.724989,17.352127,0.17166704,0.70122397,-12.50008,6.3872356,264.30002,-66.9,-29.7,,,,x,,
1098440,-18.190723,12.605265,-4.2856946,1.48629,-1.432936,5.419242,264.30002,-74.100006,-31.500002,,,,x,,
1098480,-10.540476,16.341864,-0.39776507,0.28201398,-21.105318,8.468041,249.90001,-86.100006,-33.9,,,,x,,
1098500,-13.635267,11.671564,-3.2239907,2.7286758,-2.637212,4.5274677,242.70001,-88.5,-33.9,,,,x,,
1098520,-11.867755,11.81452,-9.073231,7.789684,2.538126,9.22262,249.90001,-90.9,-33.9,,,,x,,
1098560,-8.865675,11.714032,-6.229659,3.84911,-10.21348,8.932983,235.50002,-102.9,-33.300003,,,,x,,
1098596,-4.9257073,10.276694,-8.204727,2.080806,-4.672286,11.577818,213.90001,-117.3,-33.300003,,,,x,,
1098616,-4.284498,9.834667,-7.483965,-0.23628199,-2.606724,10.411652,204.3,-122.100006,-34.5,,,,x,,
1098656,-0.8481667,6.9504213,-9.720422,-0.28201398,-1.059458,10.655556,187.5,-129.3,-34.5,,,,x,,
1098676,0.4551868,6.882233,-6.1219935,-3.025934,-5.251558,10.411652,182.70001,-134.1,-35.7,,,,x,,
1098696,1.1245087,5.941952,-5.995187,-0.55640596,3.2545938,8.254626,175.5,-141.3,-35.100002,,,,x,,
1098716,0.72794,4.9603996,-7.082611,0.907018,5.884184,6.272906,165.90001,-146.1,-33.9,,,,x,,
1098736,1.8117751,5.062682,-6.096273,2.827762,2.949714,5.0838737,156.3,-146.1,-33.300003,,,,x,,
1098756,2.6144829,5.5077004,-4.547083,2.080806,3.140264,4.093014,156.3,-141.3,-35.100002,,,,x,,
1098779,2.3662536,5.668601,-4.117018,0.251526,7.743952,2.6981878,153.90001,-148.5,-33.9,,,,x,,
1098841,1.1185274,4.5698123,-4.36764,1.021348,10.388785,1.006104,144.3,-153.3,-31.500002,,,,x,,
1098904,1.430758,5.6787696,-3.0182295,-1.432936,9.275973,0.81555396,146.70001,-150.90001,-28.500002,,,,x,,
1098924,1.2770352,4.6242433,-1.4965537,-2.6677,8.239382,-1.966476,144.3,-150.90001,-29.1,,,,x,,
1098946,1.824336,5.1721425,-1.4074304,-1.821658,8.856764,-1.463424,144.3,-155.70001,-25.500002,,,,x,,
1098966,1.3601772,6.162069,-0.5514878,-2.7820299,7.743952,-1.814036,146.70001,-150.90001,-26.1,,,,x,,
1098986,1.5150962,6.7542305,-0.36905423,-2.050318,7.3780956,-2.2789779,146.70001,-150.90001,-27.900002,,,,x,,
1099006,1.2555021,6.3229694,0.1614986,-1.318606,5.853696,-2.32471,146.70001,-148.5,-27.900002,,,,x,,
1099026,1.795027,7.710661,0.44800907,-0.998482,4.237832,-0.655492,151.5,-153.3,-27.900002,,,,x,,
1099049,1.6072102,8.504995,0.7901469,-1.227142,4.15399,-0.746956,146.70001,-150.90001,-26.7,,,,x,,
1099069,1.3655604,9.345386,0.28710863,-0.846042,3.879598,-0.777444,149.1,-146.1,-26.1,,,,x,,
1099093,-0.093310304,8.899769,-0.66992015,-1.006104,3.079288,-2.530504,151.5,-148.5,-25.500002,,,,x,,
1099113,-0.82842803,8.57438,-0.9420752,0.327746,1.71495,-2.332332,156.3,-148.5,-25.500002,,,,x,,
1099133,-1.5892658,10.13972,-1.8129714,1.3567159,1.166166,-1.33385,158.70001,-146.1,-25.500002,,,,x,,
1099155,-1.8512524,10.353855,-2.0815375,-0.060976,-0.3811,-1.94361,158.70001,-146.1,-25.500002,,,,x,,
1099175,-2.308832,9.501501,-2.1706607,0.160062,-1.204276,-2.7439198,156.3,-143.70001,-25.500002,,,,x,,
1099195,-2.2532046,9.524829,-2.5439022,0.548784,-1.8445239,-1.722572,161.1,-138.90001,-25.500002,,,,x,,
1099215,-2.175446,9.374695,-2.497845,0.57164997,-2.7210538,-0.7622,156.3,-141.3,-27.300001,,,,x,,
1099235,-1.5629476,9.896873,-2.3243835,0.68597996,-2.7058098,0.320124,153.90001,-143.70001,-24.900002,,,,x,,
1099257,-1.2734464,9.847826,-2.2741396,-0.129574,-2.17227,0.19055,165.90001,-146.1,-26.7,,,,x,,
1099277,-1.4756187,9.483557,-2.5582576,-0.35061198,-1.6006199,-0.3811,158.70001,-146.1,-26.7,,,,x,,
1099297,-1.6269488,9.06067,-2.8100758,0.03811,-1.6234859,-0.72409,163.5,-148.5,-27.900002,,,,x,,
1099317,-1.6526691,9.085792,-2.7586353,0.503052,-1.920744,-0.510674,165.90001,-141.3,-26.1,,,,x,,
1099341,-1.3619715,9.398621,-2.840581,0.69360197,-1.9054999,-0.449698,163.5,-146.1,-27.900002,,,,x,,
1099361,-1.3368496,9.105531,-2.8537402,0.243904,-1.56251,-0.625004,161.1,-150.90001,-26.7,,,,x,,
1099383,-1.2483244,8.911134,-3.0600994,0.160062,-1.196654,-0.259148,161.1,-136.5,-27.900002,,,,x,,
1099404,-1.0987886,8.838758,-3.1641762,0.373478,-1.06708,0.137196,163.5,-150.90001,-26.7,,,,x,,
1099445,-0.7943339,9.11869,-2.9566207,0.426832,-0.754578,0.602138,165.90001,-146.1,-27.300001,,,,x,,
1099465,-0.8397927,8.868068,-3.0301924,0.137196,-0.60976,0.373478,158.70001,-141.3,-26.7,,,,x,,
1099486,-0.80510044,8.875844,-3.0283978,0.40396598,-0.663114,0.541162,163.5,-146.1,-25.500002,,,,x,,
1099506,-0.71597713,8.714943,-2.920732,0.442076,-0.632626,0.602138,163.5,-138.90001,-26.1,,,,x,,
1099526,-0.5000475,9.0217905,-2.89561,0.541162,-0.449698,0.56402797,161.1,-150.90001,-26.1,,,,x,,
1099546,-0.35110992,9.085194,-2.8812547,0.297258,-0.19055,0.19055,153.90001,-138.90001,-26.1,,,,x,,
1099566,-0.5144029,8.821412,-3.0140424,-0.19055,0.07622,-0.15244,158.70001,-148.5,-25.500002,,,,,,
1099586,-0.62984455,8.4816675,-2.9751632,0.083841994,0.121952,-0.251526,158.70001,-141.3,-26.1,,,,,,
1099606,-0.50842154,8.863881,-3.0744548,0.487808,0.129574,-0.11432999,156.3,-146.1,-26.7,,,,,,
1099627,-0.5443101,9.323255,-3.1151285,0.625004,0.358234,-0.20579399,158.70001,-148.5,-27.900002,,,,,,
1099648,-0.8062967,9.330432,-3.1725502,0.182928,0.289636,-0.95274997,158.70001,-146.1,-24.900002,,,,,,
1099668,-0.72076225,9.021193,-3.054716,0.182928,0.221038,-0.830798,158.70001,-143.70001,-24.900002,,,,,,
1099688,-0.803306,8.8489275,-3.1246989,0.083841994,0.26677,-0.503052,161.1,-148.5,-24.900002,,,,,,
1099708,-0.8738869,9.115699,-3.1773355,0.221038,0.198172,0.03811,158.70001,-146.1,-27.300001,,,,,,
1099748,-0.73511773,9.106129,-3.1199138,-0.23628199,-0.22865999,0.022866,161.1,-148.5,-27.300001,,,,,,
1099768,-0.6573591,8.6647,-3.0248091,-0.388722,-0.327746,0.07622,163.5,-148.5,-26.1,,,,,,
1099788,-0.916355,8.538491,-3.0828288,-0.23628199,-0.23628199,0.41158798,161.1,-143.70001,-28.500002,,,,,,
1099808,-0.78595984,9.145008,-3.2186074,0.091464,-0.586894,0.67835796,161.1,-148.5,-24.300001,,,,,,
1099828,-0.58558196,9.0977545,-3.0182295,-0.07622,-0.95274997,0.33536798,156.3,-148.5,-24.300001,,,,,,
1099850,-0.45458865,8.822011,-2.7598317,-0.388722,-0.92988396,0.17530599,158.70001,-143.70001,-25.500002,,,,,,
1099874,-0.40374652,8.830384,-2.7406912,-0.41921,-0.548784,0.30488,156.3,-146.1,-27.300001,,,,,,
1099894,-0.44322395,8.921901,-2.8429735,-0.449698,-0.365856,0.221038,158.70001,-143.70001,-27.900002,,,,,,
1099914,-0.42946666,8.939247,-2.8100758,-0.33536798,-0.373478,0.083841994,156.3,-143.70001,-26.1,,,,,,
1099934,-0.41810194,8.73528,-2.7119803,-0.30488,-0.358234,-0.091464,153.90001,-148.5,-26.7,,,,,,
1099955,-0.35828763,8.623427,-2.6994193,-0.20579399,-0.22865999,-0.099086,151.5,-148.5,-26.1,,,,,,
1099975,-0.29428634,9.140223,-2.9853315,0.083841994,0.053354,0.0,158.70001,-150.90001,-27.300001,,,,,,
1100037,-0.11364716,9.10254,-3.3944614,-0.320124,-0.358234,-0.449698,156.3,-146.1,-27.300001,,,,,,
1100059,-0.105273165,9.193458,-3.4680328,-0.045732,-0.28201398,-0.396344,158.70001,-146.1,-25.500002,,,,x,,
1100080,0.5682358,9.744946,-3.8472557,-0.442076,0.45731997,-0.434454,156.3,-146.1,-26.7,,,,x,,
1100100,0.95044917,9.28617,-3.8496482,-1.539644,0.95274997,-1.509156,158.70001,-146.1,-26.7,,,,x,,
1100120,1.2614836,8.469705,-3.1432414,-1.974098,1.173788,-1.8597679,161.1,-148.5,-26.1,,,,x,,
1100140,1.9218334,8.423648,-3.5170808,-1.8902559,3.2545938,-2.004586,161.1,-143.70001,-26.1,,,,x,,
1100160,2.1473334,7.2183895,-3.9477437,-1.730194,4.1921,-4.657042,165.90001,-146.1,-27.900002,,,,x,,
1100180,3.2060463,5.5292335,-3.694131,-0.320124,3.559474,-6.410102,165.90001,-141.3,-25.500002,,,,x,,
1100200,4.2480116,4.7743773,-3.5176787,-0.487808,5.152472,-6.78358,170.70001,-136.5,-27.900002,,,,x,,
1100220,4.1074476,4.3897715,-4.103859,-1.074702,7.4085836,-7.804928,177.90001,-136.5,-26.1,,,,x,,
1100241,4.054213,3.8077781,-4.0314837,-0.861286,6.9131536,-9.367437,185.1,-136.5,-26.1,,,,x,,
1100261,3.5152862,1.710689,-2.7855518,-2.13416,7.08846,-11.387268,185.1,-124.50001,-24.900002,,,,x,,
1100281,2.9291062,0.6753034,-2.4625547,-2.606724,8.742434,-11.196718,194.70001,-122.100006,-23.7,,,,x,,
1100347,-2.1150336,-0.6447981,0.35709137,-0.45731997,5.52595,-11.341536,225.90001,-102.9,-20.7,,,,x,,
1100409,-5.473606,5.3312483,1.4636558,1.798792,3.12502,-7.6067557,245.1,-93.3,-18.300001,,,,x,,
1100429,-7.0521054,7.576677,1.4367394,1.951232,0.632626,-4.679908,242.70001,-81.3,-19.5,,,,x,,
1100450,-8.469107,9.497912,1.1197237,1.3795819,0.785066,-3.7805119,242.70001,-86.100006,-18.300001,,,,x,,
1100470,-9.610961,12.313372,-1.8889354,3.2469718,0.68597996,-1.440558,247.50002,-86.100006,-20.1,,,,x,,
1100493,-11.5268135,12.138115,-0.7500713,2.2408679,-8.010722,-3.117398,245.1,-74.100006,-17.7,,,,x,,
1100513,-11.05129,12.718912,-0.7895487,2.012208,-9.22262,-1.1432999,259.5,-81.3,-20.7,,,,x,,
1100536,-11.204414,16.412445,-3.2903845,3.2545938,-6.234796,3.2088618,261.90002,-69.3,-21.300001,,,,x,,
1100556,-11.768463,17.981375,-3.7252345,1.3948259,-10.411652,2.2789779,249.90001,-74.100006,-22.5,,,,x,,
1100577,-10.117588,16.651703,-2.3148134,2.378064,-13.208925,1.94361,259.5,-78.9,-23.7,,,,x,,
1100597,-9.837657,15.640243,0.14774132,-0.20579399,-12.279041,1.989342,257.1,-81.3,-24.900002,,,,x,,
1100639,-11.039925,16.301191,-5.597422,4.5579557,-10.373542,7.4848037,257.1,-88.5,-27.900002,,,,x,,
1100659,-7.969059,15.514034,-0.4456165,1.318606,-19.74098,4.939056,249.90001,-83.700005,-28.500002,,,,x,,
1100679,-11.653022,11.13503,-1.2931851,0.975616,-7.08846,2.347576,249.90001,-88.5,-29.7,,,,x,,
1100699,-11.036336,11.291145,-6.622639,5.724122,-1.4024479,6.379614,249.90001,-90.9,-29.1,,,,x,,
1100719,-8.143717,12.980899,-6.4031205,5.0991178,-14.763814,7.69822,237.90001,-95.700005,-31.500002,,,,x,,
1100739,-7.790214,12.414457,-4.1277847,3.879598,-11.73788,6.547298,237.90001,-102.9,-30.300001,,,,x,,
1100759,-8.500808,8.702382,-7.743559,5.7165,-2.111294,4.809482,223.50002,-107.700005,-31.500002,,,,x,,
1100780,-6.5377026,9.310694,-9.013416,6.890288,-3.932952,7.20279,223.50002,-107.700005,-30.900002,,,,x,,
1100800,-4.9723625,13.259633,-6.8553166,2.2789779,-11.577818,9.733294,221.1,-100.50001,-34.5,,,,x,,
1100820,-7.376299,10.797677,-8.088089,3.117398,3.513742,4.413138,211.50002,-114.9,-32.100002,,,,x,,
1100882,-3.268253,10.268919,-7.6807537,-1.082324,-6.4939437,8.429932,197.1,-126.9,-32.100002,,,,x,,
1100902,-2.0139475,9.256861,-8.312991,-0.525918,-1.806414,7.911636,185.1,-131.70001,-33.300003,,,,x,,
1100922,-0.64898515,8.528322,-8.380581,-0.663114,-1.783548,8.368956,177.90001,-136.5,-33.300003,,,,x,,
1100942,-0.07117901,8.818421,-7.1478086,-0.69360197,-2.6829438,8.11743,170.70001,-138.90001,-33.300003,,,,x,,
1101009,-0.1782466,7.312298,-5.841464,-1.692084,4.207344,6.158576,156.3,-150.90001,-33.9,,,,x,,
1101049,0.7626323,5.2738266,-3.5242584,-1.8597679,5.091496,2.85825,144.3,-143.70001,-33.9,,,,x,,
1101183,2.4864802,5.089,-0.56225437,-2.378064,13.437586,-1.059458,139.5,-160.5,-30.900002,,,,x,,
1101223,1.0676852,5.090795,-1.3864954,-1.3414719,13.68149,-3.109776,137.1,-155.70001,-29.1,,,,x,,
1101243,0.5371324,5.560337,-1.2010711,-0.289636,12.164712,-4.253076,144.3,-153.3,-27.900002,,,,x,,
1101263,0.13697474,6.179415,-1.2519132,0.327746,11.433,-4.740884,144.3,-153.3,-26.7,,,,x,,
1101307,0.6124984,8.076725,-0.51978624,-0.07622,8.940606,-4.329296,149.1,-148.5,-26.7,,,,x,,
1101327,-0.4079335,7.2871757,-0.7961283,-1.6082419,8.757678,-4.53509,149.1,-150.90001,-26.1,,,,x,,
1101368,-0.9935155,8.339908,-1.409823,0.289636,6.455834,-1.783548,153.90001,-143.70001,-25.500002,,,,x,,
1101389,-0.8601296,8.703578,-1.4415245,0.41921,4.4512477,-0.93750596,153.90001,-150.90001,-24.300001,,,,x,,
1101409,-0.64180744,10.303013,-2.1640813,1.097568,3.7957559,0.137196,156.3,-150.90001,-21.300001,,,,x,,
1101429,-0.9043922,10.140318,-2.1521184,0.121952,1.547266,-1.3414719,153.90001,-150.90001,-23.7,,,,x,,
1101451,-0.9660009,9.265833,-2.0809393,0.03811,-0.060976,-1.6158639,153.90001,-148.5,-23.1,,,,x,,
1101471,-0.95942134,9.585241,-2.0342844,0.365856,-0.830798,-1.18141,161.1,-143.70001,-21.900002,,,,x,,
1101491,-1.4947593,10.23303,-2.950041,0.30488,-0.899396,-1.1204339,158.70001,-148.5,-23.1,,,,x,,
1101511,-1.869795,9.360339,-2.9195359,0.160062,-2.621968,-1.684462,158.70001,-146.1,-20.7,,,,x,,
1101531,-1.7549515,9.212,-2.7867482,0.40396598,-3.2927039,-1.1051899,161.1,-141.3,-23.7,,,,x,,
1101551,-1.7884475,9.382471,-3.171354,0.28201398,-3.2317278,-0.754578,158.70001,-146.1,-24.300001,,,,x,,
1101571,-1.7142777,8.868666,-2.962004,-0.03811,-3.8262439,-0.548784,163.5,-141.3,-22.5,,,,x,,
1101593,-1.5767049,9.014613,-2.9990888,-0.26677,-3.567096,0.23628199,168.3,-143.70001,-23.7,,,,x,,
1101613,-1.6155841,8.865077,-3.1689615,-0.632626,-3.338436,0.426832,163.5,-143.70001,-24.300001,,,,x,,
1101633,-1.3667567,8.601894,-2.9177413,-0.53354,-3.6890478,0.777444,165.90001,-143.70001,-23.7,,,,x,,
1101653,-1.2261931,8.527126,-2.7418873,-0.518296,-3.376546,1.189032,163.5,-143.70001,-24.900002,,,,x,,
1101673,-0.9091773,8.823805,-2.6701102,-0.388722,-3.003068,1.326228,163.5,-138.90001,-24.900002,,,,x,,
1101697,-0.35709137,9.301124,-2.6240532,-0.16768399,-2.157026,1.1432999,161.1,-146.1,-26.7,,,,x,,
1101717,-0.1824336,9.594811,-2.682073,0.060976,-1.661596,0.70122397,161.1,-143.70001,-26.1,,,,x,,
1101738,-0.29847333,9.450061,-2.7490652,0.0,-1.310984,0.221038,163.5,-148.5,-25.500002,,,,x,,
1101758,-0.40015766,9.260449,-2.823833,0.16768399,-1.1204339,0.160062,156.3,-150.90001,-26.1,,,,x,,
1101778,-0.35110992,9.378881,-2.8429735,0.388722,-0.967994,0.137196,163.5,-143.70001,-26.7,,,,x,,
1101800,-0.3050529,9.312488,-2.798711,0.137196,-0.80793196,0.030488,158.70001,-138.90001,-24.900002,,,,x,,
1101820,-0.3702505,9.194056,-2.9715743,-0.053354,-0.525918,-0.07622,158.70001,-143.70001,-26.1,,,,x,,
1101844,-0.47253296,9.244898,-3.083427,0.19055,-0.56402797,0.015244,156.3,-143.70001,-24.900002,,,,x,,
1101865,-0.4689441,8.8381605,-2.936882,0.03811,-0.640248,0.106708,156.3,-143.70001,-25.500002,,,,x,,
1101885,-0.19858347,9.077417,-2.7903368,0.121952,-0.426832,0.541162,156.3,-141.3,-27.300001,,,,x,,
1101905,-0.16269489,9.050501,-2.86989,-0.434454,-0.20579399,0.57164997,161.1,-146.1,-24.900002,,,,x,,
1101969,-0.24224791,9.045118,-2.6844656,0.144818,-0.861286,0.129574,161.1,-146.1,-25.500002,,,,x,,
1101989,-0.19379832,9.312488,-2.5756037,-0.015244,-0.884152,-0.083841994,151.5,-148.5,-26.7,,,,x,,
1102009,-0.28052905,9.214393,-2.6180718,-0.45731997,-0.731712,-0.373478,153.90001,-146.1,-25.500002,,,,x,,
1102053,-0.3869985,8.645558,-2.652166,-0.106708,-0.80030996,-0.57164997,153.90001,-148.5,-25.500002,,,,x,,
1102083,-0.19918162,9.176111,-2.6964285,0.28201398,-0.70122397,-0.327746,165.90001,-150.90001,-26.1,,,,x,,
1102103,-0.3200065,9.243702,-2.7263358,-0.068598,-0.30488,-0.55640596,156.3,-146.1,-26.1,,,,x,,
1102143,-0.45638308,9.108521,-2.9045823,0.053354,-0.030488,-0.80793196,161.1,-143.70001,-26.7,,,,x,,
1102164,-0.6615461,9.043921,-2.8555346,0.106708,-0.030488,-0.56402797,161.1,-150.90001,-26.7,,,,,,
1102185,-0.88943857,9.053492,-2.9279099,0.07622,-0.144818,-0.297258,161.1,-146.1,-26.1,,,,,,
1102205,-0.90798104,9.12168,-2.9482467,0.045732,-0.3811,-0.060976,158.70001,-148.5,-24.900002,,,,,,
1102228,-0.9091773,9.043921,-2.9560225,0.0,-0.594516,-0.121952,161.1,-143.70001,-24.900002,,,,,,
1102248,-0.7943339,9.201233,-2.903984,0.11432999,-0.731712,-0.022866,163.5,-143.70001,-26.1,,,,,,
1102269,-0.69803286,9.058875,-2.8387866,-0.17530599,-0.655492,0.0,163.5,-148.5,-26.7,,,,,,
1102289,-1.1340791,8.563015,-3.0343792,-0.327746,-0.586894,0.19055,163.5,-143.70001,-26.7,,,,,,
1102309,-1.2812222,8.920704,-3.263468,0.358234,-1.25763,1.3490939,158.70001,-148.5,-25.500002,,,,,,
1102329,-0.8003153,9.311292,-2.589361,-0.11432999,-2.157026,1.8978779,158.70001,-148.5,-25.500002,,,,,,
1102352,-0.2643792,9.528418,-2.665923,-1.196654,-1.5929979,1.79117,151.5,-150.90001,-27.900002,,,,,,
1102372,-0.43365365,8.474489,-2.7000175,-1.75306,-1.310984,0.891774,156.3,-153.3,-26.1,,,,,,
1102392,-0.19858347,8.469107,-2.4781063,-0.503052,-1.417692,0.998482,158.70001,-150.90001,-27.900002,,,,,,
1102412,0.07536601,8.6001,-2.363263,-0.396344,-0.632626,0.792688,153.90001,-146.1,-27.300001,,,,,,
1102435,-0.17346147,8.931471,-2.7771778,0.40396598,0.251526,0.17530599,153.90001,-153.3,-26.7,,,,,,
1102455,-0.18422803,8.926087,-2.9195359,0.72409,0.23628199,-0.41921,151.5,-146.1,-26.7,,,,,,
1102475,-0.09151588,8.859096,-3.0487347,0.792688,0.434454,-0.594516,149.1,-153.3,-29.1,,,,,,
1102499,-0.18422803,8.915321,-3.371732,0.7622,0.60976,-0.56402797,151.5,-146.1,-26.7,,,,,,
1102519,-0.10646945,9.022986,-3.447098,0.7622,0.617382,-0.586894,156.3,-150.90001,-26.1,,,,,,
1102539,0.12860073,9.365125,-3.7838523,0.53354,0.853664,-0.769822,153.90001,-148.5,-26.7,,,,,,
1102561,-0.03409415,9.281384,-4.320985,0.251526,1.288118,-1.059458,151.5,-155.70001,-26.1,,,,,,
1102581,0.33795077,9.693505,-4.690039,0.46494198,0.541162,-0.80030996,151.5,-146.1,-27.300001,,,,,,
1102601,0.99710435,9.884911,-4.685852,-0.47256398,0.41158798,-1.242386,149.1,-148.5,-26.1,,,,,,
1102621,1.2058562,8.48107,-4.5865602,-1.67684,1.051836,-2.05794,156.3,-146.1,-25.500002,,,,,,
1102641,1.0174412,6.569404,-4.5716066,-1.1356779,1.417692,-1.958854,158.70001,-148.5,-27.900002,,,,x,,
1102663,2.1234076,5.2983503,-4.5488772,0.251526,0.70122397,-0.40396598,163.5,-143.70001,-26.7,,,,x,,
1102683,4.995092,7.224371,-5.100963,0.868908,0.87653,0.03811,156.3,-143.70001,-25.500002,,,,x,,
1102703,5.330052,6.388765,-4.0763445,-0.792688,1.3643379,-3.597584,163.5,-141.3,-26.1,,,,x,,
1102723,5.2343493,5.459849,-4.104457,-2.7362978,5.14485,-7.0046177,158.70001,-138.90001,-26.7,,,,x,,
1102747,4.2527966,3.4088168,-3.844863,-3.993928,7.446694,-11.615928,170.70001,-138.90001,-24.900002,,,,x,,
1102787,1.7962234,1.5868733,-1.8422804,-4.9161897,9.664696,-15.47266,185.1,-124.50001,-27.300001,,,,x,,
1102807,1.0353855,0.9103736,-1.1382661,-4.45887,10.030552,-16.593094,204.3,-119.700005,-24.900002,,,,x,,
1102827,-0.8487649,-0.45399052,-0.1268063,-3.986306,9.779026,-16.852242,209.1,-112.50001,-24.300001,,,,x,,
1102869,-1.8530469,2.233466,1.3248867,-1.013726,7.187546,-11.50922,230.70001,-100.50001,-23.7,,,,x,,
1102889,-3.7551415,3.1145306,2.5247614,-1.1356779,7.804928,-11.844587,240.3,-93.3,-23.1,,,,x,,
1102911,-5.982028,4.0584,1.8147658,1.3567159,4.009172,-11.128119,249.90001,-83.700005,-20.7,,,,x,,
1102933,-6.0215054,4.8210325,2.9799483,2.17227,0.663114,-8.445176,249.90001,-78.9,-20.7,,,,x,,
1102953,-7.7333903,6.3277545,2.3740294,1.775926,-0.11432999,-5.67839,254.70001,-71.700005,-19.5,,,,x,,
1102973,-9.5661,8.889601,1.2866055,3.2545938,-2.050318,-2.560992,264.30002,-71.700005,-20.1,,,,x,,
1102993,-10.961568,12.450944,-0.6029281,2.484772,-4.443626,-2.195136,264.30002,-69.3,-18.900002,,,,x,,
1103013,-11.242695,9.834068,0.0077758585,2.873494,-9.291218,-5.9680257,271.5,-62.100002,-21.900002,,,,x,,
1103033,-11.24449,11.004036,1.564742,3.018312,-12.469592,-1.18141,273.90002,-62.100002,-20.7,,,,x,,
1103053,-12.949796,12.866653,0.06998273,-0.106708,-9.283596,0.022866,271.5,-64.5,-23.7,,,,x,,
1103077,-13.327822,14.066528,-1.117331,2.195136,-11.577818,1.021348,273.90002,-57.300003,-23.7,,,,x,,
1103097,-12.233818,14.606053,0.7105939,0.95274997,-14.893388,0.47256398,271.5,-59.7,-30.300001,,,,x,,
1103121,-17.339567,11.786407,-2.2071476,1.577754,-8.46042,0.95274997,271.5,-57.300003,-32.100002,,,,x,,
1103141,-11.736761,18.169788,-6.119601,6.204308,-12.15709,9.214998,269.1,-62.100002,-31.500002,,,,x,,
1103162,-11.950298,19.027527,-1.6018269,0.754578,-18.849205,4.0777698,266.7,-71.700005,-33.300003,,,,x,,
1103183,-17.718191,12.995852,-5.0028677,3.864354,-2.614346,1.440558,266.7,-69.3,-34.5,,,,x,,
1103203,-11.362922,17.044085,-10.8251915,7.69822,-8.353712,10.503116,261.90002,-78.9,-32.7,,,,x,,
1103223,-10.239012,16.590094,-4.0225115,-0.388722,-24.260826,6.3567476,261.90002,-90.9,-36.300003,,,,x,,
1103244,-12.817606,11.362324,-3.7910302,6.067112,-5.274424,3.871976,245.1,-86.100006,-37.5,,,,x,,
1103264,-10.372995,14.901536,-10.328135,9.1463995,2.7515419,11.867454,247.50002,-86.100006,-36.300003,,,,x,,
1103284,-8.688026,16.270086,-9.01222,3.094532,-12.256176,10.36592,237.90001,-93.3,-36.9,,,,x,,
1103304,-8.134745,13.899048,-5.58187,3.6890478,-11.570196,7.5000477,225.90001,-100.50001,-38.7,,,,x,,
1103324,-7.6801558,11.743939,-6.442,3.871976,-3.7424018,7.339986,221.1,-105.3,-38.7,,,,x,,
1103344,-6.4671216,11.466999,-7.460637,2.13416,-1.928366,10.106771,221.1,-107.700005,-37.5,,,,x,,
1103405,-3.7964134,7.9708533,-7.0885925,2.012208,-0.92226195,8.742434,192.3,-122.100006,-36.9,,,,x,,
1103425,-2.3871887,8.0611725,-6.0807214,1.547266,-0.320124,9.275973,187.5,-134.1,-36.9,,,,x,,
1103445,-1.4696373,7.8595986,-6.1297693,1.3414719,2.2256238,6.714982,177.90001,-129.3,-36.9,,,,x,,
1103465,-1.5348349,5.565122,-6.300838,1.6006199,3.7728899,3.330814,173.1,-136.5,-35.7,,,,x,,
1103485,-0.6172835,4.7935176,-6.1698446,1.18141,3.368924,4.68753,170.70001,-141.3,-32.100002,,,,x,,
1103505,0.44202766,5.7804537,-4.6756835,-0.160062,3.018312,5.114362,170.70001,-143.70001,-33.300003,,,,x,,
1103525,0.8589333,4.7671995,-3.6977198,-0.56402797,5.75461,2.7972739,163.5,-143.70001,-34.5,,,,x,,
1103545,1.2285857,4.008156,-2.9219284,-1.692084,7.5610237,2.507638,163.5,-138.90001,-33.300003,,,,x,,
1103565,0.55208594,3.0642865,-2.0683784,-3.041178,10.6936655,2.431418,158.70001,-146.1,-33.300003,,,,x,,
1103585,0.4593738,3.2138221,-2.552874,-2.812518,13.003132,2.919226,158.70001,-150.90001,-32.100002,,,,x,,
1103605,0.32419348,2.7065969,-1.8536451,-2.6905658,11.577818,1.8902559,156.3,-148.5,-32.7,,,,x,,
1103625,1.083835,2.7580373,-0.8840553,-2.2713559,10.609824,2.187514,156.3,-148.5,-31.500002,,,,x,,
1103647,1.7435868,3.928005,-0.5054308,-2.355198,12.751606,1.737816,149.1,-148.5,-30.300001,,,,x,,
1103667,1.9732736,3.8891256,-0.37264308,-2.09605,12.888802,0.67073596,153.90001,-158.1,-29.7,,,,x,,
1103687,2.530743,5.159581,-0.3828115,-1.18141,12.362884,0.92226195,149.1,-155.70001,-29.1,,,,x,,
1103707,2.5157893,5.3683333,0.2895012,-1.6006199,12.096114,-0.35061198,146.70001,-153.3,-30.300001,,,,x,,
1103727,2.4374325,6.1064415,-0.4677478,-1.173788,12.789716,-0.510674,141.90001,-150.90001,-29.1,,,,x,,
1103768,1.8602246,7.969657,-0.44442022,0.60976,8.445176,-0.91463995,149.1,-153.3,-27.300001,,,,x,,
1103788,1.2226043,9.0756235,-0.35828763,0.769822,7.057972,-1.737816,144.3,-153.3,-24.300001,,,,x,,
1103809,0.3493155,9.568493,-0.78895056,0.67073596,4.9466777,-2.7134318,139.5,-150.90001,-26.1,,,,x,,
1103829,-0.38640037,8.785524,-0.9211402,0.182928,2.873494,-3.2164838,144.3,-150.90001,-26.7,,,,x,,
1103873,-0.9253272,9.177308,-1.7118852,1.67684,0.34298998,-0.746956,153.90001,-146.1,-24.900002,,,,x,,
1103893,-1.1819305,10.185777,-2.4326475,1.150922,-0.274392,0.007622,153.90001,-146.1,-24.300001,,,,x,,
1103913,-1.1723602,9.775451,-2.3058412,0.434454,-1.722572,-0.769822,149.1,-150.90001,-22.5,,,,x,,
1103933,-1.196286,9.767674,-2.3441224,0.221038,-1.98172,-0.586894,158.70001,-146.1,-26.1,,,,x,,
1103953,-1.4193933,9.391443,-2.3273742,-0.49543,-2.431418,-0.327746,149.1,-148.5,-24.900002,,,,x,,
1103976,-1.113144,9.477575,-2.2460268,-0.358234,-3.147886,0.221038,153.90001,-143.70001,-26.1,,,,x,,
1103996,-0.7476787,9.686926,-2.1646795,-0.289636,-3.1936178,0.297258,153.90001,-143.70001,-24.900002,,,,,,
1104016,-0.38400778,9.368713,-1.8721875,-0.49543,-2.980202,0.160062,156.3,-150.90001,-24.900002,,,,,,
1104036,-0.3576895,9.33761,-2.0863228,-0.525918,-2.118916,0.03811,156.3,-153.3,-26.7,,,,,,
1104056,-0.55986184,8.964369,-2.459564,-0.19055,-1.570132,-0.23628199,151.5,-150.90001,-24.900002,,,,,,
1104076,-0.58259124,8.631203,-2.5612483,0.53354,-1.585376,-0.3811,156.3,-150.90001,-26.7,,,,,,
1104096,-0.36307278,8.841151,-2.694036,1.204276,-1.272874,0.137196,151.5,-148.5,-26.1,,,,,,
1104116,-0.2536126,9.122876,-2.832207,1.211898,-0.716468,0.11432999,151.5,-146.1,-26.7,,,,,,
1104136,-0.30385664,8.984107,-2.9667892,0.99086,-0.480186,0.022866,156.3,-143.70001,-26.7,,,,,,
1104156,-0.32479164,8.75442,-3.109147,0.792688,-0.22865999,-0.099086,151.5,-143.70001,-27.300001,,,,,,
1104177,-0.31940836,8.787318,-3.3454137,0.87653,-0.144818,-0.060976,151.5,-148.5,-25.500002,,,,,,
1104197,-0.06998273,9.200635,-3.3071325,0.891774,-0.442076,0.07622,151.5,-141.3,-26.1,,,,,,
1104217,0.055627298,9.120484,-3.1815224,0.144818,-0.358234,-0.19055,151.5,-148.5,-24.300001,,,,,,
1104238,-0.0765623,9.104933,-3.1462321,0.015244,-0.022866,-0.449698,153.90001,-146.1,-24.300001,,,,,,
1104258,-0.07835673,9.081007,-3.2347572,-0.015244,0.26677,-0.83842,156.3,-150.90001,-25.500002,,,,,,
1104278,-0.33376378,8.910536,-3.175541,-0.015244,0.449698,-0.907018,149.1,-150.90001,-24.300001,,,,,,
1104298,-0.6071151,9.124671,-3.196476,0.030488,0.388722,-0.82317597,149.1,-146.1,-23.7,,,,,,
1104319,-0.57421726,9.1408205,-3.117521,-0.007622,0.160062,-0.907018,149.1,-141.3,-24.900002,,,,,,
1104339,-0.6292464,9.00923,-3.0565107,-0.15244,0.137196,-0.983238,153.90001,-146.1,-23.7,,,,,,
1104359,-0.60472256,8.899171,-3.0355756,-0.144818,0.259148,-0.663114,156.3,-143.70001,-25.500002,,,,,,
1104379,-0.62446123,8.921303,-3.0798383,-0.053354,0.40396598,-0.449698,158.70001,-148.5,-24.900002,,,,,,
1104399,-0.59275967,8.968555,-3.0421553,0.03811,0.35061198,-0.144818,161.1,-141.3,-26.1,,,,,,
1104419,-0.6268538,8.97693,-3.0816326,0.0,0.365856,-0.182928,158.70001,-146.1,-25.500002,,,,,,
1104439,-0.6705183,9.053492,-3.020622,-0.099086,0.23628199,-0.213416,156.3,-146.1,-24.900002,,,,,,
1104459,-0.7225567,9.165345,-3.0427532,-0.068598,0.060976,-0.503052,161.1,-146.1,-26.1,,,,,,
1104479,-0.63223714,9.064259,-2.9267135,-0.121952,-0.33536798,-0.746956,156.3,-143.70001,-24.900002,,,,,,
1104500,-0.6681257,9.02837,-2.8878343,-0.19055,-0.40396598,-0.754578,153.90001,-143.70001,-24.900002,,,,,,
1104520,-0.7805766,8.903358,-2.8764696,-0.33536798,-0.41921,-0.60976,163.5,-148.5,-23.7,,,,,,
1104540,-0.9277198,9.041529,-2.9476485,-0.198172,-0.49543,-0.525918,151.5,-143.70001,-23.1,,,,,,
1104560,-0.8397927,9.20243,-2.978154,-0.053354,-0.67835796,-0.46494198,163.5,-143.70001,-23.7,,,,,,
1104580,-0.7626323,9.125269,-2.9554243,-0.274392,-0.708846,-0.34298998,156.3,-143.70001,-26.1,,,,,,
1104600,-0.80510044,8.810048,-2.8962083,-0.480186,-0.617382,-0.060976,158.70001,-146.1,-27.300001,,,,,,
1104621,-0.8086893,8.888405,-3.0218184,-0.26677,-0.594516,0.11432999,156.3,-148.5,-24.900002,,,,,,
1104641,-0.73511773,8.890199,-3.0044723,-0.144818,-0.632626,0.129574,158.70001,-146.1,-23.7,,,,,,
1104663,-0.40015766,9.092371,-3.14683,-0.19055,-0.640248,0.160062,158.70001,-148.5,-24.300001,,,,,,
1104683,-0.26258478,8.853712,-3.100773,-0.259148,-0.548784,0.26677,158.70001,-146.1,-24.900002,,,,,,
1104703,-0.04187001,9.100745,-3.2538977,-0.182928,-0.426832,0.33536798,158.70001,-146.1,-26.1,,,,,,
1104723,0.10288059,8.915321,-3.355582,-0.34298998,-0.327746,0.015244,158.70001,-143.70001,-24.900002,,,,,,
1104744,0.42109266,8.874049,-3.3920689,-0.35061198,-0.358234,-0.091464,156.3,-143.70001,-24.300001,,,,,,
1104764,0.6095077,8.731093,-3.280216,-0.87653,-0.30488,-0.259148,156.3,-143.70001,-24.900002,,,,,,
1104784,0.7034161,8.538491,-3.4237704,-1.204276,-0.11432999,-0.33536798,156.3,-148.5,-26.7,,,,,,
1104804,0.7434917,8.506191,-3.5487823,-1.1128119,-0.388722,-0.45731997,158.70001,-143.70001,-26.1,,,,,,
1104824,0.8463723,8.80945,-3.535623,-0.83842,-0.67835796,-0.434454,163.5,-146.1,-26.1,,,,,,
1104844,1.0491427,9.585241,-3.6743922,-1.006104,-0.731712,-0.739334,158.70001,-146.1,-26.7,,,,,,
1104864,0.9815526,8.57438,-3.703103,-2.012208,-0.82317597,-1.79117,161.1,-148.5,-27.300001,,,,,,
1104887,1.121518,7.8267007,-3.6379056,-1.8369019,-0.442076,-2.126538,161.1,-148.5,-27.300001,,,,x,,
1104907,1.6096027,8.162259,-4.3072276,-1.6158639,0.83842,-2.2789779,158.70001,-146.1,-27.300001,,,,x,,
1104927,2.522369,8.710756,-4.8335934,-1.6387299,1.516778,-3.384168,163.5,-141.3,-27.300001,,,,x,,
1104947,2.4781063,7.382879,-4.6039066,-3.033556,2.2789779,-5.9222937,168.3,-141.3,-27.900002,,,,x,,
1104967,2.7371023,6.366634,-4.8593135,-2.2103798,4.0167937,-7.1418138,170.70001,-146.1,-27.300001,,,,x,,
1104987,2.9859297,6.496431,-4.4944463,-2.545748,3.605206,-7.9040136,177.90001,-136.5,-28.500002,,,,x,,
1105007,2.9303024,5.3485947,-3.9393697,-3.96344,4.939056,-9.550365,185.1,-131.70001,-29.7,,,,x,,
1105027,2.7664113,4.261769,-3.3561802,-4.893324,6.219552,-10.86135,189.90001,-124.50001,-28.500002,,,,x,,
1105067,1.4594688,0.6681257,-1.7256424,-6.4024796,9.481768,-13.917771,213.90001,-119.700005,-28.500002,,,,x,,
1105087,0.89841074,-0.041271865,-1.4445152,-6.272906,9.79427,-14.192163,221.1,-105.3,-27.900002,,,,x,,
1105107,-1.4217858,-0.013757288,-0.51021594,-4.024416,10.419273,-12.225688,233.1,-100.50001,-28.500002,,,,x,,
1105127,-1.6730059,1.0198338,-0.49765494,-3.445144,10.205858,-11.1890955,237.90001,-93.3,-27.900002,,,,x,,
1105147,-2.548089,2.1652775,1.1203218,-3.170752,8.353712,-10.800374,247.50002,-93.3,-27.300001,,,,x,,
1105207,-6.1985555,5.732004,2.4924617,0.121952,3.6661818,-10.777508,264.30002,-64.5,-23.7,,,,x,,
1105227,-8.308804,3.5756986,3.7294214,1.3872039,3.536608,-10.076283,269.1,-66.9,-23.1,,,,x,,
1105249,-9.555334,11.892877,0.46415895,1.692084,0.312502,-0.754578,273.90002,-62.100002,-21.300001,,,,x,,
1105273,-8.518752,10.914315,2.61867,1.4024479,-5.091496,-6.4939437,271.5,-52.500004,-23.1,,,,x,,
1105293,-11.275593,8.011527,2.1515203,1.3490939,-4.0777698,-6.143332,276.30002,-52.500004,-24.300001,,,,x,,
1105313,-9.577465,12.407878,0.049645867,0.907018,-4.817104,-2.141782,283.5,-47.7,-23.1,,,,x,,
1105333,-11.607562,13.3027,1.3362514,-0.388722,-6.905532,-4.474114,283.5,-47.7,-24.900002,,,,x,,
1105353,-15.5224085,11.621918,-1.1980804,1.234764,-5.8613176,-4.0777698,285.90002,-45.300003,-26.7,,,,x,,
1105373,-13.089761,13.116677,-1.0957979,4.214966,-13.391853,0.632626,290.7,-45.300003,-26.1,,,,x,,
1105433,-14.004321,13.403188,-3.3992465,5.076252,-10.030552,3.08691,288.30002,-42.9,-30.300001,,,,x,,
1105453,-13.636463,12.948001,-0.70700496,4.085392,-15.381196,3.2317278,297.90002,-57.300003,-33.300003,,,,x,,
1105473,-14.790879,13.153164,-2.7544484,4.26832,-8.163162,3.8262439,285.90002,-50.100002,-35.7,,,,x,,
1105493,-13.336794,14.780113,-4.818042,6.21193,-9.077802,5.899428,278.7,-59.7,-34.5,,,,x,,
1105513,-12.559806,14.638951,-2.659942,4.291186,-13.460452,4.603688,278.7,-52.500004,-36.300003,,,,x,,
1105533,-13.566481,11.739154,-3.3573766,4.679908,-6.966508,3.323192,276.30002,-59.7,-37.5,,,,x,,
1105553,-13.778822,10.783919,-5.8115573,7.3171196,-3.7957559,5.625036,271.5,-66.9,-36.300003,,,,x,,
1105573,-11.0195875,12.411467,-6.9857116,7.339986,-7.766818,9.07018,264.30002,-66.9,-36.300003,,,,x,,
1105593,-10.340097,12.247576,-5.932382,6.204308,-8.086942,8.544262,266.7,-71.700005,-37.5,,,,x,,
1105613,-9.587035,11.388642,-7.1884823,6.9741297,-4.085392,8.490908,257.1,-81.3,-38.7,,,,x,,
1105633,-8.031864,11.807343,-8.455349,6.006136,-4.4817357,9.657074,252.3,-86.100006,-37.5,,,,x,,
1105657,-7.0730405,11.274397,-7.7794476,3.475632,-5.137228,9.329328,240.3,-95.700005,-35.7,,,,x,,
1105677,-5.9850187,9.919004,-8.132352,3.2012398,-3.025934,9.519877,230.70001,-100.50001,-36.9,,,,x,,
1105697,-4.547083,8.925489,-7.828495,2.035074,-3.368924,11.318669,225.90001,-107.700005,-35.7,,,,x,,
1105718,-3.2772253,8.359048,-6.5580397,1.432936,-3.871976,11.958918,209.1,-119.700005,-37.5,,,,x,,
1105738,-2.5014338,7.019806,-4.914343,1.5929979,-2.339954,10.007686,209.1,-126.9,-36.9,,,,x,,
1105801,-0.3744375,4.9651847,-3.6630275,0.586894,4.397894,6.9436417,187.5,-136.5,-35.7,,,,x,,
1105862,0.49047723,4.292274,-2.7951221,0.121952,6.051868,4.596066,180.3,-146.1,-34.5,,,,x,,
1105902,1.2094451,3.957314,-2.1999698,-1.1204339,7.8277936,4.778994,170.70001,-143.70001,-32.7,,,,x,,
1106040,2.819646,6.0591884,-0.8254373,-1.158544,9.420792,1.242386,137.1,-155.70001,-31.500002,,,,x,,
1106060,2.8884325,7.1143126,-0.89661634,-0.853664,9.6418295,1.3719599,137.1,-155.70001,-27.900002,,,,x,,
1106104,1.4301598,6.820026,-1.2261931,-0.548784,7.865904,-3.140264,134.70001,-150.90001,-26.7,,,,x,,
