time,sensor_accX[g],sensor_accY[g],sensor_accZ[g],sensor_gyroX[°/s],sensor_gyroY[°/s],sensor_gyroZ[°/s],sensor_magX[µT],sensor_magY[µT],sensor_magZ[µT]
1166940,-4.0075578689575195,8.842347145080566,-0.6806867122650146,-0.23628199100494385,0.10670799762010574,-0.3201240003108978,163.5,-136.5,-56.70000076293945
1166960,-3.895705223083496,8.74604606628418,-0.5915634036064148,-0.2134159952402115,0,-0.26677000522613525,173.10000610351562,-134.10000610351562,-57.900001525878906
1166980,-3.8281149864196777,8.953003883361816,-0.5843856930732727,-0.228659987449646,0.06859800219535828,-0.19054999947547913,173.10000610351562,-138.90000915527344,-57.900001525878906
1167004,-3.8951070308685303,8.95539665222168,-0.5957503914833069,-0.4420759975910187,0.19817200303077698,-0.3201240003108978,170.70001220703125,-131.70001220703125,-58.500003814697266
1167025,-3.8711812496185303,8.79090690612793,-0.5748153924942017,-0.4878079891204834,0.2896359860897064,-0.3201240003108978,170.70001220703125,-134.10000610351562,-57.900001525878906
1167065,-3.913649559020996,8.85969352722168,-0.5933578014373779,-0.36585599184036255,0.48018598556518555,-0.228659987449646,165.90000915527344,-129.3000030517578,-59.10000228881836
1167108,-3.8681905269622803,8.775355339050293,-0.5670395493507385,-0.4192099869251251,0.426831990480423,-0.1295740008354187,165.90000915527344,-136.5,-59.70000076293945
1167128,-3.925612211227417,8.812440872192383,-0.5813949704170227,-0.4192099869251251,0.3582339882850647,-0.06859800219535828,168.3000030517578,-138.90000915527344,-59.70000076293945
1167148,-3.883742332458496,8.92548942565918,-0.5706284046173096,-0.41158798336982727,0.25152599811553955,-0.1448179930448532,168.3000030517578,-138.90000915527344,-59.10000228881836
1167172,-3.887331247329712,8.826197624206543,-0.5323472619056702,-0.4878079891204834,0.19817200303077698,-0.3125019967556,173.10000610351562,-129.3000030517578,-57.900001525878906
1167234,-3.8323020935058594,8.844141960144043,-0.48509395122528076,-0.3887220025062561,0.4039659798145294,-0.2972579896450043,170.70001220703125,-141.3000030517578,-58.500003814697266
1167254,-3.8622090816497803,8.786720275878906,-0.5191881060600281,-0.3887220025062561,0.5030519962310791,-0.228659987449646,170.70001220703125,-136.5,-58.500003814697266
1167274,-3.7934226989746094,8.87165641784668,-0.509617805480957,-0.38109999895095825,0.5640279650688171,-0.17530599236488342,170.70001220703125,-131.70001220703125,-59.10000228881836
1167294,-3.8137595653533936,8.92548942565918,-0.46894410252571106,-0.4420759975910187,0.6478700041770935,-0.2743920087814331,170.70001220703125,-131.70001220703125,-57.900001525878906
1167314,-3.893312692642212,8.82978630065918,-0.5161973834037781,-0.5182960033416748,0.6707359552383423,-0.426831990480423,170.70001220703125,-136.5,-57.900001525878906
1167334,-3.8885273933410645,8.709559440612793,-0.512010395526886,-0.5182960033416748,0.7012239694595337,-0.44969800114631653,173.10000610351562,-136.5,-59.10000228881836
1167358,-3.806581974029541,8.743654251098633,-0.4575793743133545,-0.5411620140075684,0.7621999979019165,-0.3887220025062561,170.70001220703125,-134.10000610351562,-58.500003814697266
1167378,-3.771291494369507,8.902759552001953,-0.5018419623374939,-0.5259180068969727,0.9070180058479309,-0.4039659798145294,165.90000915527344,-136.5,-59.70000076293945
1167398,-3.802993059158325,8.935657501220703,-0.5329453945159912,-0.5868939757347107,0.9908599853515625,-0.5640279650688171,173.10000610351562,-136.5,-59.10000228881836
1167418,-3.8352928161621094,8.930872917175293,-0.5173936486244202,-0.6097599864006042,0.9984819889068604,-0.7164679765701294,173.10000610351562,-136.5,-59.10000228881836
1167438,-3.907668113708496,8.84473991394043,-0.49825310707092285,-0.6707359552383423,1.1051899194717407,-0.8079319596290588,175.5,-136.5,-58.500003814697266
1167458,-4.0494279861450195,8.550454139709473,-0.5670395493507385,-0.510673999786377,0.914639949798584,-0.7774440050125122,175.5,-134.10000610351562,-59.70000076293945
1167478,-4.024904251098633,8.96436882019043,-0.60352623462677,-0.39634400606155396,0.8231759667396545,-0.5564059615135193,173.10000610351562,-134.10000610351562,-57.30000305175781
1167500,-3.9949967861175537,9.019397735595703,-0.42886850237846375,-0.6402480006217957,0.7621999979019165,-0.6783579587936401,170.70001220703125,-134.10000610351562,-59.70000076293945
1167520,-4.060792446136475,8.893787384033203,-0.49227166175842285,-0.8079319596290588,0.8079319596290588,-0.8155539631843567,168.3000030517578,-134.10000610351562,-58.500003814697266
1167540,-4.120606899261475,8.637184143066406,-0.5496934056282043,-0.7164679765701294,0.8841519951820374,-0.739333987236023,173.10000610351562,-129.3000030517578,-58.500003814697266
1167562,-4.021315097808838,8.692811965942383,-0.5203843712806702,-0.6250039935112,0.853663980960846,-0.5335400104522705,177.90000915527344,-129.3000030517578,-57.900001525878906
1167582,-3.986024856567383,8.707765579223633,-0.5897689461708069,-0.5335400104522705,0.8155539631843567,-0.426831990480423,173.10000610351562,-136.5,-57.900001525878906
1167603,-3.953126907348633,8.622230529785156,-0.5359361171722412,-0.510673999786377,0.8155539631843567,-0.426831990480423,180.3000030517578,-129.3000030517578,-57.900001525878906
1167623,-3.938173294067383,8.673072814941406,-0.6011337041854858,-0.4725639820098877,0.8612859845161438,-0.457319974899292,175.5,-131.70001220703125,-57.900001525878906
1167643,-3.7808616161346436,8.88960075378418,-0.4827013909816742,-0.6250039935112,1.013725996017456,-0.5411620140075684,177.90000915527344,-136.5,-57.900001525878906
1167664,-3.8705830574035645,8.83397388458252,-0.45578494668006897,-0.9756159782409668,1.3109840154647827,-0.7545779943466187,182.70001220703125,-131.70001220703125,-56.70000076293945
1167684,-4.167262077331543,8.664100646972656,-0.47014036774635315,-1.1661659479141235,1.4100699424743652,-1.0061039924621582,173.10000610351562,-129.3000030517578,-59.10000228881836
1167704,-4.292871952056885,8.546266555786133,-0.409129798412323,-1.2118979692459106,1.471045970916748,-1.1128119230270386,182.70001220703125,-129.3000030517578,-57.30000305175781
1167724,-4.376612186431885,8.60368824005127,-0.406139075756073,-1.2271419763565063,1.5396440029144287,-1.0442140102386475,187.5,-134.10000610351562,-59.10000228881836
1167744,-4.4130988121032715,8.54686450958252,-0.3367545008659363,-1.242385983467102,1.646351933479309,-1.013725996017456,185.10000610351562,-126.9000015258789,-59.10000228881836
1167764,-4.454370498657227,8.487648963928223,-0.28890305757522583,-1.2576299905776978,1.8140360116958618,-0.8917739987373352,182.70001220703125,-124.50000762939453,-59.10000228881836
1167784,-4.562036514282227,8.496621131896973,-0.15133017301559448,-1.2576299905776978,2.2027578353881836,-0.5411620140075684,182.70001220703125,-126.9000015258789,-58.500003814697266
1167804,-4.64697265625,8.803468704223633,-0.08194559067487717,-1.2118979692459106,2.4237959384918213,-0.33536797761917114,187.5,-131.70001220703125,-59.10000228881836
1167824,-4.764806747436523,8.792701721191406,-0.2577996253967285,-1.2195199728012085,2.5228819847106934,-0.41158798336982727,185.10000610351562,-134.10000610351562,-58.500003814697266
1167844,-4.9167351722717285,8.42663860321045,-0.20097604393959045,-1.1280559301376343,2.28659987449646,-0.4420759975910187,182.70001220703125,-124.50000762939453,-60.30000305175781
1167864,-4.804284572601318,8.489442825317383,-0.2871086299419403,-0.7088459730148315,2.3018438816070557,-0.17530599236488342,185.10000610351562,-124.50000762939453,-58.500003814697266
1167888,-4.672692775726318,9.143811225891113,-0.353502482175827,-0.228659987449646,2.2103798389434814,0.08384199440479279,192.3000030517578,-126.9000015258789,-57.900001525878906
1167908,-4.820434093475342,9.107922554016113,-0.1752558946609497,-0.44969800114631653,2.278977870941162,-0.02286599949002266,189.90000915527344,-126.9000015258789,-57.30000305175781
1167928,-5.200254917144775,8.760401725769043,-0.22549989819526672,-0.5945159792900085,1.9969639778137207,0.3048799932003021,192.3000030517578,-126.9000015258789,-59.10000228881836
1167948,-5.273228645324707,7.924796104431152,-0.1118527352809906,-0.35061198472976685,1.4558019638061523,1.1128119230270386,192.3000030517578,-126.9000015258789,-57.900001525878906
1167968,-4.678674221038818,8.11560344696045,0.13458216190338135,0.426831990480423,1.013725996017456,2.6753220558166504,185.10000610351562,-129.3000030517578,-57.900001525878906
1167988,-4.198963642120361,9.173120498657227,0.176452174782753,1.1509219408035278,1.8597679138183594,3.1707520484924316,185.10000610351562,-129.3000030517578,-57.900001525878906
1168008,-4.317994117736816,9.225757598876953,0.15790975093841553,1.0975680351257324,2.2027578353881836,2.4009299278259277,187.5,-131.70001220703125,-56.70000076293945
1168028,-4.320984840393066,8.985901832580566,0.10646945238113403,1.1509219408035278,2.8048958778381348,1.8445239067077637,187.5,-138.90000915527344,-56.70000076293945
1168048,-4.514184951782227,8.84174919128418,-0.025720147415995598,1.2881180047988892,3.49849796295166,1.7759259939193726,180.3000030517578,-131.70001220703125,-54.30000305175781
1168068,-4.897594451904297,8.88182544708252,-0.358885794878006,1.5396440029144287,4.00154972076416,1.7454379796981812,182.70001220703125,-134.10000610351562,-54.900001525878906
1168089,-5.075841426849365,9.21439266204834,-0.5664414167404175,1.6692179441452026,4.093013763427734,2.0122079849243164,177.90000915527344,-141.3000030517578,-54.900001525878906
1168109,-5.124888896942139,9.119287490844727,-0.46894410252571106,1.4405579566955566,4.2149658203125,2.088428020477295,180.3000030517578,-138.90000915527344,-53.70000076293945
1168131,-5.260667324066162,8.909339904785156,-0.44202765822410583,1.3490939140319824,4.603687763214111,2.39330792427063,180.3000030517578,-138.90000915527344,-53.70000076293945
1168151,-5.342014789581299,9.257458686828613,-0.5455064177513123,1.5548880100250244,5.121984004974365,3.0792880058288574,177.90000915527344,-146.10000610351562,-51.900001525878906
1168171,-5.071055889129639,9.72939395904541,-0.4342517852783203,1.2042759656906128,5.586925983428955,3.407033920288086,175.5,-141.3000030517578,-51.30000305175781
1168191,-5.316893100738525,8.77595329284668,-0.8439797163009644,0.914639949798584,7.1875457763671875,2.9192259311676025,173.10000610351562,-146.10000610351562,-49.500003814697266
1168211,-5.342014789581299,8.46731185913086,-1.0036839246749878,1.0747020244598389,7.530535697937012,3.1326420307159424,173.10000610351562,-138.90000915527344,-49.500003814697266
1168231,-4.881444931030273,8.53609848022461,-1.134079098701477,1.600619912147522,8.132674217224121,4.016793727874756,168.3000030517578,-150.90000915527344,-49.500003814697266
1168254,-3.896303415298462,9.450060844421387,-1.515694260597229,0.8231759667396545,10.03055191040039,4.596065998077393,163.5,-155.70001220703125,-45.30000305175781
1168274,-3.5481841564178467,8.954200744628906,-2.166473865509033,1.806414008140564,12.111357688903809,2.8582499027252197,158.70001220703125,-150.90000915527344,-45.900001525878906
1168296,-3.0445477962493896,8.682044982910156,-2.2783265113830566,2.1646480560302734,13.338500022888184,2.7058098316192627,158.70001220703125,-153.3000030517578,-44.70000076293945
1168316,-2.7610280513763428,9.229944229125977,-2.8064868450164795,1.829279899597168,15.068694114685059,2.75154185295105,165.90000915527344,-158.10000610351562,-42.900001525878906
1168336,-2.7466726303100586,9.52423095703125,-3.2299721240997314,1.5701320171356201,15.457415580749512,2.187514066696167,161.10000610351562,-158.10000610351562,-39.30000305175781
1168356,-3.067875385284424,8.993678092956543,-3.431546211242676,0.9451279640197754,15.404061317443848,1.4100699424743652,156.3000030517578,-155.70001220703125,-39.30000305175781
1168376,-3.470425605773926,8.668288230895996,-3.9573140144348145,0.8384199738502502,14.596129417419434,1.4558019638061523,156.3000030517578,-150.90000915527344,-38.70000076293945
1168398,-3.731813907623291,8.025283813476562,-4.223487377166748,1.3643379211425781,12.599165916442871,1.6768399477005005,158.70001220703125,-162.90000915527344,-35.70000076293945
1168418,-3.153409719467163,9.059473037719727,-4.0643815994262695,2.446661949157715,9.458901405334473,3.5442299842834473,151.5,-160.5,-37.5
1168438,-2.327374219894409,9.96745491027832,-3.5134918689727783,1.6768399477005005,7.4390716552734375,3.7271578311920166,149.10000610351562,-162.90000915527344,-34.5
1168458,-2.1413519382476807,10.07571792602539,-3.1910927295684814,1.0442140102386475,6.448211669921875,3.0869100093841553,144.3000030517578,-162.90000915527344,-33.900001525878906
1168481,-1.809382438659668,9.96446418762207,-2.8244311809539795,0.18292799592018127,5.899427890777588,2.3704419136047363,141.90000915527344,-162.90000915527344,-33.30000305175781
1168501,-1.6030231714248657,9.766478538513184,-2.580986976623535,-0.6783579587936401,5.975647926330566,2.1189160346984863,137.10000610351562,-155.70001220703125,-33.900001525878906
1168521,-1.5150961875915527,9.350171089172363,-2.4840877056121826,-1.425313949584961,6.227173805236816,2.1189160346984863,134.70001220703125,-162.90000915527344,-33.30000305175781
1168541,-1.2154265642166138,9.412976264953613,-2.4015440940856934,-1.4634239673614502,6.326260089874268,2.6143460273742676,139.5,-160.5,-31.500001907348633
1168563,0.041870009154081345,9.706066131591797,-2.453582525253296,-1.0975680351257324,5.983269691467285,3.3155698776245117,132.3000030517578,-162.90000915527344,-31.500001907348633
1168583,1.1203217506408691,9.805357933044434,-1.9349925518035889,-0.6250039935112,4.977165699005127,3.955817937850952,125.10000610351562,-160.5,-32.70000076293945
1168623,1.1609954833984375,9.361536026000977,-1.4684410095214844,-1.021347999572754,5.891805648803711,3.559473991394043,122.70000457763672,-162.90000915527344,-32.10000228881836
1168643,1.1562104225158691,9.370508193969727,-1.6048176288604736,-1.1204339265823364,5.602169990539551,2.7591638565063477,120.30000305175781,-167.70001220703125,-33.30000305175781
1168663,1.1586029529571533,9.19644832611084,-1.9971994161605835,-1.021347999572754,5.320156097412109,2.2027578353881836,115.50000762939453,-170.10000610351562,-32.10000228881836
1168686,1.3272792100906372,9.264636039733887,-2.0366768836975098,-0.3048799932003021,4.489357948303223,2.03507399559021,113.10000610351562,-165.3000030517578,-30.30000114440918
1168726,1.2650723457336426,8.942237854003906,-2.169464588165283,-0.3734779953956604,3.9481959342956543,2.2713558673858643,105.9000015258789,-167.70001220703125,-31.500001907348633
1168746,1.1574066877365112,8.997864723205566,-2.1563053131103516,-0.13719600439071655,3.650938034057617,2.682943820953369,110.70000457763672,-170.10000610351562,-29.700000762939453
1168766,1.1508270502090454,9.283777236938477,-2.2137272357940674,-0.13719600439071655,3.5366079807281494,2.8658719062805176,103.50000762939453,-174.90000915527344,-29.700000762939453
1168786,0.8577370047569275,9.144410133361816,-2.327374219894409,-0.44969800114631653,3.292703866958618,2.5000159740448,98.70000457763672,-170.10000610351562,-30.30000114440918
1168806,0.6980328559875488,9.057679176330566,-2.3058412075042725,-0.17530599236488342,2.75154185295105,2.28659987449646,103.50000762939453,-167.70001220703125,-30.900001525878906
1168826,0.6406111121177673,8.729896545410156,-2.065387725830078,-0.17530599236488342,2.195136070251465,1.7378159761428833,93.9000015258789,-172.5,-30.900001525878906
1168846,0.7482768297195435,8.582155227661133,-1.8476636409759521,-0.038109999150037766,1.829279899597168,1.471045970916748,96.30000305175781,-172.5,-30.900001525878906
1168866,0.8104837536811829,8.3578519821167,-1.6628375053405762,-0.09908600151538849,1.577754020690918,1.1204339265823364,86.70000457763672,-172.5,-30.30000114440918
1168886,0.8834571838378906,8.200540542602539,-1.6036213636398315,-0.26677000522613525,1.242385983467102,1.021347999572754,91.5,-167.70001220703125,-29.700000762939453
1168906,1.0108616352081299,7.838663578033447,-1.302755355834961,-0.6326259970664978,0.8917739987373352,1.14329993724823,91.5,-170.10000610351562,-32.10000228881836
1168926,1.2728482484817505,8.58275318145752,-1.1412568092346191,-0.4039659798145294,0.7164679765701294,1.524399995803833,84.30000305175781,-172.5,-29.100000381469727
1168946,1.3852990865707397,8.490639686584473,-0.9755712151527405,-1.295740008354187,0.7012239694595337,1.067080020904541,91.5,-174.90000915527344,-29.700000762939453
1168987,1.4732261896133423,7.800980567932129,-0.7745951414108276,-1.6844619512557983,0.17530599236488342,0.6402480006217957,86.70000457763672,-179.70001220703125,-30.900001525878906
1169049,1.7106889486312866,7.6831464767456055,-1.1352753639221191,-0.38109999895095825,-0.3582339882850647,1.3262280225753784,79.5,-174.90000915527344,-32.10000228881836
1169069,2.384796142578125,9.277795791625977,-1.425972819328308,1.3033620119094849,-0.6097599864006042,1.9436099529266357,79.5,-179.70001220703125,-29.700000762939453
1169129,3.061295747756958,8.454751014709473,-2.4661433696746826,-0.007621999830007553,0.8917739987373352,0.6478700041770935,77.10000610351562,-172.5,-32.10000228881836
1169160,2.1778385639190674,7.940348148345947,-3.558950662612915,1.0747020244598389,1.4024479389190674,1.3795819282531738,72.30000305175781,-174.90000915527344,-30.900001525878906
1169180,2.598931312561035,9.574474334716797,-3.9333882331848145,1.5853760242462158,1.1814099550247192,1.5167779922485352,72.30000305175781,-177.3000030517578,-28.500001907348633
1169220,2.9709761142730713,10.853303909301758,-5.324070453643799,0.8307979702949524,2.1494040489196777,-1.1356779336929321,69.9000015258789,-172.5,-29.700000762939453
1169240,3.097184419631958,10.19833755493164,-5.4891581535339355,0.967993974685669,0.2896359860897064,-1.806414008140564,69.9000015258789,-177.3000030517578,-29.100000381469727
1169260,2.2430360317230225,7.937357425689697,-4.373621463775635,0.426831990480423,-0.15243999660015106,-2.385685920715332,72.30000305175781,-170.10000610351562,-28.500001907348633
1169283,1.8267285823822021,7.886515140533447,-4.375415802001953,1.478667974472046,0.3582339882850647,-0.3048799932003021,72.30000305175781,-174.90000915527344,-30.30000114440918
1169303,2.0725653171539307,9.64266300201416,-3.8580222129821777,0.5411620140075684,0.426831990480423,-0.060975998640060425,72.30000305175781,-177.3000030517578,-27.30000114440918
1169325,1.6849687099456787,9.402209281921387,-3.8562276363372803,-0.7621999979019165,1.646351933479309,-1.9588539600372314,72.30000305175781,-172.5,-27.900001525878906
1169345,1.4989463090896606,9.230542182922363,-3.928602933883667,-1.0975680351257324,1.7301939725875854,-2.690565824508667,77.10000610351562,-172.5,-28.500001907348633
1169365,1.2477262020111084,7.816532135009766,-3.5272490978240967,-2.233245849609375,1.882633924484253,-3.3231918811798096,77.10000610351562,-167.70001220703125,-29.700000762939453
1169429,1.5665364265441895,7.672379970550537,-3.1701576709747314,-0.8612859845161438,2.843005895614624,-0.5259180068969727,77.10000610351562,-172.5,-27.30000114440918
1169459,1.8715893030166626,7.6388840675354,-3.079838275909424,-0.5411620140075684,2.530503988265991,-0.038109999150037766,77.10000610351562,-179.70001220703125,-27.30000114440918
1169479,2.0647895336151123,8.077920913696289,-3.3346471786499023,-0.17530599236488342,2.4161739349365234,0.4420759975910187,81.9000015258789,-167.70001220703125,-29.100000381469727
1169519,2.19996976852417,8.605483055114746,-3.6564478874206543,0.20579399168491364,1.3490939140319824,0.44969800114631653,77.10000610351562,-165.3000030517578,-27.900001525878906
1169540,2.1957828998565674,8.292654037475586,-3.6139798164367676,0.04573199898004532,0.46494197845458984,-0.13719600439071655,84.30000305175781,-172.5,-28.500001907348633
1169560,2.3596739768981934,8.219680786132812,-3.532034158706665,0.114329993724823,-0.04573199898004532,-0.20579399168491364,77.10000610351562,-174.90000915527344,-27.900001525878906
1169582,2.4936580657958984,8.234036445617676,-3.5218658447265625,-0.1600620001554489,-0.3125019967556,-0.28201398253440857,81.9000015258789,-170.10000610351562,-28.500001907348633
1169602,2.4284603595733643,8.025882720947266,-3.4088168144226074,-0.6936019659042358,-0.41158798336982727,-0.4725639820098877,79.5,-167.70001220703125,-27.900001525878906
1169642,2.542705774307251,8.46133041381836,-3.2114295959472656,-0.8917739987373352,-0.36585599184036255,-1.0442140102386475,81.9000015258789,-170.10000610351562,-26.700000762939453
1169702,3.124100685119629,8.757411003112793,-2.9261155128479004,-0.8917739987373352,0.5487840175628662,0.19054999947547913,86.70000457763672,-167.70001220703125,-30.30000114440918
1169722,3.0870158672332764,8.91352653503418,-2.497844934463501,-1.2271419763565063,0.35061198472976685,0.5564059615135193,81.9000015258789,-172.5,-29.100000381469727
1169742,2.772392749786377,8.593520164489746,-2.0127511024475098,-1.5701320171356201,0.5030519962310791,0.5868939757347107,79.5,-174.90000915527344,-29.700000762939453
1169765,2.327972412109375,8.32076644897461,-1.7878493070602417,-1.8673899173736572,0.7926880121231079,0.3887220025062561,86.70000457763672,-174.90000915527344,-29.100000381469727
1169786,1.8674023151397705,9.49432373046875,-1.8297193050384521,-1.0061039924621582,0.571649968624115,0.5868939757347107,81.9000015258789,-174.90000915527344,-29.700000762939453
1169806,1.6849687099456787,11.050093650817871,-1.3649622201919556,-1.646351933479309,-1.021347999572754,0.05335399881005287,77.10000610351562,-170.10000610351562,-30.30000114440918
1169826,1.329671859741211,10.068540573120117,-0.6202742457389832,-2.39330792427063,-0.38109999895095825,-2.240867853164673,81.9000015258789,-170.10000610351562,-31.500001907348633
1169846,1.5515828132629395,10.737264633178711,-0.8798683285713196,-1.3033620119094849,-0.1295740008354187,-1.471045970916748,84.30000305175781,-172.5,-30.30000114440918
1169886,1.6759966611862183,12.642948150634766,-0.7405009865760803,-1.1509219408035278,0.08384199440479279,-1.0442140102386475,86.70000457763672,-179.70001220703125,-30.30000114440918
1169906,0.5975448489189148,10.844930648803711,-0.5263658165931702,-1.4558019638061523,0.36585599184036255,-2.690565824508667,77.10000610351562,-172.5,-30.30000114440918
1169930,-0.3002677857875824,9.853209495544434,-0.7428935766220093,-0.8460419774055481,0.3887220025062561,-3.0183119773864746,86.70000457763672,-172.5,-31.500001907348633
1169950,-0.41989636421203613,9.203027725219727,-1.1687713861465454,0.2591480016708374,-0.1600620001554489,-2.599102020263672,81.9000015258789,-170.10000610351562,-31.500001907348633
1169970,-0.3720449209213257,8.4356107711792,-1.1233124732971191,1.2652519941329956,-0.8079319596290588,-1.646351933479309,91.5,-170.10000610351562,-30.30000114440918
1169990,-0.01914057508111,8.2322416305542,-1.1442475318908691,1.9588539600372314,-0.9451279640197754,0.38109999895095825,89.10000610351562,-174.90000915527344,-30.900001525878906
1170010,0.6657330989837646,9.20542049407959,-1.2656705379486084,2.2484898567199707,-0.6554920077323914,2.1570260524749756,93.9000015258789,-170.10000610351562,-29.700000762939453
1170030,0.9767674803733826,9.580455780029297,-1.5707234144210815,1.3643379211425781,-0.20579399168491364,2.538125991821289,89.10000610351562,-167.70001220703125,-30.30000114440918
1170050,1.1873137950897217,9.311291694641113,-1.60541570186615,0.4878079891204834,-0.15243999660015106,2.6753220558166504,84.30000305175781,-167.70001220703125,-30.30000114440918
1170092,1.706501841545105,8.878235816955566,-1.6532671451568604,-0.39634400606155396,-0.05335399881005287,2.8125178813934326,79.5,-165.3000030517578,-30.900001525878906
1170142,2.497844934463501,9.64565372467041,-1.7705031633377075,-0.426831990480423,-0.12195199728012085,2.027451992034912,69.9000015258789,-172.5,-29.700000762939453
1170182,2.668315887451172,8.649147033691406,-1.2979702949523926,-0.49542999267578125,0.08384199440479279,0.685979962348938,69.9000015258789,-174.90000915527344,-29.700000762939453
1170201,2.7711963653564453,8.57497787475586,-1.2895961999893188,-0.228659987449646,0.5335400104522705,0.4725639820098877,69.9000015258789,-170.10000610351562,-29.700000762939453
1170241,3.0684733390808105,9.07502555847168,-0.9821507334709167,0.23628199100494385,1.753059983253479,0.4344539940357208,67.5,-177.3000030517578,-30.900001525878906
1170262,3.2885899543762207,9.46022891998291,-0.9199438691139221,-0.39634400606155396,2.1646480560302734,-0.36585599184036255,62.70000076293945,-172.5,-30.30000114440918
1170282,3.2748327255249023,8.739466667175293,-0.9396826028823853,-1.242385983467102,2.850627899169922,-0.7698220014572144,60.30000305175781,-172.5,-30.30000114440918
1170304,2.9470503330230713,8.38656234741211,-1.5713216066360474,-0.2439039945602417,3.6814258098602295,-0.7469559907913208,67.5,-170.10000610351562,-28.500001907348633
1170324,2.7885425090789795,8.369216918945312,-2.080939292907715,0.2591480016708374,3.711913824081421,-0.8765299916267395,65.10000610351562,-177.3000030517578,-27.900001525878906
1170344,2.9261155128479004,8.614455223083496,-2.41410493850708,0.6173819899559021,3.2317278385162354,-0.6554920077323914,65.10000610351562,-174.90000915527344,-27.900001525878906
1170364,3.341226577758789,9.572680473327637,-2.611492156982422,0.3582339882850647,3.5747179985046387,-0.19054999947547913,65.10000610351562,-174.90000915527344,-27.900001525878906
1170427,1.9475535154342651,7.479777812957764,-3.588259696960449,0.7545779943466187,3.658559799194336,-2.5000159740448,65.10000610351562,-167.70001220703125,-30.900001525878906
1170545,1.8781689405441284,7.958890438079834,-4.107447624206543,1.1737879514694214,-0.7240899801254272,-2.1036720275878906,79.5,-170.10000610351562,-25.500001907348633
1170565,1.9320018291473389,8.117398262023926,-4.062587261199951,0.6326259970664978,-0.457319974899292,-0.8917739987373352,74.70000457763672,-170.10000610351562,-24.900001525878906
1170606,2.0079660415649414,8.083902359008789,-3.699514389038086,-0.28201398253440857,-0.8612859845161438,-0.2591480016708374,81.9000015258789,-170.10000610351562,-26.700000762939453
1170626,1.9942086935043335,8.207717895507812,-3.8173484802246094,-0.17530599236488342,-1.1204339265823364,-0.09908600151538849,81.9000015258789,-170.10000610351562,-24.900001525878906
1170646,2.1006782054901123,8.33572006225586,-3.731813907623291,-0.06859800219535828,-1.6920839548110962,-0.19817200303077698,81.9000015258789,-165.3000030517578,-24.900001525878906
1170666,2.2107365131378174,8.219082832336426,-3.642690658569336,-0.38109999895095825,-2.0122079849243164,-0.46494197845458984,77.10000610351562,-174.90000915527344,-24.900001525878906
1170686,2.336346387863159,8.41347885131836,-3.738393545150757,-0.38109999895095825,-2.233245849609375,-0.5182960033416748,79.5,-170.10000610351562,-25.500001907348633
1170726,2.4368345737457275,8.134146690368652,-3.529043436050415,-0.7088459730148315,-2.7286758422851562,-0.228659987449646,81.9000015258789,-170.10000610351562,-26.700000762939453
1170746,2.518181800842285,8.186782836914062,-3.7515528202056885,-1.3033620119094849,-2.75154185295105,0.05335399881005287,79.5,-167.70001220703125,-26.700000762939453
1170770,2.4661433696746826,7.7519330978393555,-3.5218658447265625,-1.3490939140319824,-2.987823963165283,0.3582339882850647,86.70000457763672,-170.10000610351562,-25.500001907348633
1170790,2.670708417892456,8.035452842712402,-3.254495859146118,-0.8841519951820374,-2.903981924057007,1.1509219408035278,79.5,-170.10000610351562,-26.100000381469727
1170810,2.9099655151367188,9.432116508483887,-3.514090061187744,-0.6707359552383423,-2.278977870941162,1.6920839548110962,81.9000015258789,-174.90000915527344,-27.30000114440918
1170830,3.7072901725769043,11.373090744018555,-4.15290641784668,-1.0899460315704346,-2.5533699989318848,1.3643379211425781,77.10000610351562,-167.70001220703125,-27.900001525878906
1170850,2.27174711227417,7.115508556365967,-2.4583675861358643,-3.1173980236053467,-3.9863059520721436,-1.8140360116958618,77.10000610351562,-165.3000030517578,-27.900001525878906
1170872,1.8416821956634521,7.300932884216309,-2.1533145904541016,-0.4725639820098877,-2.4695279598236084,1.3795819282531738,81.9000015258789,-165.3000030517578,-27.900001525878906
1170892,2.524761438369751,10.957381248474121,-2.620464324951172,-0.9222619533538818,-2.949713945388794,2.4771499633789062,72.30000305175781,-165.3000030517578,-27.900001525878906
1170915,2.0797431468963623,10.111008644104004,-1.5892658233642578,-2.5000159740448,-2.995445966720581,-1.1051899194717407,77.10000610351562,-172.5,-28.500001907348633
1170935,1.6801836490631104,9.571483612060547,-1.529451608657837,-2.126538038253784,-2.294221878051758,-1.806414008140564,81.9000015258789,-170.10000610351562,-27.30000114440918
1170955,1.23396897315979,9.457837104797363,-1.5390218496322632,-2.0503180027008057,-2.1036720275878906,-2.75154185295105,84.30000305175781,-167.70001220703125,-28.500001907348633
1171039,0.6824811100959778,9.491930961608887,-1.3470180034637451,0.007621999830007553,-1.5320219993591309,-0.7850660085678101,93.9000015258789,-170.10000610351562,-29.700000762939453
1171085,0.4192982316017151,8.97812557220459,-1.499544382095337,0.2972579896450043,-1.8369019031524658,-1.2042759656906128,89.10000610351562,-170.10000610351562,-31.500001907348633
1171105,0.5867782831192017,9.137829780578613,-1.5719196796417236,0.6097599864006042,-1.8978779315948486,-1.3414719104766846,86.70000457763672,-170.10000610351562,-30.900001525878906
1171149,0.9139624834060669,8.77116870880127,-1.6879594326019287,0.8612859845161438,-1.3109840154647827,-1.4481799602508545,89.10000610351562,-172.5,-30.30000114440918
1171219,1.3553919792175293,8.42663860321045,-2.086920738220215,-0.10670799762010574,0.5411620140075684,-1.4862899780273438,101.10000610351562,-167.70001220703125,-30.30000114440918
1171264,1.3470180034637451,9.801769256591797,-3.058305025100708,2.2561118602752686,1.577754020690918,0.2591480016708374,98.70000457763672,-162.90000915527344,-27.30000114440918
1171284,1.1855193376541138,9.26224422454834,-2.900395154953003,1.7225719690322876,0.8917739987373352,-0.7317119836807251,101.10000610351562,-165.3000030517578,-28.500001907348633
1171324,1.0419650077819824,9.286767959594727,-3.3854892253875732,1.3643379211425781,1.6692179441452026,-1.4405579566955566,103.50000762939453,-165.3000030517578,-24.900001525878906
1171346,0.9283179044723511,9.147998809814453,-3.558950662612915,0.8917739987373352,1.753059983253479,-1.9512319564819336,103.50000762939453,-165.3000030517578,-26.100000381469727
1171386,0.924130916595459,9.032556533813477,-3.6133816242218018,0.04573199898004532,1.6920839548110962,-2.7667858600616455,98.70000457763672,-158.10000610351562,-26.100000381469727
1171406,0.9552343487739563,8.905152320861816,-3.442312717437744,-0.4420759975910187,1.7683039903640747,-2.8201398849487305,108.30000305175781,-167.70001220703125,-27.900001525878906
1171430,0.8691017627716064,9.10672664642334,-3.4387240409851074,-1.2042759656906128,2.439039945602417,-2.431417942047119,113.10000610351562,-165.3000030517578,-26.700000762939453
1171454,0.4970568120479584,8.68144702911377,-3.302347421646118,-1.7683039903640747,2.5228819847106934,-2.431417942047119,120.30000305175781,-167.70001220703125,-25.500001907348633
1171474,0.409129798412323,8.689223289489746,-3.1528115272521973,-1.2804960012435913,2.3551979064941406,-2.0198299884796143,113.10000610351562,-162.90000915527344,-26.100000381469727
1171495,0.7261455655097961,8.98829460144043,-2.9189376831054688,-0.6707359552383423,1.875011920928955,-1.8369019031524658,120.30000305175781,-160.5,-26.100000381469727
1171536,0.6196761131286621,8.752626419067383,-3.1677651405334473,-0.19054999947547913,2.8734939098358154,-1.3262280225753784,117.9000015258789,-160.5,-26.700000762939453
1171560,0.1884150356054306,8.664100646972656,-3.141446828842163,0.2972579896450043,2.492393970489502,-1.4862899780273438,120.30000305175781,-158.10000610351562,-24.900001525878906
1171580,-0.03648672252893448,8.64256763458252,-3.2473182678222656,0.739333987236023,1.9131219387054443,-1.4634239673614502,117.9000015258789,-158.10000610351562,-26.100000381469727
1171623,0.014953574165701866,8.863282203674316,-3.1318767070770264,1.4862899780273438,0.44969800114631653,-1.2347639799118042,120.30000305175781,-158.10000610351562,-25.500001907348633
1171643,0.04486072435975075,8.911731719970703,-3.237149715423584,1.6844619512557983,-0.2591480016708374,-1.0594580173492432,127.50000762939453,-160.5,-24.30000114440918
1171663,0.2733513414859772,9.121082305908203,-3.3884799480438232,1.753059983253479,-0.739333987236023,-0.9222619533538818,120.30000305175781,-160.5,-24.30000114440918
1171683,0.26677176356315613,8.857300758361816,-3.520669460296631,1.1585439443588257,-1.1280559301376343,-0.9603719711303711,122.70000457763672,-158.10000610351562,-24.900001525878906
1171703,0.5323472619056702,8.97035026550293,-3.5188751220703125,1.5929979085922241,-1.1737879514694214,-0.5335400104522705,117.9000015258789,-158.10000610351562,-22.5
1171726,0.599937379360199,9.715038299560547,-4.092494010925293,-0.49542999267578125,0.8155539631843567,-0.3048799932003021,122.70000457763672,-158.10000610351562,-23.100000381469727
1171746,0.5897689461708069,9.00324821472168,-4.133766174316406,-1.6692179441452026,1.4024479389190674,-0.7012239694595337,127.50000762939453,-160.5,-22.5
1171766,0.5646469593048096,8.751429557800293,-3.6229519844055176,-1.7454379796981812,1.653973937034607,-0.5868939757347107,125.10000610351562,-153.3000030517578,-23.700000762939453
1171786,0.6477888226509094,8.546266555786133,-3.428555488586426,-1.6768399477005005,2.195136070251465,-0.7012239694595337,125.10000610351562,-153.3000030517578,-24.30000114440918
1171806,0.5855819582939148,8.58993148803711,-3.0840251445770264,-1.0365920066833496,2.4542839527130127,-0.6173819899559021,127.50000762939453,-160.5,-24.30000114440918
1171829,0.5867782831192017,8.941638946533203,-2.9584150314331055,-0.7012239694595337,2.6677000522613525,-0.7926880121231079,125.10000610351562,-160.5,-23.100000381469727
1171850,0.256005197763443,8.811244010925293,-2.9679853916168213,-0.6326259970664978,2.6143460273742676,-1.471045970916748,125.10000610351562,-158.10000610351562,-23.700000762939453
1171870,0.2703606188297272,8.79808521270752,-3.109147071838379,-0.16768398880958557,1.935987949371338,-1.4481799602508545,132.3000030517578,-160.5,-25.500001907348633
1171890,0.5108140707015991,9.01401424407959,-3.0301923751831055,-0.16768398880958557,1.5625100135803223,-1.242385983467102,122.70000457763672,-155.70001220703125,-22.5
1171910,0.4294666647911072,9.176111221313477,-3.3220860958099365,-0.6631140112876892,1.8140360116958618,-1.4481799602508545,127.50000762939453,-153.3000030517578,-24.30000114440918
1171932,0.26138848066329956,9.138428688049316,-3.472219944000244,-0.8689079880714417,1.6311079263687134,-2.03507399559021,129.90000915527344,-158.10000610351562,-23.700000762939453
1171972,-0.14594689011573792,8.815430641174316,-3.079240083694458,-0.28201398253440857,1.1280559301376343,-2.446661949157715,132.3000030517578,-148.5,-24.30000114440918
1172032,-0.6818829774856567,8.602492332458496,-3.1109416484832764,1.5701320171356201,-0.05335399881005287,-1.577754020690918,137.10000610351562,-153.3000030517578,-23.700000762939453
1172148,-0.16987259685993195,8.570192337036133,-4.319788455963135,-0.8384199738502502,0.48018598556518555,-0.2896359860897064,144.3000030517578,-146.10000610351562,-21.30000114440918
1172168,-0.08074930310249329,8.930274963378906,-3.928602933883667,-0.6326259970664978,0.114329993724823,-0.2134159952402115,141.90000915527344,-148.5,-23.100000381469727
1172188,-0.20097604393959045,8.850123405456543,-3.3286657333374023,-0.8612859845161438,0.06859800219535828,-0.510673999786377,139.5,-155.70001220703125,-21.900001525878906
1172211,-0.08254373073577881,9.021790504455566,-2.930302381515503,-0.7621999979019165,-0.030487999320030212,-0.7698220014572144,137.10000610351562,-146.10000610351562,-22.5
1172231,-0.2147333323955536,8.601295471191406,-2.7616260051727295,-0.685979962348938,0.114329993724823,-1.067080020904541,144.3000030517578,-153.3000030517578,-23.100000381469727
1172251,-0.25839775800704956,8.938648223876953,-2.9637985229492188,0.1600620001554489,0.1448179930448532,-0.8841519951820374,141.90000915527344,-141.3000030517578,-21.900001525878906
1172272,-0.3337637782096863,8.79808521270752,-3.055912494659424,0.1295740008354187,0.1448179930448532,-0.9603719711303711,144.3000030517578,-146.10000610351562,-22.5
1172292,-0.3606802225112915,8.89857292175293,-3.2323646545410156,0.5564059615135193,0,-0.8917739987373352,141.90000915527344,-153.3000030517578,-22.5
1172312,-0.41690564155578613,8.85969352722168,-3.541604518890381,0.6021379828453064,-0.1295740008354187,-0.8612859845161438,146.70001220703125,-148.5,-20.100000381469727
1172332,-0.38759663701057434,8.920105934143066,-3.582876443862915,0.7088459730148315,-0.19817200303077698,-0.8155539631843567,146.70001220703125,-150.90000915527344,-21.30000114440918
1172352,-0.4533923864364624,8.98829460144043,-3.875368356704712,0.342989981174469,-0.030487999320030212,-0.739333987236023,141.90000915527344,-146.10000610351562,-21.900001525878906
1172372,-0.44501838088035583,9.00623893737793,-4.061988830566406,-0.06859800219535828,0.07621999830007553,-0.6402480006217957,144.3000030517578,-150.90000915527344,-22.5
1172392,-0.42169079184532166,8.829188346862793,-4.075148105621338,-0.3201240003108978,0.22103799879550934,-0.5792719721794128,144.3000030517578,-143.70001220703125,-21.900001525878906
1172412,-0.4665515124797821,8.710756301879883,-4.1062517166137695,-0.7698220014572144,0.3887220025062561,-0.18292799592018127,151.5,-150.90000915527344,-21.30000114440918
1172432,-0.3212027847766876,8.725709915161133,-3.928602933883667,-0.8460419774055481,0.3734779953956604,0.05335399881005287,144.3000030517578,-150.90000915527344,-21.900001525878906
1172452,-0.20277047157287598,8.742457389831543,-3.7096827030181885,-0.967993974685669,0.5182960033416748,0.22103799879550934,149.10000610351562,-150.90000915527344,-23.700000762939453
1172472,-0.4019520878791809,8.594118118286133,-3.609792947769165,-1.0594580173492432,0.739333987236023,0.20579399168491364,139.5,-148.5,-23.100000381469727
1172492,-0.18662060797214508,8.807655334472656,-3.5093047618865967,-0.5868939757347107,0.3048799932003021,0.23628199100494385,139.5,-155.70001220703125,-23.700000762939453
1172512,0.2368646115064621,9.02418327331543,-3.3041417598724365,-0.6250039935112,0.39634400606155396,0.1600620001554489,141.90000915527344,-155.70001220703125,-21.900001525878906
1172532,-0.1399654597043991,8.746644973754883,-3.6050076484680176,-1.2728739976882935,1.2118979692459106,0.2134159952402115,146.70001220703125,-146.10000610351562,-21.30000114440918
1172552,-0.12022674083709717,8.957191467285156,-3.6504664421081543,-0.9375059604644775,1.021347999572754,0.5868939757347107,141.90000915527344,-150.90000915527344,-22.5
1172572,-0.21951846778392792,8.897974967956543,-3.621157646179199,-1.1509219408035278,0.9908599853515625,0.685979962348938,144.3000030517578,-150.90000915527344,-23.100000381469727
1172592,-0.32718420028686523,8.54207992553711,-3.464444160461426,-1.3109840154647827,0.7621999979019165,0.8765299916267395,144.3000030517578,-150.90000915527344,-23.100000381469727
1172612,-0.30804362893104553,8.915321350097656,-3.4626495838165283,-0.7240899801254272,0.6554920077323914,1.2576299905776978,137.10000610351562,-153.3000030517578,-21.900001525878906
1172632,-0.3146232068538666,8.99726676940918,-3.3645541667938232,-0.9298839569091797,0.571649968624115,1.2728739976882935,144.3000030517578,-150.90000915527344,-23.700000762939453
1172652,-0.403148353099823,9.00025749206543,-3.344815492630005,-1.1509219408035278,0.48018598556518555,1.189031958580017,137.10000610351562,-148.5,-21.900001525878906
1172675,-0.4605700969696045,8.97214412689209,-3.473416328430176,-1.1814099550247192,0.36585599184036255,1.1128119230270386,137.10000610351562,-146.10000610351562,-22.5
1172695,-0.45638307929039,8.87883472442627,-3.463247776031494,-1.2271419763565063,0.10670799762010574,1.295740008354187,137.10000610351562,-153.3000030517578,-23.100000381469727
1172715,-0.36127835512161255,8.836365699768066,-3.368741273880005,-1.189031958580017,-0.15243999660015106,1.699705958366394,134.70001220703125,-153.3000030517578,-23.100000381469727
1172758,-0.04904772341251373,9.119287490844727,-3.2718420028686523,-1.7683039903640747,-0.05335399881005287,2.294221878051758,132.3000030517578,-158.10000610351562,-24.900001525878906
1172778,0.0017944289138540626,8.83397388458252,-3.323282241821289,-1.699705958366394,-0.19054999947547913,2.530503988265991,125.10000610351562,-153.3000030517578,-24.30000114440918
1172798,0.08792701363563538,8.881226539611816,-3.302347421646118,-1.5015339851379395,-0.26677000522613525,2.5609920024871826,122.70000457763672,-153.3000030517578,-22.5
1172818,0.23207947611808777,8.899170875549316,-3.1916909217834473,-1.478667974472046,-0.35061198472976685,2.5686140060424805,127.50000762939453,-155.70001220703125,-23.700000762939453
1172838,0.4533923864364624,9.031360626220703,-3.1498208045959473,-1.4481799602508545,-0.3734779953956604,2.583858013153076,117.9000015258789,-160.5,-23.700000762939453
1172858,0.7010235786437988,9.01521110534668,-2.9996869564056396,-1.5167779922485352,-0.33536797761917114,2.5762360095977783,122.70000457763672,-158.10000610351562,-26.100000381469727
1172878,0.6818829774856567,8.954798698425293,-2.9996869564056396,-1.7759259939193726,-0.06859800219535828,2.644834041595459,117.9000015258789,-155.70001220703125,-25.500001907348633
1172899,0.7530620098114014,9.270617485046387,-2.8890304565429688,-1.8978779315948486,-0.17530599236488342,2.339953899383545,110.70000457763672,-160.5,-26.100000381469727
1172982,1.2925869226455688,9.220972061157227,-2.592949867248535,-1.8902559280395508,0.36585599184036255,1.524399995803833,113.10000610351562,-165.3000030517578,-28.500001907348633
1173002,1.4092248678207397,9.075623512268066,-2.441619634628296,-2.03507399559021,0.4878079891204834,1.5015339851379395,101.10000610351562,-160.5,-26.100000381469727
1173022,1.3380458354949951,9.09596061706543,-2.325579881668091,-2.088428020477295,0.7012239694595337,1.5396440029144287,96.30000305175781,-172.5,-26.700000762939453
1173062,1.0036839246749878,9.194653511047363,-2.5062191486358643,-1.6692179441452026,0.739333987236023,1.0289700031280518,103.50000762939453,-160.5,-29.700000762939453
1173082,0.9432714581489563,8.985901832580566,-2.396160840988159,-1.471045970916748,0.48018598556518555,0.5792719721794128,98.70000457763672,-158.10000610351562,-30.30000114440918
1173102,0.9630101919174194,9.078614234924316,-2.3501036167144775,-1.1204339265823364,0.41158798336982727,0.4192099869251251,96.30000305175781,-167.70001220703125,-30.30000114440918
1173122,0.9456640481948853,9.14261531829834,-2.4009459018707275,-1.0365920066833496,0.33536797761917114,0.1448179930448532,98.70000457763672,-167.70001220703125,-29.700000762939453
1173143,1.1095552444458008,9.1802978515625,-2.3237855434417725,-1.013725996017456,0.228659987449646,0.04573199898004532,96.30000305175781,-172.5,-29.100000381469727
1173163,1.2824184894561768,9.19345760345459,-2.2424380779266357,-1.0899460315704346,0.3201240003108978,0.09908600151538849,93.9000015258789,-165.3000030517578,-30.30000114440918
1173183,1.417598843574524,9.16055965423584,-2.1509220600128174,-1.1661659479141235,0.5868939757347107,0.3125019967556,96.30000305175781,-165.3000030517578,-29.700000762939453
1173203,1.5192831754684448,9.08399772644043,-2.1598942279815674,-1.2042759656906128,0.9908599853515625,0.6631140112876892,91.5,-167.70001220703125,-30.30000114440918
1173226,1.5043295621871948,9.02418327331543,-2.202362537384033,-1.1585439443588257,1.3262280225753784,1.0518360137939453,96.30000305175781,-170.10000610351562,-29.100000381469727
1173246,1.4134118556976318,8.96018123626709,-2.21193265914917,-0.8307979702949524,1.4405579566955566,1.4100699424743652,91.5,-165.3000030517578,-31.500001907348633
1173306,1.2387540340423584,9.225757598876953,-2.2041568756103516,-0.4192099869251251,1.753059983253479,0.9832379817962646,86.70000457763672,-167.70001220703125,-30.30000114440918
1173326,1.2381559610366821,9.223962783813477,-2.3052430152893066,-0.36585599184036255,1.753059983253479,0.5640279650688171,86.70000457763672,-177.3000030517578,-30.900001525878906
1173346,1.1322846412658691,9.149792671203613,-2.352496385574341,-0.3582339882850647,1.6082419157028198,0.17530599236488342,81.9000015258789,-167.70001220703125,-30.30000114440918
1173370,1.0018894672393799,9.017603874206543,-2.4990413188934326,-0.12195199728012085,1.2118979692459106,-0.3125019967556,93.9000015258789,-172.5,-29.700000762939453
1173390,0.9791600704193115,9.02597713470459,-2.5409114360809326,0.18292799592018127,0.7850660085678101,-0.44969800114631653,89.10000610351562,-170.10000610351562,-29.700000762939453
1173411,0.9444677233695984,9.042725563049316,-2.5684258937835693,0.3734779953956604,0.33536797761917114,-0.510673999786377,91.5,-172.5,-29.700000762939453
1173431,0.9773656129837036,9.071435928344727,-2.679680585861206,0.4344539940357208,-0.114329993724823,-0.4039659798145294,91.5,-165.3000030517578,-29.700000762939453
1173451,1.004281997680664,9.03794002532959,-2.589959144592285,0.3201240003108978,-0.6021379828453064,-0.12195199728012085,89.10000610351562,-165.3000030517578,-29.700000762939453
1173471,1.099984884262085,9.277795791625977,-2.6425955295562744,0.2743920087814331,-0.9298839569091797,0.12195199728012085,86.70000457763672,-170.10000610351562,-29.100000381469727
1173491,1.096994161605835,8.99427604675293,-2.632427215576172,-0.4192099869251251,-1.425313949584961,0.25152599811553955,89.10000610351562,-170.10000610351562,-29.700000762939453
1173511,1.1861175298690796,9.01521110534668,-2.5714166164398193,-0.09908600151538849,-1.699705958366394,0.6021379828453064,93.9000015258789,-172.5,-29.700000762939453
1173531,1.3482142686843872,9.127063751220703,-2.5020320415496826,-0.05335399881005287,-1.8140360116958618,0.7621999979019165,89.10000610351562,-165.3000030517578,-30.900001525878906
1173551,1.3906824588775635,9.177906036376953,-2.525359630584717,-0.17530599236488342,-1.753059983253479,0.8231759667396545,89.10000610351562,-167.70001220703125,-29.100000381469727
1173571,1.435543179512024,9.182092666625977,-2.6013238430023193,-0.1295740008354187,-1.6844619512557983,0.6936019659042358,86.70000457763672,-174.90000915527344,-30.900001525878906
1173591,1.4074304103851318,9.043323516845703,-2.7173635959625244,-0.2439039945602417,-1.6234859228134155,0.4878079891204834,81.9000015258789,-167.70001220703125,-31.500001907348633
1173611,1.4780112504959106,9.062463760375977,-2.7699999809265137,-0.030487999320030212,-1.6311079263687134,0.26677000522613525,86.70000457763672,-170.10000610351562,-30.30000114440918
1173631,1.6269488334655762,9.113903999328613,-2.7012135982513428,0.05335399881005287,-1.5091559886932373,0.13719600439071655,79.5,-170.10000610351562,-28.500001907348633
1173651,1.7059037685394287,9.153382301330566,-2.643791913986206,-0.15243999660015106,-1.2195199728012085,0.10670799762010574,79.5,-167.70001220703125,-30.30000114440918
1173671,1.7340164184570312,9.094165802001953,-2.5762016773223877,-0.426831990480423,-0.9070180058479309,0.08384199440479279,86.70000457763672,-170.10000610351562,-29.700000762939453
1173693,1.7029130458831787,9.085193634033203,-2.5468928813934326,-0.5182960033416748,-0.5335400104522705,0.030487999320030212,79.5,-165.3000030517578,-29.100000381469727
1173714,1.6520708799362183,8.953601837158203,-2.560650110244751,-0.5640279650688171,-0.2743920087814331,-0.04573199898004532,74.70000457763672,-170.10000610351562,-30.900001525878906
1173734,1.6389117240905762,8.900367736816406,-2.522368907928467,-0.3201240003108978,-0.10670799762010574,-0.038109999150037766,86.70000457763672,-167.70001220703125,-30.30000114440918
1173754,1.6640337705612183,9.03614616394043,-2.501433849334717,-0.18292799592018127,0.07621999830007553,0.015243999660015106,81.9000015258789,-170.10000610351562,-30.30000114440918
1173774,1.5473958253860474,9.062463760375977,-2.577996253967285,-0.3201240003108978,0.26677000522613525,-0.02286599949002266,84.30000305175781,-167.70001220703125,-29.100000381469727
1173794,1.4642540216445923,9.013416290283203,-2.6126885414123535,-0.36585599184036255,0.2591480016708374,-0.09908600151538849,86.70000457763672,-170.10000610351562,-30.30000114440918
1173816,1.4134118556976318,9.165345191955566,-2.6904470920562744,-0.228659987449646,0.20579399168491364,-0.342989981174469,77.10000610351562,-165.3000030517578,-30.30000114440918
1173836,1.4122155904769897,9.1982421875,-2.6360161304473877,-0.342989981174469,0.12195199728012085,-0.5411620140075684,86.70000457763672,-174.90000915527344,-30.30000114440918
1173896,1.3440272808074951,9.24908447265625,-2.405730962753296,-0.7012239694595337,0.510673999786377,-0.46494197845458984,84.30000305175781,-172.5,-29.700000762939453
1173916,1.3272792100906372,9.399816513061523,-2.4212827682495117,-0.8993960022926331,0.6402480006217957,-0.4725639820098877,81.9000015258789,-170.10000610351562,-31.500001907348633
1173936,1.2602872848510742,9.141419410705566,-2.546294689178467,-1.1051899194717407,0.6250039935112,-0.5640279650688171,89.10000610351562,-174.90000915527344,-30.30000114440918
1173956,1.21303391456604,8.632399559020996,-2.358477830886841,-0.8917739987373352,0.4878079891204834,-0.2591480016708374,79.5,-167.70001220703125,-30.30000114440918
1173976,1.326681137084961,8.918910026550293,-2.4368345737457275,-0.228659987449646,0.5259180068969727,0.2591480016708374,81.9000015258789,-172.5,-30.900001525878906
1173996,1.3679529428482056,8.905750274658203,-2.3297669887542725,-0.228659987449646,0.5182960033416748,0.5335400104522705,86.70000457763672,-170.10000610351562,-32.10000228881836
1174016,1.4080286026000977,9.06485652923584,-2.4069273471832275,-0.114329993724823,0.5259180068969727,0.5792719721794128,79.5,-170.10000610351562,-30.30000114440918
1174040,1.437935709953308,9.032556533813477,-2.4075255393981934,-0.18292799592018127,0.4420759975910187,0.4039659798145294,81.9000015258789,-162.90000915527344,-29.100000381469727
1174060,1.518684983253479,9.056482315063477,-2.4093198776245117,-0.07621999830007553,0.3734779953956604,0.22103799879550934,81.9000015258789,-174.90000915527344,-29.700000762939453
1174082,1.6078083515167236,9.059473037719727,-2.4194884300231934,-0.038109999150037766,0.3125019967556,0.114329993724823,84.30000305175781,-170.10000610351562,-29.100000381469727
1174102,1.6640337705612183,9.056482315063477,-2.4009459018707275,-0.12195199728012085,0.342989981174469,0.12195199728012085,77.10000610351562,-170.10000610351562,-29.100000381469727
1174122,1.6801836490631104,9.068445205688477,-2.456573247909546,-0.25152599811553955,0.38109999895095825,0.13719600439071655,77.10000610351562,-167.70001220703125,-27.900001525878906
1174142,1.62934148311615,9.120484352111816,-2.48588228225708,-0.28201398253440857,0.426831990480423,0.10670799762010574,81.9000015258789,-167.70001220703125,-30.30000114440918
1174166,1.6018269062042236,9.1922607421875,-2.46494722366333,-0.48018598556518555,0.457319974899292,-0.13719600439071655,81.9000015258789,-172.5,-29.100000381469727
1174186,1.5743123292922974,9.080408096313477,-2.41410493850708,-0.5259180068969727,0.510673999786377,-0.2896359860897064,77.10000610351562,-167.70001220703125,-29.100000381469727
1174206,1.5898640155792236,9.127063751220703,-2.450591802597046,-0.5182960033416748,0.6173819899559021,-0.3201240003108978,77.10000610351562,-174.90000915527344,-30.30000114440918
1174226,1.5545735359191895,9.130054473876953,-2.42307710647583,-0.5487840175628662,0.685979962348938,-0.39634400606155396,77.10000610351562,-167.70001220703125,-30.30000114440918
1174246,1.5360311269760132,9.061267852783203,-2.3835997581481934,-0.5487840175628662,0.7698220014572144,-0.49542999267578125,77.10000610351562,-172.5,-29.100000381469727
1174268,1.5695271492004395,9.10672664642334,-2.3919737339019775,-0.426831990480423,0.8765299916267395,-0.5868939757347107,79.5,-167.70001220703125,-29.700000762939453
1174288,1.546797752380371,9.07502555847168,-2.396758794784546,-0.4039659798145294,0.967993974685669,-0.6707359552383423,77.10000610351562,-177.3000030517578,-30.900001525878906
1174310,1.5587605237960815,9.053491592407227,-2.4033384323120117,-0.3734779953956604,1.0899460315704346,-0.6021379828453064,81.9000015258789,-177.3000030517578,-30.900001525878906
1174330,1.5150961875915527,9.081604957580566,-2.4458065032958984,-0.3277460038661957,1.1585439443588257,-0.457319974899292,79.5,-167.70001220703125,-30.30000114440918
1174350,1.4283654689788818,8.921302795410156,-2.42905855178833,-0.41158798336982727,1.1204339265823364,-0.3201240003108978,79.5,-174.90000915527344,-30.900001525878906
1174370,1.4833946228027344,9.152783393859863,-2.495452404022217,-0.1448179930448532,1.013725996017456,-0.2134159952402115,79.5,-182.10000610351562,-31.500001907348633
1174393,1.4744224548339844,9.091175079345703,-2.5289485454559326,-0.4420759975910187,0.7012239694595337,-0.23628199100494385,79.5,-170.10000610351562,-29.700000762939453
1174414,1.4445152282714844,8.954200744628906,-2.390777349472046,-0.3201240003108978,0.5335400104522705,-0.15243999660015106,84.30000305175781,-172.5,-30.30000114440918
1174434,1.4313560724258423,9.140820503234863,-2.4852840900421143,-0.13719600439071655,0.49542999267578125,-0.1448179930448532,79.5,-170.10000610351562,-30.30000114440918
1174494,1.3661586046218872,9.00922966003418,-2.501433849334717,-0.18292799592018127,0.3125019967556,-0.4878079891204834,81.9000015258789,-174.90000915527344,-30.900001525878906
1174514,1.4104211330413818,8.958985328674316,-2.510406017303467,-0.08384199440479279,0.2439039945602417,-0.3734779953956604,84.30000305175781,-179.70001220703125,-30.900001525878906
1174534,1.4833946228027344,9.117493629455566,-2.48289155960083,0.030487999320030212,0.228659987449646,-0.22103799879550934,79.5,-172.5,-30.30000114440918
1174554,1.5545735359191895,9.031360626220703,-2.4487972259521484,-0.1448179930448532,0.23628199100494385,-0.07621999830007553,79.5,-167.70001220703125,-27.900001525878906
1174574,1.545601487159729,8.85072135925293,-2.402142286300659,-0.1295740008354187,0.3201240003108978,0.1448179930448532,81.9000015258789,-172.5,-30.900001525878906
1174594,1.5617512464523315,9.090577125549316,-2.3710386753082275,0.228659987449646,0.35061198472976685,0.2972579896450043,81.9000015258789,-167.70001220703125,-32.10000228881836
1174614,1.5755085945129395,9.381872177124023,-2.3082337379455566,0.20579399168491364,0.39634400606155396,0.17530599236488342,79.5,-170.10000610351562,-30.30000114440918
1174634,1.4869834184646606,9.412976264953613,-2.3656554222106934,0.04573199898004532,0.4878079891204834,-0.342989981174469,79.5,-174.90000915527344,-29.700000762939453
1174654,1.414608120918274,9.122876167297363,-2.4308531284332275,0.038109999150037766,0.46494197845458984,-0.6783579587936401,81.9000015258789,-165.3000030517578,-29.100000381469727
1174678,1.3344569206237793,8.87464714050293,-2.4912655353546143,0.02286599949002266,0.41158798336982727,-0.6326259970664978,84.30000305175781,-172.5,-29.100000381469727
1174698,1.3571864366531372,8.938648223876953,-2.601922035217285,0.2743920087814331,0.2972579896450043,-0.35061198472976685,77.10000610351562,-172.5,-27.900001525878906
1174722,1.419991374015808,9.04511833190918,-2.6491751670837402,0.28201398253440857,0,-0.1295740008354187,77.10000610351562,-167.70001220703125,-28.500001907348633
1174742,1.4612632989883423,9.12168025970459,-2.6635305881500244,0.18292799592018127,-0.08384199440479279,-0.030487999320030212,79.5,-177.3000030517578,-29.100000381469727
1174762,1.4905723333358765,9.005640983581543,-2.7526538372039795,-0.13719600439071655,-0.114329993724823,0.04573199898004532,81.9000015258789,-170.10000610351562,-29.100000381469727
1174782,1.530647873878479,9.06186580657959,-2.7951221466064453,-0.07621999830007553,-0.19817200303077698,0.1448179930448532,81.9000015258789,-170.10000610351562,-28.500001907348633
1174806,1.6102008819580078,9.087586402893066,-2.7341115474700928,-0.19054999947547913,-0.3201240003108978,0.19817200303077698,79.5,-177.3000030517578,-28.500001907348633
1174826,1.6562578678131104,9.07382869720459,-2.6276421546936035,-0.3201240003108978,-0.38109999895095825,0.1448179930448532,84.30000305175781,-167.70001220703125,-29.700000762939453
1174847,1.6030231714248657,9.09775447845459,-2.6754934787750244,-0.41158798336982727,-0.46494197845458984,0.04573199898004532,79.5,-170.10000610351562,-28.500001907348633
1174867,1.4624595642089844,8.829188346862793,-2.5821831226348877,-0.41158798336982727,-0.7012239694595337,-0.06859800219535828,81.9000015258789,-167.70001220703125,-28.500001907348633
1174907,1.409822940826416,9.093567848205566,-2.4368345737457275,0.5030519962310791,-1.0899460315704346,-0.5640279650688171,81.9000015258789,-167.70001220703125,-29.700000762939453
1174927,1.4463096857070923,9.07801628112793,-2.4099180698394775,0.4420759975910187,-1.021347999572754,-0.739333987236023,79.5,-167.70001220703125,-27.900001525878906
1174947,1.5868732929229736,9.06784725189209,-2.44700288772583,0.3125019967556,-0.8231759667396545,-0.6554920077323914,74.70000457763672,-172.5,-27.900001525878906
1174987,1.6323322057724,9.06605339050293,-2.717961549758911,0.02286599949002266,-0.3048799932003021,0.06859800219535828,81.9000015258789,-170.10000610351562,-28.500001907348633
1175007,1.6000324487686157,8.982911109924316,-2.7382984161376953,-0.18292799592018127,-0.23628199100494385,0.28201398253440857,79.5,-165.3000030517578,-29.700000762939453
1175027,1.6251544952392578,9.00205135345459,-2.7640187740325928,-0.28201398253440857,-0.20579399168491364,0.4344539940357208,84.30000305175781,-172.5,-28.500001907348633
1175047,1.5677326917648315,8.96735954284668,-2.897404670715332,-0.2896359860897064,-0.25152599811553955,0.3582339882850647,77.10000610351562,-165.3000030517578,-29.100000381469727
1175067,1.5677326917648315,8.941040992736816,-2.888432502746582,-0.114329993724823,-0.4725639820098877,0.19817200303077698,77.10000610351562,-174.90000915527344,-28.500001907348633
1175087,1.6024249792099,8.95539665222168,-2.856132745742798,-0.060975998640060425,-0.5030519962310791,0.15243999660015106,84.30000305175781,-172.5,-27.30000114440918
1175107,1.7477737665176392,9.10194206237793,-2.7592334747314453,-0.007621999830007553,-0.4878079891204834,0.060975998640060425,77.10000610351562,-167.70001220703125,-27.30000114440918
1175127,1.8039991855621338,9.060669898986816,-2.6665213108062744,-0.20579399168491364,-0.33536797761917114,-0.060975998640060425,74.70000457763672,-167.70001220703125,-25.500001907348633
1175151,1.7896437644958496,9.146203994750977,-2.580986976623535,-0.457319974899292,0.16768398880958557,-0.20579399168491364,77.10000610351562,-165.3000030517578,-28.500001907348633
1175171,1.6706132888793945,9.05708122253418,-2.643791913986206,-0.7317119836807251,0.4420759975910187,-0.4039659798145294,77.10000610351562,-172.5,-27.900001525878906
1175211,1.4768149852752686,8.945826530456543,-2.781364917755127,-0.5182960033416748,0.6021379828453064,-0.6021379828453064,81.9000015258789,-170.10000610351562,-30.900001525878906
1175233,1.4732261896133423,8.827393531799316,-2.7640187740325928,-0.5868939757347107,0.44969800114631653,-0.6631140112876892,77.10000610351562,-174.90000915527344,-29.100000381469727
1175253,1.452889323234558,8.741859436035156,-2.856132745742798,-0.457319974899292,0.38109999895095825,-0.3125019967556,79.5,-172.5,-29.100000381469727
1175273,1.4642540216445923,8.926087379455566,-2.9015915393829346,-0.16768398880958557,0.1295740008354187,-0.038109999150037766,77.10000610351562,-172.5,-27.900001525878906
1175293,1.5079184770584106,9.162354469299316,-3.030790328979492,-0.15243999660015106,-0.2134159952402115,0.15243999660015106,77.10000610351562,-172.5,-29.100000381469727
1175315,1.499544382095337,8.91053581237793,-2.7801685333251953,-0.33536797761917114,-0.4725639820098877,0.22103799879550934,81.9000015258789,-167.70001220703125,-30.30000114440918
1175336,1.5162924528121948,9.149792671203613,-2.8154590129852295,-0.3734779953956604,-0.39634400606155396,-0.007621999830007553,79.5,-165.3000030517578,-29.100000381469727
1175357,1.509712815284729,9.10074520111084,-2.6880545616149902,-0.5030519962310791,-0.2591480016708374,-0.25152599811553955,81.9000015258789,-170.10000610351562,-28.500001907348633
1175377,1.442720890045166,9.021790504455566,-2.662334442138672,-0.5640279650688171,-0.05335399881005287,-0.457319974899292,77.10000610351562,-167.70001220703125,-27.900001525878906
1175397,1.3930749893188477,8.807655334472656,-2.593547821044922,-0.6250039935112,0.09908600151538849,-0.5182960033416748,79.5,-170.10000610351562,-28.500001907348633
1175417,1.3482142686843872,8.83995532989502,-2.590557098388672,-0.2743920087814331,0.17530599236488342,-0.36585599184036255,74.70000457763672,-167.70001220703125,-29.700000762939453
1175439,1.327877402305603,8.921900749206543,-2.6270439624786377,-0.04573199898004532,0.13719600439071655,-0.26677000522613525,84.30000305175781,-170.10000610351562,-29.100000381469727
1175460,1.21901535987854,8.767580032348633,-2.679680585861206,0,-0.04573199898004532,-0.19054999947547913,77.10000610351562,-172.5,-29.700000762939453
1175480,1.2925869226455688,8.905152320861816,-2.599529266357422,0.4192099869251251,-0.33536797761917114,-0.060975998640060425,77.10000610351562,-167.70001220703125,-29.100000381469727
1175500,1.6000324487686157,9.32086181640625,-2.6880545616149902,0.41158798336982727,-0.39634400606155396,-0.04573199898004532,79.5,-172.5,-28.500001907348633
1175520,1.624556303024292,9.116296768188477,-2.7580373287200928,-0.1295740008354187,-0.2743920087814331,-0.28201398253440857,72.30000305175781,-167.70001220703125,-29.100000381469727
1175542,1.6676225662231445,9.000855445861816,-2.7018117904663086,-0.12195199728012085,-0.16768398880958557,-0.23628199100494385,84.30000305175781,-170.10000610351562,-29.100000381469727
1175563,1.705305576324463,9.000855445861816,-2.7131764888763428,-0.18292799592018127,0.05335399881005287,-0.1448179930448532,77.10000610351562,-167.70001220703125,-30.30000114440918
1175583,1.631734013557434,9.086389541625977,-2.760429859161377,-0.23628199100494385,0.3125019967556,-0.114329993724823,84.30000305175781,-174.90000915527344,-29.700000762939453
1175603,1.60541570186615,9.098352432250977,-2.757439136505127,-0.228659987449646,0.3734779953956604,-0.19817200303077698,81.9000015258789,-165.3000030517578,-30.900001525878906
1175623,1.5043295621871948,9.176709175109863,-2.799309015274048,-0.2134159952402115,0.4725639820098877,-0.426831990480423,72.30000305175781,-167.70001220703125,-27.900001525878906
1175643,1.3374476432800293,9.067249298095703,-2.7945239543914795,-0.2896359860897064,0.510673999786377,-0.6707359552383423,77.10000610351562,-170.10000610351562,-29.100000381469727
1175663,1.2572965621948242,8.929676055908203,-2.831608772277832,-0.426831990480423,0.4878079891204834,-0.6631140112876892,81.9000015258789,-167.70001220703125,-29.100000381469727
1175683,1.2555021047592163,8.887207984924316,-2.8860397338867188,-0.4039659798145294,0.39634400606155396,-0.5259180068969727,81.9000015258789,-170.10000610351562,-29.100000381469727
1175703,1.3823083639144897,8.95539665222168,-2.906376600265503,-0.457319974899292,0.2591480016708374,-0.09146399796009064,81.9000015258789,-170.10000610351562,-28.500001907348633
1175724,1.431954264640808,8.991883277893066,-2.837590217590332,-0.6097599864006042,0.13719600439071655,0.10670799762010574,77.10000610351562,-165.3000030517578,-28.500001907348633
1175744,1.4732261896133423,8.795692443847656,-2.7975146770477295,-0.8689079880714417,0.038109999150037766,0.19054999947547913,86.70000457763672,-170.10000610351562,-29.100000381469727
1175764,1.6610430479049683,8.955994606018066,-2.635417938232422,-0.36585599184036255,0.19817200303077698,0.6631140112876892,74.70000457763672,-165.3000030517578,-28.500001907348633
1175827,1.6957353353500366,9.143811225891113,-2.607903242111206,-0.28201398253440857,0.6326259970664978,0.1295740008354187,81.9000015258789,-170.10000610351562,-30.30000114440918
1175847,1.6359210014343262,9.05289363861084,-2.6061089038848877,-0.4192099869251251,0.7774440050125122,0.015243999660015106,84.30000305175781,-174.90000915527344,-28.500001907348633
1175867,1.5677326917648315,9.108521461486816,-2.6479790210723877,-0.28201398253440857,0.8079319596290588,-0.13719600439071655,77.10000610351562,-177.3000030517578,-27.900001525878906
1175891,1.5162924528121948,9.130054473876953,-2.7059988975524902,-0.33536797761917114,0.7850660085678101,-0.2743920087814331,79.5,-172.5,-27.900001525878906
1175911,1.4134118556976318,9.116296768188477,-2.744878053665161,-0.4039659798145294,0.6250039935112,-0.39634400606155396,72.30000305175781,-174.90000915527344,-28.500001907348633
1175931,1.330868124961853,8.983509063720703,-2.694634199142456,-0.3582339882850647,0.4039659798145294,-0.5259180068969727,74.70000457763672,-174.90000915527344,-28.500001907348633
1175951,1.2854092121124268,8.905152320861816,-2.7406911849975586,-0.342989981174469,0.15243999660015106,-0.5182960033416748,79.5,-167.70001220703125,-29.100000381469727
1175971,1.3374476432800293,8.87464714050293,-2.7460744380950928,-0.3277460038661957,-0.02286599949002266,-0.39634400606155396,81.9000015258789,-167.70001220703125,-29.700000762939453
1175991,1.4415245056152344,8.83576774597168,-2.7885425090789795,-0.38109999895095825,-0.060975998640060425,0.04573199898004532,79.5,-165.3000030517578,-28.500001907348633
1176013,1.5599569082260132,8.84473991394043,-2.820244073867798,-0.3887220025062561,-0.030487999320030212,0.33536797761917114,77.10000610351562,-177.3000030517578,-27.900001525878906
1176033,1.749568223953247,8.866272926330566,-2.7317190170288086,-0.48018598556518555,0.06859800219535828,0.5487840175628662,86.70000457763672,-165.3000030517578,-29.100000381469727
1176053,1.952338695526123,9.114502906799316,-2.6509697437286377,-0.39634400606155396,0.3277460038661957,0.6250039935112,77.10000610351562,-174.90000915527344,-29.100000381469727
1176113,1.833308219909668,9.047510147094727,-2.6958303451538086,-0.23628199100494385,1.1280559301376343,-0.2134159952402115,69.9000015258789,-167.70001220703125,-29.100000381469727
1176133,1.6885576248168945,8.90754508972168,-2.667717695236206,-0.15243999660015106,1.0975680351257324,-0.5487840175628662,72.30000305175781,-167.70001220703125,-30.30000114440918
1176173,1.4696372747421265,9.200634956359863,-2.9291062355041504,0.038109999150037766,0.5411620140075684,-0.8993960022926331,74.70000457763672,-174.90000915527344,-29.100000381469727
1176193,1.3661586046218872,8.803468704223633,-2.835197687149048,-0.26677000522613525,0.26677000522613525,-0.9603719711303711,67.5,-172.5,-29.100000381469727
1176213,1.3195034265518188,8.96735954284668,-2.963200330734253,-0.04573199898004532,0.08384199440479279,-0.8384199738502502,77.10000610351562,-172.5,-27.900001525878906
1176233,1.414608120918274,8.98530387878418,-2.914750814437866,-0.2591480016708374,-0.038109999150037766,-0.6783579587936401,77.10000610351562,-172.5,-30.900001525878906
1176253,1.538423776626587,8.99606990814209,-2.875871419906616,-0.510673999786377,-0.007621999830007553,-0.4344539940357208,74.70000457763672,-170.10000610351562,-30.900001525878906
1176273,1.6700152158737183,9.007434844970703,-2.7945239543914795,-0.685979962348938,0.07621999830007553,-0.1448179930448532,74.70000457763672,-167.70001220703125,-29.700000762939453
1176293,1.712483286857605,8.890796661376953,-2.7101857662200928,-0.8917739987373352,0.3048799932003021,0.015243999660015106,77.10000610351562,-165.3000030517578,-29.100000381469727
1176313,1.7920362949371338,8.82978630065918,-2.6539604663848877,-0.8384199738502502,0.457319974899292,0.18292799592018127,79.5,-165.3000030517578,-28.500001907348633
1176333,1.8895336389541626,8.95539665222168,-2.6695120334625244,-0.7698220014572144,0.6402480006217957,0.35061198472976685,79.5,-170.10000610351562,-29.700000762939453
1176353,1.8596265316009521,8.93147087097168,-2.569622278213501,-0.914639949798584,0.6936019659042358,0.4725639820098877,74.70000457763672,-174.90000915527344,-29.700000762939453
1176373,1.7932326793670654,8.97035026550293,-2.528350353240967,-0.8612859845161438,0.7240899801254272,0.4420759975910187,77.10000610351562,-172.5,-29.700000762939453
1176393,1.6885576248168945,9.052295684814453,-2.524761438369751,-0.8231759667396545,0.7164679765701294,0.12195199728012085,74.70000457763672,-170.10000610351562,-30.30000114440918
1176417,1.6742022037506104,8.988892555236816,-2.5026302337646484,-0.800309956073761,0.6326259970664978,-0.2896359860897064,74.70000457763672,-174.90000915527344,-29.100000381469727
1176437,1.7059037685394287,8.894984245300293,-2.497844934463501,-0.510673999786377,0.571649968624115,-0.5335400104522705,72.30000305175781,-174.90000915527344,-30.900001525878906
1176457,1.7370071411132812,9.016407012939453,-2.4870784282684326,-0.15243999660015106,0.5792719721794128,-0.5564059615135193,69.9000015258789,-172.5,-29.100000381469727
1176477,1.7681106328964233,9.00922966003418,-2.336944580078125,-0.1295740008354187,0.6783579587936401,-0.571649968624115,77.10000610351562,-174.90000915527344,-30.30000114440918
1176497,1.6987260580062866,9.118091583251953,-2.444610357284546,-0.12195199728012085,1.013725996017456,-0.49542999267578125,79.5,-167.70001220703125,-29.700000762939453
1176521,1.6736040115356445,8.90455436706543,-2.5116024017333984,-0.05335399881005287,1.1737879514694214,-0.3277460038661957,77.10000610351562,-167.70001220703125,-29.100000381469727
1176541,1.6736040115356445,8.936256408691406,-2.3925719261169434,0.20579399168491364,1.3109840154647827,0.10670799762010574,74.70000457763672,-172.5,-29.700000762939453
1176561,1.5820881128311157,9.342394828796387,-2.509807825088501,0.23628199100494385,1.6844619512557983,0.49542999267578125,72.30000305175781,-172.5,-29.700000762939453
1176581,1.5210776329040527,9.140222549438477,-2.420684576034546,-0.3048799932003021,1.935987949371338,-0.007621999830007553,74.70000457763672,-170.10000610351562,-27.30000114440918
1176603,1.3894860744476318,9.105530738830566,-2.519378185272217,-0.10670799762010574,2.195136070251465,-0.5945159792900085,74.70000457763672,-167.70001220703125,-28.500001907348633
1176623,1.2172209024429321,8.759803771972656,-2.978153944015503,0.22103799879550934,2.0960500240325928,-1.3186060190200806,74.70000457763672,-172.5,-29.100000381469727
1176643,1.3799158334732056,8.3219633102417,-3.0056684017181396,0.9527499675750732,1.3490939140319824,-1.2652519941329956,74.70000457763672,-170.10000610351562,-30.900001525878906
1176663,1.417000651359558,8.785524368286133,-3.1348674297332764,1.5548880100250244,0.914639949798584,-0.26677000522613525,74.70000457763672,-172.5,-28.500001907348633
1176683,1.508516550064087,9.2042236328125,-3.037369966506958,1.2500079870224,0.5182960033416748,0.28201398253440857,74.70000457763672,-167.70001220703125,-27.900001525878906
1176703,1.8428784608840942,9.41536808013916,-2.8860397338867188,0.5259180068969727,0.28201398253440857,0.5640279650688171,69.9000015258789,-170.10000610351562,-27.900001525878906
1176723,1.6311359405517578,8.912928581237793,-2.8328051567077637,-0.3582339882850647,0.5182960033416748,0.5335400104522705,74.70000457763672,-165.3000030517578,-27.900001525878906
1176743,1.5779011249542236,8.881226539611816,-2.8357958793640137,-0.2134159952402115,0.4420759975910187,0.7164679765701294,69.9000015258789,-172.5,-29.100000381469727
1176763,1.7148759365081787,8.936256408691406,-2.7436819076538086,-0.28201398253440857,0.36585599184036255,0.5030519962310791,69.9000015258789,-172.5,-27.900001525878906
1176786,1.8608227968215942,9.219776153564453,-2.8154590129852295,-0.3201240003108978,0.426831990480423,0.19054999947547913,69.9000015258789,-170.10000610351562,-26.700000762939453
1176827,2.021125078201294,8.902759552001953,-2.7024099826812744,-0.9527499675750732,0.5640279650688171,-0.18292799592018127,72.30000305175781,-174.90000915527344,-27.900001525878906
1176848,1.8919261693954468,8.909339904785156,-2.673699140548706,-0.7469559907913208,0.8155539631843567,-0.22103799879550934,69.9000015258789,-172.5,-27.900001525878906
1176868,1.8865429162979126,8.99427604675293,-2.6940360069274902,-0.6554920077323914,0.8765299916267395,-0.36585599184036255,74.70000457763672,-167.70001220703125,-27.30000114440918
1176890,1.8823559284210205,8.93446159362793,-2.536126136779785,-0.8231759667396545,0.8765299916267395,-0.6250039935112,69.9000015258789,-172.5,-28.500001907348633
1176910,1.7627273797988892,8.98530387878418,-2.5032284259796143,-0.6936019659042358,1.1051899194717407,-0.7012239694595337,72.30000305175781,-172.5,-27.30000114440918
1176930,1.6736040115356445,8.987696647644043,-2.5594537258148193,-0.6631140112876892,1.1356779336929321,-0.8460419774055481,69.9000015258789,-172.5,-26.700000762939453
1176994,1.4959555864334106,8.942835807800293,-2.5911552906036377,-0.4192099869251251,0.8689079880714417,-0.8993960022926331,74.70000457763672,-167.70001220703125,-27.30000114440918
1177023,1.4074304103851318,8.883021354675293,-2.6844656467437744,-0.39634400606155396,0.6554920077323914,-0.9527499675750732,74.70000457763672,-172.5,-29.100000381469727
1177063,1.5079184770584106,9.170129776000977,-2.7030081748962402,-0.23628199100494385,0.3277460038661957,-0.6554920077323914,77.10000610351562,-167.70001220703125,-27.900001525878906
1177083,1.4612632989883423,8.90754508972168,-2.7251393795013428,-0.7240899801254272,0.22103799879550934,-0.5868939757347107,77.10000610351562,-165.3000030517578,-27.30000114440918
1177103,1.5342366695404053,8.951210021972656,-2.6013238430023193,-0.39634400606155396,0.2134159952402115,-0.28201398253440857,77.10000610351562,-165.3000030517578,-28.500001907348633
1177143,1.642500638961792,9.02597713470459,-2.566033363342285,-0.38109999895095825,0.5030519962310791,-0.28201398253440857,74.70000457763672,-167.70001220703125,-27.30000114440918
1177183,1.7429885864257812,8.912330627441406,-2.6246514320373535,-0.3887220025062561,0.6707359552383423,-0.2896359860897064,79.5,-170.10000610351562,-26.700000762939453
1177205,1.7699050903320312,8.926685333251953,-2.6162774562835693,-0.2439039945602417,0.6326259970664978,-0.17530599236488342,77.10000610351562,-167.70001220703125,-29.100000381469727
1177225,1.8219435214996338,9.02717399597168,-2.662334442138672,-0.19817200303077698,0.5945159792900085,-0.1448179930448532,72.30000305175781,-172.5,-29.700000762939453
1177245,1.7884474992752075,8.98709774017334,-2.6671195030212402,-0.2896359860897064,0.4725639820098877,-0.114329993724823,81.9000015258789,-170.10000610351562,-29.700000762939453
1177265,1.732222080230713,8.95539665222168,-2.7293264865875244,-0.23628199100494385,0.342989981174469,-0.18292799592018127,74.70000457763672,-172.5,-27.900001525878906
1177285,1.7543532848358154,8.957191467285156,-2.7012135982513428,-0.19817200303077698,0.13719600439071655,-0.228659987449646,81.9000015258789,-172.5,-28.500001907348633
1177305,1.749568223953247,8.99906063079834,-2.7221486568450928,-0.17530599236488342,0.030487999320030212,-0.28201398253440857,77.10000610351562,-170.10000610351562,-26.100000381469727
1177327,1.742390513420105,9.01820182800293,-2.724541187286377,-0.3734779953956604,-0.04573199898004532,-0.33536797761917114,74.70000457763672,-174.90000915527344,-28.500001907348633
1177347,1.6831743717193604,8.957191467285156,-2.7203543186187744,-0.46494197845458984,-0.09146399796009064,-0.3201240003108978,77.10000610351562,-167.70001220703125,-28.500001907348633
1177367,1.6909501552581787,9.023585319519043,-2.7550466060638428,-0.4878079891204834,-0.15243999660015106,-0.342989981174469,74.70000457763672,-165.3000030517578,-27.900001525878906
1177387,1.6640337705612183,9.03614616394043,-2.6934378147125244,-0.6936019659042358,-0.228659987449646,-0.3277460038661957,81.9000015258789,-170.10000610351562,-27.900001525878906
1177407,1.6915483474731445,8.985901832580566,-2.6419975757598877,-0.8917739987373352,-0.18292799592018127,-0.1600620001554489,77.10000610351562,-172.5,-27.30000114440918
1177429,1.618574857711792,8.874049186706543,-2.6270439624786377,-0.9756159782409668,0.02286599949002266,-0.04573199898004532,84.30000305175781,-170.10000610351562,-29.700000762939453
1177449,1.6413042545318604,9.083398818969727,-2.6366143226623535,-0.8155539631843567,0.18292799592018127,0.17530599236488342,77.10000610351562,-174.90000915527344,-27.30000114440918
1177469,1.5743123292922974,8.951807975769043,-2.6090996265411377,-0.9908599853515625,0.23628199100494385,0.19054999947547913,72.30000305175781,-174.90000915527344,-27.900001525878906
1177489,1.616780400276184,9.036744117736816,-2.637810468673706,-0.9070180058479309,0.2591480016708374,0.2134159952402115,79.5,-172.5,-27.900001525878906
1177509,1.7136796712875366,9.144410133361816,-2.6090996265411377,-0.8612859845161438,0.18292799592018127,0.13719600439071655,74.70000457763672,-174.90000915527344,-29.700000762939453
1177529,1.7441848516464233,8.887207984924316,-2.480498790740967,-1.0594580173492432,0.05335399881005287,0.114329993724823,79.5,-165.3000030517578,-28.500001907348633
1177549,1.7890455722808838,8.929676055908203,-2.4523861408233643,-0.6707359552383423,0.13719600439071655,0.13719600439071655,77.10000610351562,-172.5,-27.900001525878906
1177571,1.7513625621795654,9.08280086517334,-2.43204927444458,-0.3887220025062561,0.2591480016708374,-0.007621999830007553,74.70000457763672,-167.70001220703125,-29.100000381469727
1177611,1.8075881004333496,8.933265686035156,-2.387188673019409,-0.2972579896450043,0.41158798336982727,-0.35061198472976685,74.70000457763672,-172.5,-30.30000114440918
1177674,1.8249342441558838,9.107324600219727,-2.363861083984375,-0.25152599811553955,0.7850660085678101,-0.09908600151538849,72.30000305175781,-170.10000610351562,-29.700000762939453
1177694,1.730427622795105,9.043323516845703,-2.4164977073669434,-0.39634400606155396,0.8155539631843567,-0.09146399796009064,79.5,-172.5,-30.30000114440918
1177734,1.732222080230713,9.05708122253418,-2.46195650100708,-0.3582339882850647,0.6707359552383423,-0.07621999830007553,69.9000015258789,-172.5,-29.700000762939453
1177754,1.7148759365081787,9.071435928344727,-2.4787044525146484,-0.48018598556518555,0.5487840175628662,0.05335399881005287,69.9000015258789,-170.10000610351562,-30.30000114440918
1177774,1.655659794807434,9.09895133972168,-2.530144691467285,-0.6326259970664978,0.510673999786377,0.23628199100494385,77.10000610351562,-170.10000610351562,-29.700000762939453
1177794,1.5689289569854736,9.09895133972168,-2.598931312561035,-0.9603719711303711,0.342989981174469,0.41158798336982727,69.9000015258789,-170.10000610351562,-29.700000762939453
1177816,1.6323322057724,9.088184356689453,-2.527153968811035,-1.0442140102386475,0.038109999150037766,0.49542999267578125,69.9000015258789,-172.5,-30.30000114440918
1177836,1.640706181526184,9.14261531829834,-2.5080134868621826,-1.2347639799118042,-0.1295740008354187,0.5182960033416748,69.9000015258789,-172.5,-29.700000762939453
1177856,1.6765947341918945,9.042725563049316,-2.387188673019409,-1.3414719104766846,-0.3125019967556,0.5792719721794128,74.70000457763672,-172.5,-29.100000381469727
1177877,1.7118852138519287,9.00205135345459,-2.3501036167144775,-1.1585439443588257,-0.3125019967556,0.6402480006217957,74.70000457763672,-177.3000030517578,-31.500001907348633
1177897,1.752558946609497,8.939247131347656,-2.3291687965393066,-0.9527499675750732,-0.3734779953956604,0.5945159792900085,72.30000305175781,-165.3000030517578,-29.700000762939453
1177919,1.8572338819503784,8.918312072753906,-2.241241693496704,-0.5868939757347107,-0.3201240003108978,0.6402480006217957,69.9000015258789,-177.3000030517578,-31.500001907348633
1177939,1.9948067665100098,9.080408096313477,-2.19996976852417,-0.3201240003108978,-0.25152599811553955,0.4878079891204834,65.10000610351562,-172.5,-32.10000228881836
1177959,2.0013864040374756,8.877039909362793,-2.2304751873016357,-0.3734779953956604,-0.13719600439071655,0.3277460038661957,65.10000610351562,-174.90000915527344,-29.700000762939453
1178001,2.1114447116851807,9.060669898986816,-2.325579881668091,0.19817200303077698,0.17530599236488342,0.2743920087814331,65.10000610351562,-172.5,-28.500001907348633
1178041,1.9517405033111572,9.085193634033203,-2.4906673431396484,0.05335399881005287,0.3201240003108978,-0.17530599236488342,72.30000305175781,-174.90000915527344,-30.30000114440918
1178061,1.9882272481918335,9.11569881439209,-2.4308531284332275,0.06859800219535828,0.3125019967556,-0.4344539940357208,67.5,-172.5,-29.100000381469727
1178101,2.0588080883026123,9.064258575439453,-2.4547786712646484,-0.030487999320030212,0.36585599184036255,-0.5335400104522705,65.10000610351562,-174.90000915527344,-29.100000381469727
1178123,1.9696848392486572,9.003846168518066,-2.497844934463501,-0.35061198472976685,0.38109999895095825,-0.49542999267578125,69.9000015258789,-172.5,-27.900001525878906
1178143,1.9720773696899414,9.006836891174316,-2.530144691467285,-0.2972579896450043,0.3277460038661957,-0.49542999267578125,67.5,-172.5,-28.500001907348633
1178163,2.023517608642578,9.024781227111816,-2.384197950363159,-0.2972579896450043,0.23628199100494385,-0.48018598556518555,62.70000076293945,-179.70001220703125,-29.700000762939453
1178183,2.077948570251465,9.117493629455566,-2.45298433303833,-0.3201240003108978,0.2134159952402115,-0.5259180068969727,65.10000610351562,-167.70001220703125,-29.700000762939453
1178205,2.074359893798828,8.94642448425293,-2.381207227706909,-0.44969800114631653,0.2743920087814331,-0.4878079891204834,67.5,-167.70001220703125,-30.30000114440918
1178225,2.0199289321899414,8.894386291503906,-2.4009459018707275,-0.457319974899292,0.26677000522613525,-0.426831990480423,69.9000015258789,-177.3000030517578,-31.500001907348633
1178246,2.1503238677978516,8.918910026550293,-2.319000244140625,-0.28201398253440857,0.2591480016708374,-0.3201240003108978,65.10000610351562,-172.5,-30.900001525878906
1178266,2.184418201446533,8.908143043518066,-2.3231873512268066,-0.3048799932003021,0.3887220025062561,-0.23628199100494385,69.9000015258789,-174.90000915527344,-28.500001907348633
1178286,2.1892032623291016,8.935059547424316,-2.2968690395355225,-0.2743920087814331,0.4039659798145294,-0.15243999660015106,69.9000015258789,-172.5,-30.30000114440918
1178306,2.321990966796875,9.087586402893066,-2.289691209793091,-0.1448179930448532,0.457319974899292,-0.23628199100494385,69.9000015258789,-170.10000610351562,-30.30000114440918
1178329,2.4218809604644775,9.10672664642334,-2.2872986793518066,-0.23628199100494385,0.48018598556518555,-0.2972579896450043,69.9000015258789,-174.90000915527344,-29.700000762939453
1178349,2.364459276199341,8.78612232208252,-2.1802310943603516,-0.4420759975910187,0.48018598556518555,-0.3582339882850647,67.5,-172.5,-28.500001907348633
1178371,2.6748952865600586,9.118091583251953,-2.313018798828125,-0.2439039945602417,0.4039659798145294,-0.4192099869251251,67.5,-174.90000915527344,-30.30000114440918
1178391,2.7939257621765137,9.05289363861084,-2.2992615699768066,-0.41158798336982727,0.2439039945602417,-0.41158798336982727,67.5,-172.5,-28.500001907348633
1178411,2.8657028675079346,8.84473991394043,-2.124603748321533,-0.41158798336982727,0.13719600439071655,-0.39634400606155396,67.5,-172.5,-30.900001525878906
1178433,3.0092573165893555,8.97214412689209,-2.1024725437164307,-0.25152599811553955,0.16768398880958557,-0.3734779953956604,72.30000305175781,-172.5,-29.100000381469727
1178453,3.0858194828033447,9.159961700439453,-2.134174108505249,-0.19054999947547913,0.15243999660015106,-0.5335400104522705,67.5,-172.5,-30.30000114440918
1178517,3.109147071838379,8.458937644958496,-1.9912179708480835,-0.02286599949002266,-0.2896359860897064,-1.5320219993591309,77.10000610351562,-172.5,-29.100000381469727
1178537,3.082230806350708,7.768082618713379,-1.8207472562789917,-0.06859800219535828,-0.41158798336982727,-1.5701320171356201,72.30000305175781,-172.5,-30.900001525878906
1178557,2.766411304473877,6.828400135040283,-1.4780112504959106,-0.1600620001554489,-0.46494197845458984,-1.417691946029663,74.70000457763672,-170.10000610351562,-27.30000114440918
1178580,1.6430987119674683,4.371827125549316,-0.7811747193336487,-0.8993960022926331,-0.7698220014572144,-2.1570260524749756,74.70000457763672,-174.90000915527344,-29.700000762939453
1178660,-0.6597517132759094,4.234852313995361,-1.6885576248168945,-0.2896359860897064,1.7911700010299683,5.853695869445801,74.70000457763672,-174.90000915527344,-29.700000762939453
1178777,5.176329135894775,19.599349975585938,-7.655033588409424,1.7835479974746704,4.100636005401611,11.227205276489258,36.30000305175781,-177.3000030517578,-29.100000381469727
1178817,12.495206832885742,19.599349975585938,-9.594213485717773,-2.278977870941162,-3.696669816970825,-0.7469559907913208,7.500000476837158,-172.5,-29.100000381469727
1178837,9.628905296325684,19.599349975585938,-8.21130657196045,1.1204339265823364,-4.519845962524414,-4.885701656341553,17.100000381469727,-170.10000610351562,-34.5
1178880,3.881349802017212,8.67546558380127,-2.0857245922088623,0.4420759975910187,-7.561023712158203,-16.77602195739746,38.70000076293945,-174.90000915527344,-30.30000114440918
1178900,3.857424020767212,2.43204927444458,0.14654502272605896,-2.4695279598236084,-5.228692054748535,-9.085423469543457,45.900001525878906,-170.10000610351562,-30.30000114440918
1178982,3.1587929725646973,2.4721248149871826,-0.4294666647911072,1.7759259939193726,-1.371959924697876,7.957367897033691,60.30000305175781,-172.5,-31.500001907348633
1179022,1.0670870542526245,-0.6980328559875488,0.8511574268341064,-2.3628199100494385,-2.652456045150757,-1.2042759656906128,48.30000305175781,-174.90000915527344,-32.70000076293945
1179060,0.12321744859218597,0.3253897726535797,0.7704081535339355,-2.240867853164673,-0.3887220025062561,-1.6615959405899048,53.10000228881836,-172.5,-33.30000305175781
1179080,-0.3576894998550415,-0.23148132860660553,0.7434917092323303,-2.088428020477295,-0.36585599184036255,-3.49849796295166,53.10000228881836,-179.70001220703125,-33.30000305175781
1179122,-0.6555647253990173,-0.5658432245254517,0.7554545998573303,-0.4878079891204834,0.19054999947547913,-3.9481959342956543,57.900001525878906,-172.5,-33.900001525878906
1179142,-0.7674174308776855,-0.44501838088035583,0.4958605170249939,0.2972579896450043,0.6097599864006042,-3.60520601272583,60.30000305175781,-179.70001220703125,-32.10000228881836
1179162,-0.812278151512146,-0.34692293405532837,0.34213778376579285,0.7698220014572144,0.6707359552383423,-3.0183119773864746,67.5,-177.3000030517578,-33.900001525878906
1179205,-0.44501838088035583,-0.5676376819610596,0.25540703535079956,0.5411620140075684,0.5335400104522705,-1.0365920066833496,72.30000305175781,-172.5,-33.30000305175781
1179244,0.6663312911987305,1.4792075157165527,-0.20516303181648254,1.0823240280151367,2.225623846054077,5.022897720336914,69.9000015258789,-174.90000915527344,-30.900001525878906
1179264,1.3021572828292847,5.956905841827393,-1.3464198112487793,2.8734939098358154,5.259180068969727,10.632689476013184,60.30000305175781,-174.90000915527344,-32.10000228881836
1179305,5.389268398284912,19.526376724243164,-3.5099029541015625,-4.17685604095459,2.332331895828247,3.5823400020599365,24.30000114440918,-170.10000610351562,-31.500001907348633
1179325,4.841967582702637,19.59396743774414,-5.004662036895752,1.577754020690918,7.469559669494629,-1.6692179441452026,19.5,-170.10000610351562,-30.900001525878906
1179345,15.557100296020508,19.598752975463867,-12.674649238586426,4.916189670562744,10.396408081054688,15.71656322479248,9.90000057220459,-165.3000030517578,-30.30000114440918
1179365,16.2551326751709,19.599349975585938,-9.465612411499023,-4.718018054962158,-2.8048958778381348,-0.19817200303077698,-6.900000095367432,-172.5,-30.900001525878906
1179387,13.73097038269043,19.599349975585938,-9.50209903717041,6.455833911895752,-2.088428020477295,-10.32780933380127,7.500000476837158,-167.70001220703125,-32.10000228881836
1179407,11.431110382080078,19.599349975585938,-8.57976245880127,-1.6082419157028198,-2.652456045150757,-3.6814258098602295,12.300000190734863,-172.5,-32.10000228881836
1179427,7.897281646728516,19.59695816040039,-6.790717124938965,-1.1585439443588257,-3.6890478134155273,-9.14639949798584,24.30000114440918,-165.3000030517578,-30.900001525878906
1179447,4.4519782066345215,13.771045684814453,-4.610486030578613,1.0747020244598389,-6.646383762359619,-15.381196022033691,31.500001907348633,-172.5,-27.900001525878906
1179467,1.3541957139968872,5.636301040649414,-2.083930015563965,-2.0960500240325928,-6.013757705688477,-17.70590591430664,50.70000076293945,-170.10000610351562,-28.500001907348633
1179511,-2.5325372219085693,-3.738393545150757,-0.09988987445831299,-1.6615959405899048,-2.698187828063965,-6.570163726806641,72.30000305175781,-172.5,-29.700000762939453
1179561,1.2303800582885742,4.505212783813477,-1.9020946025848389,2.39330792427063,-2.5228819847106934,4.047281742095947,72.30000305175781,-172.5,-28.500001907348633
1179599,0.1943964660167694,-1.1609954833984375,-0.0047851437702775,-3.1173980236053467,-2.789651870727539,-3.4680099487304688,74.70000457763672,-174.90000915527344,-30.900001525878906
1179619,0.23746275901794434,-1.5330404043197632,0.7285381555557251,-2.39330792427063,-2.8201398849487305,-0.5030519962310791,69.9000015258789,-174.90000915527344,-32.70000076293945
1179662,0.22968690097332,-0.6412092447280884,1.2321745157241821,-2.9725799560546875,-0.28201398253440857,0.7469559907913208,69.9000015258789,-174.90000915527344,-31.500001907348633
1179682,0.15850788354873657,-0.3738393485546112,1.193893313407898,-3.239349842071533,0.5182960033416748,0.8231759667396545,74.70000457763672,-174.90000915527344,-32.10000228881836
1179702,-0.23806090652942657,-0.5132066607475281,0.9671971797943115,-2.7134318351745605,1.1814099550247192,0.7469559907913208,72.30000305175781,-177.3000030517578,-31.500001907348633
1179722,-0.3235953450202942,-0.3433340787887573,0.8948218822479248,-2.0045859813690186,1.295740008354187,0.7317119836807251,69.9000015258789,-172.5,-33.30000305175781
1179742,-0.5903671383857727,-0.32479164004325867,0.7745951414108276,-1.1737879514694214,1.2576299905776978,0.5792719721794128,69.9000015258789,-172.5,-34.5
1179762,-0.9408788681030273,-0.8487648963928223,0.824241042137146,-0.8384199738502502,0.9756159782409668,0.7698220014572144,60.30000305175781,-172.5,-32.70000076293945
1179782,-0.90977543592453,-0.5628525614738464,1.1837249994277954,0.10670799762010574,0.9908599853515625,2.652456045150757,72.30000305175781,-172.5,-33.900001525878906
1179802,-0.9534398913383484,1.9026927947998047,0.7052105665206909,0.6021379828453064,2.2637338638305664,5.937537670135498,67.5,-172.5,-33.30000305175781
1179826,0.8876441717147827,11.862371444702148,-3.4716217517852783,5.083873748779297,8.948227882385254,20.16781234741211,43.5,-177.3000030517578,-31.500001907348633
1179846,8.424843788146973,19.599349975585938,-6.124983787536621,-1.8445239067077637,6.897909641265869,23.78826141357422,21.900001525878906,-170.10000610351562,-33.30000305175781
1179866,10.268918991088867,19.551498413085938,-7.074835300445557,-0.25152599811553955,2.583858013153076,6.661627769470215,9.90000057220459,-177.3000030517578,-33.30000305175781
1179887,10.354453086853027,19.599349975585938,-7.683744430541992,8.10218620300293,3.0716660022735596,2.1722700595855713,7.500000476837158,-167.70001220703125,-32.10000228881836
1179907,19.599349975585938,19.599349975585938,-11.369502067565918,-0.6554920077323914,13.46045207977295,21.112939834594727,-11.700000762939453,-165.3000030517578,-33.30000305175781
1179969,10.372995376586914,19.599349975585938,-5.112926006317139,-3.1402640342712402,-6.593029975891113,-6.128087997436523,-9.300000190734863,-165.3000030517578,-32.70000076293945
1179989,6.860699653625488,15.05765151977539,-4.477100372314453,-3.163130044937134,-5.670767784118652,-10.99854564666748,5.100000381469727,-172.5,-32.70000076293945
1180009,4.335938453674316,7.949918270111084,-0.21951846778392792,-3.917707920074463,-7.080837726593018,-17.050413131713867,17.100000381469727,-170.10000610351562,-32.10000228881836
1180030,1.4774131774902344,0.25122004747390747,1.3727381229400635,-3.254593849182129,-2.5152599811553955,-21.303489685058594,33.900001525878906,-177.3000030517578,-33.30000305175781
1180050,-1.0784517526626587,-5.819333076477051,1.531844139099121,-3.3765459060668945,-0.6478700041770935,-15.160157203674316,53.10000228881836,-174.90000915527344,-33.30000305175781
1180070,-0.8696998953819275,-4.986119747161865,0.9851414561271667,-2.187514066696167,2.2180018424987793,0.38109999895095825,55.500003814697266,-177.3000030517578,-33.900001525878906
1180090,0.9731786251068115,1.3793176412582397,-0.2763420641422272,1.5396440029144287,1.577754020690918,6.112843990325928,45.900001525878906,-172.5,-30.900001525878906
1180135,-0.4695422351360321,0.14175988733768463,-0.4354480803012848,-1.6692179441452026,-2.5076379776000977,-2.5686140060424805,43.5,-177.3000030517578,-33.30000305175781
1180195,0.5897689461708069,-0.6549665331840515,0.9875340461730957,-2.0122079849243164,0.6707359552383423,-0.038109999150037766,53.10000228881836,-179.70001220703125,-35.10000228881836
1180215,0.5562729835510254,-0.4414295256137848,0.9773656129837036,-1.4862899780273438,1.4481799602508545,0.23628199100494385,55.500003814697266,-174.90000915527344,-33.900001525878906
1180235,0.30266034603118896,-0.17106889188289642,0.6770978569984436,-0.9832379817962646,1.6920839548110962,-0.16768398880958557,45.900001525878906,-177.3000030517578,-34.5
1180255,0.4222889244556427,-0.041271865367889404,0.6244612336158752,-0.2743920087814331,1.2728739976882935,-0.5868939757347107,53.10000228881836,-177.3000030517578,-34.5
1180315,0.5484970808029175,-0.9133642911911011,0.9313086271286011,0.8612859845161438,0.8841519951820374,1.0518360137939453,53.10000228881836,-177.3000030517578,-35.10000228881836
1180335,0.6830793023109436,-0.4372425079345703,0.9600194692611694,0.9603719711303711,1.1814099550247192,1.8445239067077637,45.900001525878906,-172.5,-33.900001525878906
1180375,2.358477830886841,13.547938346862793,-2.7149710655212402,8.9329833984375,10.899459838867188,19.337013244628906,36.30000305175781,-172.5,-31.500001907348633
1180395,13.89426326751709,19.599349975585938,-7.5970139503479,-2.835383892059326,16.88273048400879,20.945255279541016,12.300000190734863,-174.90000915527344,-32.70000076293945
1180415,6.93666410446167,18.9886474609375,-6.3923540115356445,-1.5625100135803223,-6.730226039886475,-10.487872123718262,9.90000057220459,-174.90000915527344,-32.70000076293945
1180435,18.038198471069336,19.599349975585938,-9.52602481842041,7.71346378326416,15.861381530761719,18.521459579467773,5.100000381469727,-165.3000030517578,-32.10000228881836
1180495,13.991162300109863,19.599349975585938,-6.027486801147461,-2.903981924057007,-9.420791625976562,-1.1814099550247192,7.500000476837158,-167.70001220703125,-29.700000762939453
1180515,8.240615844726562,19.599349975585938,-5.577682971954346,0.08384199440479279,-2.28659987449646,-7.721086025238037,5.100000381469727,-167.70001220703125,-31.500001907348633
1180535,5.234947204589844,15.126437187194824,-4.303040504455566,-0.33536797761917114,-5.586925983428955,-13.346121788024902,19.5,-170.10000610351562,-29.700000762939453
1180559,0.8439797163009644,2.736504077911377,0.2577996253967285,-3.239349842071533,-5.343021869659424,-21.608369827270508,45.900001525878906,-179.70001220703125,-29.700000762939453
1180579,-2.2005679607391357,-4.65594482421875,0.5736191272735596,-1.8369019031524658,-3.3689239025115967,-18.64341163635254,57.900001525878906,-170.10000610351562,-29.700000762939453
1180599,-3.65704607963562,-6.531123161315918,0.6352278590202332,-0.4725639820098877,-0.6554920077323914,-6.768335819244385,74.70000457763672,-172.5,-30.30000114440918
1180620,-0.176452174782753,0.9857395887374878,-1.3870935440063477,4.28356409072876,-0.08384199440479279,5.487839698791504,77.10000610351562,-174.90000915527344,-29.700000762939453
1180682,0.30684733390808105,-1.2638760805130005,0.3307730555534363,-0.7621999979019165,-2.446661949157715,-3.0640439987182617,74.70000457763672,-172.5,-27.900001525878906
1180702,0.4013539254665375,-0.7829691767692566,0.7650248408317566,-0.2591480016708374,-1.0975680351257324,0.23628199100494385,69.9000015258789,-179.70001220703125,-27.900001525878906
1180722,-0.011962858960032463,-0.5227769613265991,0.47014036774635315,-1.0365920066833496,0.35061198472976685,-0.114329993724823,72.30000305175781,-170.10000610351562,-29.100000381469727
1180742,-0.5377305150032043,-0.8978126049041748,0.40673720836639404,-1.4481799602508545,0.6402480006217957,-0.7698220014572144,74.70000457763672,-172.5,-30.30000114440918
1180762,-0.7351177334785461,-0.7231548428535461,0.22968690097332,-1.0823240280151367,0.967993974685669,-0.35061198472976685,74.70000457763672,-170.10000610351562,-28.500001907348633
1180802,-0.8948218822479248,-0.1722651720046997,-0.10288058966398239,-0.342989981174469,0.7164679765701294,-0.5640279650688171,79.5,-177.3000030517578,-29.700000762939453
1180823,-0.8350076079368591,-0.3265860676765442,0.07117900997400284,-0.2972579896450043,0.39634400606155396,-0.7469559907913208,79.5,-174.90000915527344,-30.900001525878906
1180843,-0.5831893682479858,-0.5496934056282043,0.12261930853128433,-0.8155539631843567,0.5640279650688171,0.030487999320030212,72.30000305175781,-172.5,-29.700000762939453
1180867,-0.6196761131286621,-0.16389118134975433,0.09450659155845642,-1.1814099550247192,1.9207439422607422,3.193617820739746,69.9000015258789,-170.10000610351562,-28.500001907348633
1180887,0.02811271883547306,3.839479684829712,-0.9390844702720642,1.14329993724823,4.481735706329346,8.262248039245605,62.70000076293945,-174.90000915527344,-28.500001907348633
1180911,1.5755085945129395,12.387540817260742,-4.248011589050293,5.564059734344482,12.042759895324707,22.370569229125977,55.500003814697266,-177.3000030517578,-29.100000381469727
1180931,10.194748878479004,19.599349975585938,-9.953697204589844,-4.054903984069824,10.79275131225586,29.34469985961914,21.900001525878906,-172.5,-29.100000381469727
1180951,8.46133041381836,19.57602310180664,-3.7545435428619385,-6.714982032775879,-4.725639820098877,-5.442107677459717,12.300000190734863,-172.5,-29.100000381469727
1180971,8.17541790008545,19.205772399902344,-7.42474889755249,12.881179809570312,11.318669319152832,-4.306429862976074,24.30000114440918,-174.90000915527344,-30.900001525878906
1180991,19.599349975585938,19.599349975585938,-14.522313117980957,1.5091559886932373,14.763813972473145,22.873620986938477,2.700000047683716,-167.70001220703125,-28.500001907348633
1181011,14.59229564666748,19.599349975585938,-11.067439079284668,-2.9268479347229004,-11.654037475585938,-5.14484977722168,0.30000001192092896,-170.10000610351562,-29.700000762939453
1181031,12.392326354980469,19.599349975585938,-7.26025915145874,-0.6021379828453064,-10.472627639770508,-5.160093784332275,7.500000476837158,-172.5,-28.500001907348633
1181051,7.779447555541992,19.599349975585938,-5.710471153259277,-3.2164838314056396,-2.4085519313812256,-5.198204040527344,7.500000476837158,-170.10000610351562,-29.700000762939453
1181073,4.772582530975342,14.760972023010254,-4.612878799438477,-2.385685920715332,-4.093013763427734,-15.266865730285645,17.100000381469727,-165.3000030517578,-27.900001525878906
1181093,1.339840292930603,4.5058112144470215,-1.0832369327545166,-3.5747179985046387,-8.307979583740234,-22.0123348236084,38.70000076293945,-167.70001220703125,-30.30000114440918
1181113,-1.6448931694030762,-3.332254409790039,0.8804664611816406,-6.227173805236816,-3.4756319522857666,-18.04889488220215,60.30000305175781,-172.5,-29.700000762939453
1181133,-0.8840553164482117,-4.160084247589111,0.36546534299850464,-1.653973937034607,0.22103799879550934,1.6158639192581177,65.10000610351562,-172.5,-31.500001907348633
1181194,2.0665838718414307,1.7148759365081787,-0.18602246046066284,0.2972579896450043,-0.15243999660015106,0.8079319596290588,55.500003814697266,-174.90000915527344,-30.30000114440918
1181279,-0.08254373073577881,-0.010766573250293732,0.5682358145713806,-1.3262280225753784,0.9298839569091797,-1.5701320171356201,55.500003814697266,-172.5,-32.10000228881836
1181322,0.29069748520851135,-0.3355582058429718,0.6753033995628357,-0.9756159782409668,0.36585599184036255,-2.637212038040161,60.30000305175781,-170.10000610351562,-32.10000228881836
1181342,0.3750356435775757,-0.6238631010055542,0.6579572558403015,-0.8307979702949524,0.5945159792900085,-1.7378159761428833,62.70000076293945,-172.5,-32.70000076293945
1181404,0.8421853184700012,8.248990058898926,-2.131781578063965,5.243936061859131,9.977197647094727,13.338500022888184,53.10000228881836,-172.5,-30.30000114440918
1181484,5.8229217529296875,18.6177978515625,-8.120986938476562,8.788166046142578,14.649483680725098,11.196718215942383,33.900001525878906,-174.90000915527344,-29.100000381469727
1181524,6.337923049926758,19.456993103027344,-9.42733097076416,2.789651870727539,-16.417787551879883,-13.178437232971191,14.700000762939453,-172.5,-29.100000381469727
1181544,4.648169040679932,13.208192825317383,-1.6179767847061157,-2.088428020477295,-15.541257858276367,-9.725671768188477,29.100000381469727,-167.70001220703125,-30.900001525878906
1181584,1.5031332969665527,8.108426094055176,-4.44180965423584,0.457319974899292,-3.3384358882904053,-11.394889831542969,45.900001525878906,-174.90000915527344,-27.900001525878906
1181607,-0.3505117893218994,3.177335500717163,-1.936188817024231,0.4725639820098877,-6.311016082763672,-10.03817367553711,50.70000076293945,-177.3000030517578,-29.100000381469727
1181627,-0.6322371363639832,2.9368820190429688,-1.5773030519485474,-1.4481799602508545,-2.0579400062561035,-1.196653962135315,57.900001525878906,-167.70001220703125,-29.100000381469727
1181647,0.9229345917701721,5.535214900970459,-2.1868107318878174,-0.8689079880714417,-1.9054999351501465,1.0899460315704346,60.30000305175781,-172.5,-28.500001907348633
1181670,1.018039345741272,4.767199516296387,-1.4959555864334106,-0.39634400606155396,-1.8140360116958618,-1.3033620119094849,60.30000305175781,-170.10000610351562,-29.100000381469727
1181690,1.20705246925354,4.45377254486084,-1.4193933010101318,-0.9603719711303711,-1.4634239673614502,-0.8765299916267395,55.500003814697266,-170.10000610351562,-29.100000381469727
1181710,1.308736801147461,4.319788455963135,-1.1759490966796875,-1.067080020904541,-1.2500079870224,-0.4878079891204834,57.900001525878906,-172.5,-28.500001907348633
1181730,1.414608120918274,4.3532843589782715,-0.924130916595459,-1.2042759656906128,-0.8155539631843567,0.1448179930448532,57.900001525878906,-170.10000610351562,-30.900001525878906
1181750,1.7872512340545654,5.668601036071777,-1.2004729509353638,-0.7850660085678101,-0.06859800219535828,1.4024479389190674,62.70000076293945,-172.5,-28.500001907348633
1181770,2.3955626487731934,8.11560344696045,-1.3649622201919556,-0.7240899801254272,0.17530599236488342,3.1859958171844482,57.900001525878906,-174.90000915527344,-30.30000114440918
1181790,2.9105637073516846,11.044112205505371,-1.5647419691085815,-2.797273874282837,1.6615959405899048,1.8978779315948486,55.500003814697266,-174.90000915527344,-32.10000228881836
1181810,2.735905885696411,11.513653755187988,-2.2131290435791016,-1.8369019031524658,2.6677000522613525,1.1051899194717407,57.900001525878906,-174.90000915527344,-29.100000381469727
1181830,3.8287131786346436,14.704747200012207,-3.6893458366394043,-1.2881180047988892,2.637212038040161,3.711913824081421,50.70000076293945,-174.90000915527344,-29.100000381469727
1181850,3.222196102142334,10.45434284210205,-1.3416346311569214,-3.902463912963867,-1.3109840154647827,-2.75154185295105,45.900001525878906,-174.90000915527344,-30.900001525878906
1181870,1.3320643901824951,8.79210376739502,-1.6299395561218262,-0.510673999786377,2.0655620098114014,0.17530599236488342,53.10000228881836,-174.90000915527344,-30.30000114440918
1181890,1.5737141370773315,9.91541576385498,-2.0037789344787598,-0.2972579896450043,1.0899460315704346,1.1204339265823364,50.70000076293945,-174.90000915527344,-32.70000076293945
1181933,1.4989463090896606,9.017603874206543,-2.074359893798828,0.26677000522613525,-0.08384199440479279,-1.4939119815826416,45.900001525878906,-174.90000915527344,-31.500001907348633
1181955,1.5539754629135132,7.948721885681152,-1.7728958129882812,0.4725639820098877,-0.04573199898004532,-1.6920839548110962,55.500003814697266,-174.90000915527344,-30.30000114440918
1181997,2.381805419921875,8.662904739379883,-2.0049753189086914,0.6326259970664978,0.5411620140075684,0.3048799932003021,57.900001525878906,-174.90000915527344,-30.30000114440918
1182019,2.503826379776001,8.671876907348633,-2.056415557861328,0.5030519962310791,0.49542999267578125,0.7012239694595337,48.30000305175781,-167.70001220703125,-29.700000762939453
1182039,2.865104913711548,9.057679176330566,-2.0067696571350098,0.46494197845458984,0.3582339882850647,1.0365920066833496,48.30000305175781,-177.3000030517578,-30.900001525878906
1182059,3.2084388732910156,9.700084686279297,-2.0109567642211914,0.18292799592018127,0.2743920087814331,0.8993960022926331,43.5,-177.3000030517578,-28.500001907348633
1182103,3.1282877922058105,9.022388458251953,-1.7776808738708496,-0.7926880121231079,0.8079319596290588,-1.2347639799118042,53.10000228881836,-172.5,-29.700000762939453
1182146,2.9787518978118896,7.455254077911377,-1.548592209815979,-0.8079319596290588,1.4100699424743652,-2.2180018424987793,48.30000305175781,-174.90000915527344,-30.900001525878906
1182240,2.954228162765503,9.019397735595703,-4.214515209197998,0.6173819899559021,0.9375059604644775,-1.882633924484253,55.500003814697266,-172.5,-32.10000228881836
1182260,3.020023822784424,9.053491592407227,-4.0733537673950195,1.3262280225753784,0.5640279650688171,-1.5167779922485352,60.30000305175781,-172.5,-30.30000114440918
1182302,3.1019694805145264,8.644362449645996,-3.642690658569336,0.17530599236488342,-0.44969800114631653,-1.7149499654769897,62.70000076293945,-177.3000030517578,-29.100000381469727
1182323,2.849553108215332,8.19336223602295,-3.4028353691101074,0.030487999320030212,0.2972579896450043,-1.2042759656906128,67.5,-177.3000030517578,-27.900001525878906
1182367,2.5062191486358643,8.104239463806152,-3.3346471786499023,-0.5792719721794128,0.35061198472976685,-1.4100699424743652,60.30000305175781,-172.5,-29.100000381469727
1182387,2.509807825088501,7.941544055938721,-3.1904945373535156,-0.685979962348938,0.15243999660015106,-1.6158639192581177,57.900001525878906,-167.70001220703125,-29.100000381469727
1182409,2.5349299907684326,7.601201057434082,-3.0918009281158447,-0.7545779943466187,-0.02286599949002266,-1.6158639192581177,69.9000015258789,-172.5,-29.700000762939453
1182429,2.8178515434265137,8.37459945678711,-3.4327425956726074,-0.4192099869251251,-0.114329993724823,-1.021347999572754,69.9000015258789,-167.70001220703125,-29.100000381469727
1182472,2.9584150314331055,7.960684776306152,-3.162980079650879,-0.7926880121231079,-0.5945159792900085,-0.967993974685669,65.10000610351562,-170.10000610351562,-28.500001907348633
1182494,2.935685634613037,8.004947662353516,-3.180924415588379,-0.7088459730148315,-0.6402480006217957,-0.967993974685669,69.9000015258789,-170.10000610351562,-27.900001525878906
1182514,2.8926193714141846,8.320168495178223,-3.2772252559661865,-0.2972579896450043,-0.7545779943466187,-0.9222619533538818,69.9000015258789,-170.10000610351562,-29.100000381469727
1182534,3.002079486846924,8.954798698425293,-3.43393874168396,0.2439039945602417,-1.417691946029663,-1.3262280225753784,67.5,-162.90000915527344,-29.100000381469727
1182594,2.914750814437866,8.944031715393066,-2.942265272140503,0.13719600439071655,-2.240867853164673,-2.0122079849243164,74.70000457763672,-167.70001220703125,-26.700000762939453
1182617,2.516387462615967,8.724513053894043,-2.540313243865967,0.05335399881005287,-2.1189160346984863,-1.4634239673614502,77.10000610351562,-172.5,-27.30000114440918
1182638,1.5515828132629395,8.528322219848633,-2.0103585720062256,-0.5182960033416748,-2.736297845840454,-1.9131219387054443,84.30000305175781,-170.10000610351562,-28.500001907348633
1182659,0.8756812810897827,9.695897102355957,-1.6999223232269287,-0.08384199440479279,-1.935987949371338,-1.14329993724823,79.5,-170.10000610351562,-28.500001907348633
1182679,-0.06160872429609299,10.940632820129395,-2.089911460876465,-1.2576299905776978,-1.7378159761428833,-2.3170878887176514,84.30000305175781,-167.70001220703125,-28.500001907348633
1182699,-0.8009134531021118,9.219776153564453,-1.4301598072052002,-1.753059983253479,-0.914639949798584,-4.489357948303223,86.70000457763672,-170.10000610351562,-29.700000762939453
1182721,-1.001291275024414,9.993772506713867,-1.7788771390914917,-0.5259180068969727,-0.28201398253440857,-3.307947874069214,91.5,-167.70001220703125,-29.100000381469727
1182781,-2.18501615524292,9.96027660369873,-2.3417296409606934,1.0594580173492432,-1.5625100135803223,-3.1783738136291504,108.30000305175781,-165.3000030517578,-30.30000114440918
1182802,-1.946357250213623,9.778441429138184,-2.387786626815796,0.685979962348938,-1.4329359531402588,-2.3170878887176514,103.50000762939453,-167.70001220703125,-30.900001525878906
1182823,-1.6700152158737183,9.371106147766113,-2.271148920059204,0.6478700041770935,-1.3414719104766846,-0.9222619533538818,105.9000015258789,-165.3000030517578,-30.30000114440918
1182844,-1.2435392141342163,9.1922607421875,-2.27174711227417,0.4344539940357208,-1.1737879514694214,0.15243999660015106,105.9000015258789,-170.10000610351562,-30.900001525878906
1182864,-0.709397554397583,9.590624809265137,-2.2191104888916016,0.2972579896450043,-0.9756159782409668,0.7774440050125122,103.50000762939453,-170.10000610351562,-30.900001525878906
1182884,-0.30086591839790344,9.401013374328613,-2.244232416152954,-0.2896359860897064,-0.9527499675750732,0.457319974899292,108.30000305175781,-172.5,-29.700000762939453
1182904,-0.16149860620498657,8.801673889160156,-1.8057936429977417,-0.44969800114631653,-0.9984819889068604,0.3277460038661957,101.10000610351562,-170.10000610351562,-31.500001907348633
1182927,0.39238178730010986,8.894984245300293,-1.6628375053405762,-0.457319974899292,-0.8079319596290588,0.04573199898004532,101.10000610351562,-170.10000610351562,-29.100000381469727
1182947,0.39656877517700195,8.31777572631836,-1.3422328233718872,-0.8079319596290588,-0.7088459730148315,-0.36585599184036255,103.50000762939453,-167.70001220703125,-30.900001525878906
1182967,0.5574692487716675,9.156970977783203,-1.536629319190979,0.02286599949002266,-0.18292799592018127,-0.28201398253440857,105.9000015258789,-162.90000915527344,-30.900001525878906
1182990,0.256005197763443,9.170727729797363,-1.6209675073623657,-0.3582339882850647,0,-1.2347639799118042,98.70000457763672,-162.90000915527344,-29.100000381469727
1183010,0.12620817124843597,9.08280086517334,-1.5910602807998657,-0.2439039945602417,0.038109999150037766,-1.7759259939193726,103.50000762939453,-160.5,-31.500001907348633
1183072,-0.20635932683944702,8.796290397644043,-1.7962234020233154,-0.038109999150037766,0.7774440050125122,-2.782029867172241,110.70000457763672,-162.90000915527344,-29.700000762939453
1183092,-0.27275320887565613,8.84892749786377,-2.107257604598999,0.4192099869251251,1.0899460315704346,-2.6067240238189697,113.10000610351562,-165.3000030517578,-30.900001525878906
1183115,0.02930900640785694,9.822704315185547,-2.3596739768981934,1.0975680351257324,1.0061039924621582,-2.1570260524749756,117.9000015258789,-162.90000915527344,-29.100000381469727
1183135,0.26378104090690613,9.919004440307617,-2.557061195373535,0.8231759667396545,1.067080020904541,-2.332331895828247,115.50000762939453,-162.90000915527344,-30.30000114440918
1183155,-0.05383286625146866,8.97334098815918,-2.4870784282684326,0.2743920087814331,1.3109840154647827,-2.6067240238189697,115.50000762939453,-162.90000915527344,-30.30000114440918
1183178,0.2117426097393036,9.16355037689209,-2.7735888957977295,0.6250039935112,1.242385983467102,-2.0503180027008057,117.9000015258789,-158.10000610351562,-27.900001525878906
1183198,0.2165277600288391,8.394338607788086,-2.7939257621765137,-0.1448179930448532,1.6692179441452026,-2.2484898567199707,120.30000305175781,-160.5,-29.100000381469727
1183218,0.028710862621665,7.955899715423584,-3.057706832885742,0.16768398880958557,1.981719970703125,-1.7759259939193726,125.10000610351562,-167.70001220703125,-27.900001525878906
1183238,0.16987259685993195,8.025882720947266,-3.22578501701355,0.2896359860897064,2.027451992034912,-1.1814099550247192,120.30000305175781,-162.90000915527344,-27.30000114440918
1183258,0.15491902828216553,8.551650047302246,-3.5930447578430176,0.426831990480423,2.4695279598236084,-0.7469559907913208,125.10000610351562,-160.5,-27.30000114440918
1183282,0.7046124339103699,10.4214448928833,-4.356873512268066,1.2804960012435913,2.8201398849487305,-0.08384199440479279,120.30000305175781,-155.70001220703125,-28.500001907348633
1183323,0.6747052669525146,9.704869270324707,-4.480090618133545,0.17530599236488342,0.6554920077323914,-3.612828016281128,127.50000762939453,-155.70001220703125,-27.900001525878906
1183343,0.5640488266944885,8.469106674194336,-4.517773628234863,1.2881180047988892,0.9375059604644775,-2.888737916946411,125.10000610351562,-162.90000915527344,-27.30000114440918
1183363,0.5813949704170227,8.926685333251953,-4.49564266204834,1.0518360137939453,0.5792719721794128,-1.189031958580017,132.3000030517578,-153.3000030517578,-26.100000381469727
1183383,0.6256575584411621,9.401611328125,-4.461548328399658,0.6936019659042358,0.7088459730148315,-0.914639949798584,127.50000762939453,-153.3000030517578,-26.700000762939453
1183407,0.7482768297195435,9.115100860595703,-4.18580436706543,-0.7469559907913208,0.7850660085678101,-1.0975680351257324,127.50000762939453,-153.3000030517578,-26.100000381469727
1183427,0.7399028539657593,8.466115951538086,-3.792226552963257,-1.5396440029144287,1.1280559301376343,-1.0365920066833496,137.10000610351562,-158.10000610351562,-25.500001907348633
1183447,0.8391945958137512,8.30700969696045,-3.564932107925415,-1.600619912147522,1.4558019638061523,-0.36585599184036255,125.10000610351562,-158.10000610351562,-26.100000381469727
1183470,0.9259253144264221,8.327346801757812,-3.395059585571289,-2.073184013366699,1.577754020690918,0.02286599949002266,129.90000915527344,-150.90000915527344,-28.500001907348633
1183490,1.1478363275527954,8.18139934539795,-3.287992000579834,-1.8369019031524658,1.3948259353637695,0.19817200303077698,129.90000915527344,-155.70001220703125,-27.30000114440918
1183512,1.3344569206237793,8.442788124084473,-3.3256750106811523,-1.4481799602508545,1.2576299905776978,0.3277460038661957,127.50000762939453,-150.90000915527344,-27.900001525878906
1183532,1.6024249792099,8.493032455444336,-3.2126259803771973,-1.2118979692459106,0.7621999979019165,0.15243999660015106,132.3000030517578,-158.10000610351562,-26.700000762939453
1183552,1.8087843656539917,8.2262601852417,-3.1007730960845947,-1.1128119230270386,0.5792719721794128,0.12195199728012085,129.90000915527344,-155.70001220703125,-27.30000114440918
1183572,1.8793652057647705,8.287270545959473,-3.136063575744629,-0.6936019659042358,0.4725639820098877,0.10670799762010574,132.3000030517578,-162.90000915527344,-25.500001907348633
1183592,1.9385813474655151,8.38058090209961,-3.2156167030334473,-0.3887220025062561,0.228659987449646,-0.05335399881005287,129.90000915527344,-153.3000030517578,-27.30000114440918
1183612,1.9206371307373047,8.47927474975586,-3.3274693489074707,0.08384199440479279,-0.228659987449646,-0.25152599811553955,125.10000610351562,-158.10000610351562,-26.100000381469727
1183632,1.8069899082183838,8.572585105895996,-3.1462321281433105,0.28201398253440857,-0.5564059615135193,-0.16768398880958557,127.50000762939453,-155.70001220703125,-27.30000114440918
1183652,1.82553231716156,9.962669372558594,-3.573306083679199,0.6478700041770935,-0.5564059615135193,0.015243999660015106,134.70001220703125,-153.3000030517578,-26.100000381469727
1183672,0.8356057405471802,8.54686450958252,-3.1217081546783447,-0.7621999979019165,-1.7606819868087769,-1.3872039318084717,139.5,-158.10000610351562,-27.30000114440918
1183694,0.362474650144577,8.568398475646973,-2.607903242111206,-0.114329993724823,-1.0365920066833496,0.2591480016708374,134.70001220703125,-148.5,-25.500001907348633
1183715,-0.3959706425666809,9.501501083374023,-2.748466968536377,-0.5945159792900085,-0.44969800114631653,0.228659987449646,129.90000915527344,-155.70001220703125,-27.30000114440918
1183735,-1.1286958456039429,10.523727416992188,-2.9697799682617188,-0.5030519962310791,-0.228659987449646,-0.22103799879550934,132.3000030517578,-158.10000610351562,-28.500001907348633
1183755,-1.4445152282714844,10.237814903259277,-2.4434139728546143,-0.9298839569091797,-1.3262280225753784,-1.417691946029663,132.3000030517578,-160.5,-27.900001525878906
1183775,-1.4576743841171265,9.354357719421387,-1.7573440074920654,-1.3262280225753784,-0.853663980960846,-1.242385983467102,132.3000030517578,-165.3000030517578,-27.30000114440918
1183795,-1.5886677503585815,8.958985328674316,-1.8847484588623047,-1.2118979692459106,-0.15243999660015106,-0.8155539631843567,129.90000915527344,-158.10000610351562,-27.900001525878906
1183815,-1.8668042421340942,8.62582015991211,-1.736409068107605,-0.5182960033416748,-0.114329993724823,-0.5030519962310791,134.70001220703125,-148.5,-29.100000381469727
1183835,-1.8751782178878784,9.113306045532227,-2.330963134765625,-0.1600620001554489,0.114329993724823,-0.030487999320030212,132.3000030517578,-158.10000610351562,-27.900001525878906
1183855,-1.9631052017211914,8.94044303894043,-2.328570604324341,0.3277460038661957,-0.48018598556518555,-0.5487840175628662,132.3000030517578,-160.5,-27.900001525878906
1183875,-1.8004103899002075,9.020594596862793,-2.363262891769409,0.6097599864006042,-0.8612859845161438,-0.8612859845161438,129.90000915527344,-155.70001220703125,-27.900001525878906
1183898,-1.7178666591644287,9.122278213500977,-2.2908875942230225,0.5259180068969727,-0.8765299916267395,-1.3262280225753784,139.5,-160.5,-27.900001525878906
1183918,-1.7740920782089233,8.924293518066406,-2.2669618129730225,0.09908600151538849,-0.7621999979019165,-1.9512319564819336,134.70001220703125,-160.5,-26.100000381469727
1183981,-1.0443576574325562,8.841151237487793,-1.7950270175933838,-0.457319974899292,1.4481799602508545,-2.2637338638305664,146.70001220703125,-162.90000915527344,-27.30000114440918
1184001,-1.3721399307250977,8.662306785583496,-2.1832218170166016,-0.457319974899292,1.8978779315948486,-2.1722700595855713,146.70001220703125,-148.5,-27.900001525878906
1184021,-1.3565882444381714,8.998462677001953,-2.4763119220733643,0.4725639820098877,1.6692179441452026,-1.9207439422607422,146.70001220703125,-148.5,-28.500001907348633
1184041,-1.2321745157241821,9.380078315734863,-2.5235652923583984,0.8384199738502502,1.3872039318084717,-1.9740979671478271,151.5,-148.5,-27.900001525878906
1184061,-1.1095552444458008,9.318469047546387,-2.6222589015960693,0.5182960033416748,1.14329993724823,-2.187514066696167,153.90000915527344,-148.5,-27.900001525878906
1184101,-1.1274994611740112,8.436806678771973,-3.3131139278411865,0.5792719721794128,1.2195199728012085,-1.8902559280395508,153.90000915527344,-153.3000030517578,-27.900001525878906
1184123,-0.8685035705566406,8.527724266052246,-3.532034158706665,0.5868939757347107,0.6021379828453064,-1.478667974472046,158.70001220703125,-148.5,-27.900001525878906
1184143,-0.4868883788585663,9.161157608032227,-3.884340524673462,0.7926880121231079,0.510673999786377,-0.685979962348938,156.3000030517578,-146.10000610351562,-26.700000762939453
1184163,-0.05562729761004448,9.732982635498047,-4.211524486541748,0.739333987236023,0.38109999895095825,-0.7926880121231079,161.10000610351562,-148.5,-26.700000762939453
