time,sensor_accX[g],sensor_accY[g],sensor_accZ[g],sensor_gyroX[°/s],sensor_gyroY[°/s],sensor_gyroZ[°/s],sensor_magX[µT],sensor_magY[µT],sensor_magZ[µT]
1061961,-3.618764877319336,8.990687370300293,-0.17764846980571747,-0.2896359860897064,0.3887220025062561,-0.22103799879550934,151.5,-136.5,-63.30000305175781
1061981,-3.6474759578704834,8.990687370300293,-0.1573116034269333,-0.39634400606155396,0.3734779953956604,-0.3277460038661957,153.90000915527344,-136.5,-61.500003814697266
1062001,-3.6881494522094727,8.923694610595703,-0.14534874260425568,-0.44969800114631653,0.39634400606155396,-0.3887220025062561,153.90000915527344,-136.5,-60.900001525878906
1062021,-3.7126734256744385,8.924293518066406,-0.10407687723636627,-0.426831990480423,0.44969800114631653,-0.39634400606155396,158.70001220703125,-136.5,-62.10000228881836
1062041,-3.780263662338257,8.947620391845703,-0.12261930853128433,-0.44969800114631653,0.4725639820098877,-0.3734779953956604,158.70001220703125,-136.5,-62.70000076293945
1062064,-3.782656192779541,8.983509063720703,-0.0957028716802597,-0.4192099869251251,0.426831990480423,-0.342989981174469,153.90000915527344,-138.90000915527344,-62.10000228881836
1062084,-3.7694969177246094,8.97035026550293,-0.09091772884130478,-0.44969800114631653,0.3887220025062561,-0.3582339882850647,161.10000610351562,-131.70001220703125,-60.30000305175781
1062104,-3.7724876403808594,8.97932243347168,-0.06878644227981567,-0.4725639820098877,0.41158798336982727,-0.342989981174469,161.10000610351562,-131.70001220703125,-62.70000076293945
1062124,-3.8406760692596436,8.808253288269043,-0.04426258057355881,-0.5182960033416748,0.38109999895095825,-0.2972579896450043,156.3000030517578,-138.90000915527344,-62.10000228881836
1062147,-3.6911401748657227,8.96137809753418,-0.050244010984897614,-0.3582339882850647,0.39634400606155396,-0.030487999320030212,156.3000030517578,-134.10000610351562,-63.900001525878906
1062168,-3.717458486557007,9.088184356689453,-0.0927121639251709,-0.46494197845458984,0.3582339882850647,-0.1295740008354187,158.70001220703125,-136.5,-61.500003814697266
1062188,-3.67499041557312,9.095361709594727,-0.016149859875440598,-0.510673999786377,0.28201398253440857,-0.2972579896450043,156.3000030517578,-136.5,-61.500003814697266
1062208,-3.720449209213257,8.973938941955566,0.016748003661632538,-0.5030519962310791,0.4344539940357208,-0.342989981174469,151.5,-134.10000610351562,-61.500003814697266
1062228,-3.7031030654907227,8.929078102111816,0.04306629300117493,-0.457319974899292,0.5792719721794128,-0.2972579896450043,153.90000915527344,-136.5,-61.500003814697266
1062248,-3.755141496658325,8.840553283691406,0.05622543767094612,-0.4344539940357208,0.7164679765701294,-0.18292799592018127,161.10000610351562,-134.10000610351562,-60.900001525878906
1062268,-3.7928245067596436,8.815430641174316,0.09689915925264359,-0.3734779953956604,0.7164679765701294,-0.08384199440479279,151.5,-138.90000915527344,-60.30000305175781
1062288,-3.7539453506469727,8.900965690612793,0.059814296662807465,-0.33536797761917114,0.739333987236023,-0.07621999830007553,161.10000610351562,-136.5,-62.10000228881836
1062308,-3.740187883377075,8.932666778564453,0.10288058966398239,-0.41158798336982727,0.739333987236023,-0.13719600439071655,151.5,-131.70001220703125,-62.10000228881836
1062348,-3.7575340270996094,8.911133766174316,0.1603023111820221,-0.5792719721794128,0.8384199738502502,-0.25152599811553955,156.3000030517578,-134.10000610351562,-62.70000076293945
1062368,-3.794020891189575,9.06904411315918,0.18901318311691284,-0.4878079891204834,0.8155539631843567,-0.28201398253440857,156.3000030517578,-134.10000610351562,-62.10000228881836
1062388,-3.731813907623291,9.130054473876953,0.27574390172958374,-0.457319974899292,0.8384199738502502,-0.44969800114631653,156.3000030517578,-131.70001220703125,-61.500003814697266
1062408,-3.7312159538269043,8.954798698425293,0.4222889244556427,-0.33536797761917114,0.9298839569091797,-0.571649968624115,156.3000030517578,-141.3000030517578,-62.70000076293945
1062430,-3.6833643913269043,8.84473991394043,0.47911250591278076,-0.06859800219535828,1.196653962135315,-0.4725639820098877,161.10000610351562,-138.90000915527344,-60.30000305175781
1062451,-3.791030168533325,8.838160514831543,0.33795076608657837,0.228659987449646,1.371959924697876,-0.2743920087814331,153.90000915527344,-136.5,-61.500003814697266
1062471,-3.6863551139831543,8.842347145080566,0.32180091738700867,0.44969800114631653,1.3948259353637695,-0.12195199728012085,158.70001220703125,-141.3000030517578,-62.10000228881836
1062492,-3.758730411529541,8.567201614379883,0.07237529754638672,0.49542999267578125,1.3948259353637695,-0.030487999320030212,163.5,-134.10000610351562,-59.70000076293945
1062512,-3.5517730712890625,9.04511833190918,0.09211401641368866,0.6631140112876892,1.3795819282531738,0.22103799879550934,161.10000610351562,-141.3000030517578,-61.500003814697266
1062532,-3.529641628265381,9.46022891998291,-0.09749730676412582,0.426831990480423,1.3109840154647827,0.04573199898004532,156.3000030517578,-136.5,-59.10000228881836
1062553,-3.6343166828155518,9.244897842407227,-0.10288058966398239,0.038109999150037766,0.9603719711303711,-0.22103799879550934,163.5,-136.5,-60.30000305175781
1062573,-3.7365992069244385,8.848328590393066,-0.08433815836906433,-0.09908600151538849,0.7012239694595337,-0.09908600151538849,161.10000610351562,-138.90000915527344,-61.500003814697266
1062593,-3.6618313789367676,8.951807975769043,-0.18183545768260956,0.04573199898004532,0.4725639820098877,0.2743920087814331,156.3000030517578,-146.10000610351562,-60.30000305175781
1062613,-3.473416328430176,9.22037410736084,-0.06938458234071732,-0.007621999830007553,0.38109999895095825,0.3887220025062561,156.3000030517578,-141.3000030517578,-59.70000076293945
1062633,-3.3675448894500732,9.4853515625,-0.011364716105163097,-0.06859800219535828,0.6631140112876892,0.09146399796009064,158.70001220703125,-141.3000030517578,-59.70000076293945
1062654,-3.66900897026062,8.880030632019043,-0.023925717920064926,0.09146399796009064,1.1509219408035278,-0.6631140112876892,163.5,-134.10000610351562,-60.30000305175781
1062674,-3.5308380126953125,8.930274963378906,0.03708486258983612,0.46494197845458984,1.5853760242462158,-0.800309956073761,156.3000030517578,-138.90000915527344,-59.10000228881836
1062694,-3.69891619682312,9.185681343078613,-0.13278773427009583,0.7012239694595337,2.2561118602752686,-0.8765299916267395,163.5,-136.5,-59.10000228881836
1062714,-3.9250142574310303,9.204822540283203,-0.2237054705619812,0.800309956073761,2.736297845840454,-1.067080020904541,168.3000030517578,-138.90000915527344,-60.30000305175781
1062734,-4.243226051330566,9.072632789611816,-0.33496007323265076,0.8689079880714417,3.3689239025115967,-1.021347999572754,161.10000610351562,-131.70001220703125,-57.900001525878906
1062756,-4.544690132141113,9.006836891174316,-0.5018419623374939,1.0747020244598389,3.704291820526123,-1.013725996017456,168.3000030517578,-138.90000915527344,-56.10000228881836
1062776,-4.572205066680908,9.219776153564453,-0.45698124170303345,1.2881180047988892,4.17685604095459,-0.8231759667396545,165.90000915527344,-136.5,-56.70000076293945
1062799,-4.618860244750977,9.804759979248047,-0.6567609906196594,1.3262280225753784,4.733262062072754,-0.7545779943466187,173.10000610351562,-143.70001220703125,-57.30000305175781
1062819,-5.10215950012207,9.441686630249023,-0.8691017627716064,1.0823240280151367,5.099117755889893,-1.0061039924621582,170.70001220703125,-146.10000610351562,-56.70000076293945
1062841,-4.98970890045166,9.04511833190918,-0.8619239926338196,1.3414719104766846,5.0533857345581055,-0.6631140112876892,168.3000030517578,-138.90000915527344,-56.10000228881836
1062861,-4.725329399108887,9.332226753234863,-1.0006932020187378,1.8140360116958618,5.586925983428955,-0.15243999660015106,173.10000610351562,-141.3000030517578,-56.10000228881836
1062881,-4.591943740844727,9.2760009765625,-1.0784517526626587,1.8673899173736572,5.891805648803711,-0.015243999660015106,173.10000610351562,-138.90000915527344,-51.900001525878906
1062901,-4.619458198547363,9.426135063171387,-1.1711639165878296,2.195136070251465,6.562541961669922,0.10670799762010574,170.70001220703125,-136.5,-51.900001525878906
1062921,-5.03935432434082,9.528417587280273,-1.505525827407837,2.4771499633789062,7.027483940124512,-0.060975998640060425,170.70001220703125,-134.10000610351562,-50.70000076293945
1062941,-5.291770935058594,9.488940238952637,-1.5784993171691895,2.5533699989318848,6.958885669708252,-0.17530599236488342,177.90000915527344,-138.90000915527344,-49.500003814697266
1062961,-5.3904643058776855,9.468005180358887,-1.720259189605713,2.75154185295105,7.073215961456299,0.06859800219535828,170.70001220703125,-141.3000030517578,-48.900001525878906
1062981,-5.3551740646362305,9.768871307373047,-1.9230296611785889,2.903981924057007,7.218033790588379,0.5868939757347107,177.90000915527344,-141.3000030517578,-47.70000076293945
1063001,-5.3133039474487305,9.643260955810547,-2.068378448486328,2.7210538387298584,7.423827648162842,1.189031958580017,173.10000610351562,-146.10000610351562,-47.10000228881836
1063021,-5.148814678192139,9.462023735046387,-2.2221012115478516,2.530503988265991,8.025965690612793,2.1036720275878906,182.70001220703125,-143.70001220703125,-47.10000228881836
1063041,-4.91195011138916,9.40639591217041,-2.503826379776001,2.5152599811553955,8.734811782836914,2.896359920501709,177.90000915527344,-148.5,-44.70000076293945
1063061,-4.39993953704834,9.427929878234863,-2.354888916015625,2.03507399559021,9.138777732849121,3.292703866958618,173.10000610351562,-150.90000915527344,-42.30000305175781
1063081,-4.160682678222656,9.256860733032227,-2.4882748126983643,1.5701320171356201,10.198235511779785,3.2622158527374268,175.5,-155.70001220703125,-42.30000305175781
1063105,-3.914247512817383,9.30291748046875,-2.6874563694000244,0.7774440050125122,11.097631454467773,2.888737916946411,173.10000610351562,-150.90000915527344,-39.900001525878906
1063125,-3.853835105895996,8.970948219299316,-2.7221486568450928,-0.02286599949002266,11.46348762512207,2.4771499633789062,165.90000915527344,-150.90000915527344,-39.30000305175781
1063145,-3.8346946239471436,8.673072814941406,-2.808281183242798,-0.6631140112876892,11.67690372467041,2.2713558673858643,161.10000610351562,-158.10000610351562,-38.10000228881836
1063185,-4.104456901550293,8.15747356414795,-2.950639247894287,-1.4558019638061523,11.402511596679688,1.5472660064697266,158.70001220703125,-150.90000915527344,-37.5
1063205,-4.191187858581543,7.558732509613037,-3.073856830596924,-0.9375059604644775,10.182991981506348,2.2484898567199707,161.10000610351562,-153.3000030517578,-36.900001525878906
1063225,-4.008155822753906,7.7363810539245605,-2.9614057540893555,-0.8612859845161438,8.887251853942871,3.60520601272583,158.70001220703125,-158.10000610351562,-36.30000305175781
1063245,-3.454275608062744,8.284878730773926,-2.856132745742798,-0.28201398253440857,7.8430376052856445,4.763750076293945,151.5,-158.10000610351562,-35.70000076293945
1063267,-3.020023822784424,8.201138496398926,-2.465545415878296,-0.7850660085678101,7.370473861694336,4.64179801940918,153.90000915527344,-160.5,-34.5
1063287,-3.0947916507720947,8.096463203430176,-2.7107839584350586,-0.8460419774055481,7.4466938972473145,4.458869934082031,139.5,-165.3000030517578,-35.10000228881836
1063307,-2.7562427520751953,8.135342597961426,-2.868095636367798,-1.067080020904541,6.730226039886475,4.260697841644287,139.5,-160.5,-32.70000076293945
1063327,-2.4464046955108643,7.7244181632995605,-2.6748952865600586,-1.295740008354187,5.907049655914307,3.7805118560791016,139.5,-170.10000610351562,-33.30000305175781
1063348,-2.271148920059204,6.985113620758057,-2.720952272415161,-1.2576299905776978,5.403997898101807,3.3308138847351074,132.3000030517578,-167.70001220703125,-34.5
1063368,-2.0528266429901123,6.789520740509033,-2.825627326965332,-0.7774440050125122,4.67990779876709,3.460387945175171,132.3000030517578,-162.90000915527344,-33.900001525878906
1063388,-1.4654502868652344,7.7579145431518555,-3.1408486366271973,-0.46494197845458984,3.8872199058532715,3.8948419094085693,125.10000610351562,-167.70001220703125,-34.5
1063408,-1.3452235460281372,7.178912162780762,-3.1611855030059814,-0.800309956073761,2.9268479347229004,2.7744078636169434,122.70000457763672,-172.5,-31.500001907348633
1063429,-0.9695897698402405,7.061676025390625,-3.476407051086426,0.007621999830007553,2.225623846054077,2.6600780487060547,120.30000305175781,-167.70001220703125,-33.900001525878906
1063449,-0.3606802225112915,7.826700687408447,-3.869386911392212,0.6173819899559021,1.2347639799118042,3.0640439987182617,117.9000015258789,-167.70001220703125,-31.500001907348633
1063473,0.8409889936447144,8.520546913146973,-3.5069122314453125,0.4878079891204834,-0.800309956073761,2.8277618885040283,115.50000762939453,-172.5,-32.10000228881836
1063533,2.345916748046875,8.2202787399292,-2.819645881652832,-1.3262280225753784,-1.3109840154647827,3.818621873855591,108.30000305175781,-167.70001220703125,-32.10000228881836
1063561,2.4254696369171143,9.444677352905273,-3.106156349182129,-0.4039659798145294,0.20579399168491364,4.657042026519775,91.5,-172.5,-33.900001525878906
1063602,2.6802785396575928,10.230039596557617,-2.9913129806518555,-0.914639949798584,-1.4024479389190674,1.8902559280395508,91.5,-172.5,-33.30000305175781
1063642,2.8812546730041504,10.793489456176758,-2.1682682037353516,-1.013725996017456,-1.1204339265823364,0.5030519962310791,89.10000610351562,-167.70001220703125,-33.900001525878906
1063704,0.7841654419898987,8.70537281036377,-1.4827964305877686,-1.7683039903640747,0.12195199728012085,-2.2713558673858643,89.10000610351562,-170.10000610351562,-36.30000305175781
1063744,0.31701576709747314,9.200037002563477,-1.3924767971038818,-0.6554920077323914,0.2134159952402115,-0.6021379828453064,86.70000457763672,-172.5,-34.5
1063764,0.13936731219291687,8.799281120300293,-1.3063442707061768,-0.9603719711303711,0.6707359552383423,-0.015243999660015106,93.9000015258789,-170.10000610351562,-34.5
1063806,0.2691643238067627,8.79389762878418,-1.3559901714324951,0.07621999830007553,0.853663980960846,1.3262280225753784,93.9000015258789,-172.5,-33.30000305175781
1063826,0.409129798412323,8.71135425567627,-1.3858972787857056,-0.1600620001554489,0.9756159782409668,1.5472660064697266,91.5,-172.5,-35.10000228881836
1063846,0.5861800909042358,8.373403549194336,-1.1849212646484375,-0.3734779953956604,1.2271419763565063,1.7911700010299683,96.30000305175781,-172.5,-35.70000076293945
1063870,0.9474584460258484,8.876441955566406,-1.442720890045166,-0.5564059615135193,1.577754020690918,1.699705958366394,86.70000457763672,-170.10000610351562,-35.70000076293945
1063930,1.6897538900375366,8.941638946533203,-1.1639862060546875,-1.2347639799118042,2.03507399559021,0.6097599864006042,84.30000305175781,-172.5,-35.10000228881836
1064039,1.6472856998443604,8.22326946258545,-1.3033535480499268,-0.23628199100494385,2.2027578353881836,-0.510673999786377,84.30000305175781,-174.90000915527344,-35.10000228881836
1064060,1.6819779872894287,7.945731163024902,-1.2596890926361084,0.3734779953956604,2.332331895828247,-0.3048799932003021,77.10000610351562,-172.5,-35.10000228881836
1064100,2.668315887451172,10.158860206604004,-2.161090612411499,0.967993974685669,2.294221878051758,0.3125019967556,77.10000610351562,-170.10000610351562,-35.70000076293945
1064120,2.6240532398223877,9.697093963623047,-2.286102533340454,0.05335399881005287,2.5533699989318848,0.10670799762010574,79.5,-172.5,-33.30000305175781
1064142,2.140753746032715,8.519948959350586,-2.2280826568603516,-0.8079319596290588,2.896359920501709,0.2743920087814331,77.10000610351562,-170.10000610351562,-33.900001525878906
1064162,1.9684885740280151,9.396825790405273,-2.950639247894287,-0.853663980960846,4.405515670776367,1.371959924697876,79.5,-172.5,-33.900001525878906
1064182,1.4570763111114502,9.980613708496094,-4.078138828277588,-1.3109840154647827,5.167716026306152,1.013725996017456,74.70000457763672,-170.10000610351562,-32.10000228881836
1064202,1.4050378799438477,10.968147277832031,-4.574597358703613,-0.9603719711303711,4.367405891418457,0.7774440050125122,81.9000015258789,-170.10000610351562,-35.70000076293945
1064226,1.7842605113983154,11.568683624267578,-5.592038631439209,-0.2134159952402115,2.5076379776000977,-1.8597679138183594,72.30000305175781,-177.3000030517578,-33.900001525878906
1064288,0.5490952730178833,8.867469787597656,-4.328760623931885,2.3094658851623535,-0.44969800114631653,-1.0747020244598389,77.10000610351562,-170.10000610351562,-32.10000228881836
1064332,0.8194558620452881,9.153980255126953,-3.836488962173462,0.739333987236023,1.5320219993591309,-1.6234859228134155,84.30000305175781,-172.5,-31.500001907348633
1064356,0.6370222568511963,7.8799357414245605,-3.466238498687744,-1.021347999572754,2.9344699382781982,-1.882633924484253,93.9000015258789,-174.90000915527344,-29.700000762939453
1064376,0.6310408115386963,7.5013108253479,-3.3914706707000732,-0.8765299916267395,3.4298999309539795,-0.9222619533538818,91.5,-177.3000030517578,-32.70000076293945
1064396,0.8272317051887512,7.675968647003174,-3.2975621223449707,-0.571649968624115,3.711913824081421,-0.015243999660015106,84.30000305175781,-177.3000030517578,-32.10000228881836
1064416,1.096994161605835,8.046218872070312,-3.449490547180176,-0.2134159952402115,3.85673189163208,0.4725639820098877,81.9000015258789,-165.3000030517578,-32.10000228881836
1064436,1.2800259590148926,8.275307655334473,-3.437527656555176,0.02286599949002266,3.803377866744995,0.800309956073761,81.9000015258789,-170.10000610351562,-31.500001907348633
1064458,1.3153164386749268,8.30880355834961,-3.5392119884490967,-0.030487999320030212,3.85673189163208,0.9527499675750732,84.30000305175781,-174.90000915527344,-31.500001907348633
1064478,1.3553919792175293,8.43262004852295,-3.8412742614746094,0.2972579896450043,3.6433160305023193,1.0289700031280518,79.5,-172.5,-30.30000114440918
1064498,1.317708969116211,8.37280559539795,-3.9955949783325195,0.5640279650688171,2.995445966720581,0.9908599853515625,79.5,-172.5,-30.30000114440918
1064521,1.3841028213500977,8.388357162475586,-3.999782085418701,0.8765299916267395,2.339953899383545,1.0823240280151367,77.10000610351562,-167.70001220703125,-30.900001525878906
1064541,1.5850788354873657,8.522340774536133,-4.0021748542785645,1.021347999572754,1.8140360116958618,1.0594580173492432,79.5,-174.90000915527344,-29.100000381469727
1064561,1.7872512340545654,8.48525619506836,-3.9333882331848145,0.9222619533538818,1.524399995803833,0.8307979702949524,77.10000610351562,-172.5,-29.100000381469727
1064581,1.84048593044281,8.286672592163086,-3.838881492614746,0.8079319596290588,1.5701320171356201,0.5182960033416748,74.70000457763672,-170.10000610351562,-29.100000381469727
1064604,1.943366527557373,8.027676582336426,-3.802993059158325,0.7774440050125122,1.8140360116958618,-0.12195199728012085,69.9000015258789,-174.90000915527344,-30.30000114440918
1064624,2.0073678493499756,8.003152847290039,-3.7778708934783936,0.7317119836807251,1.9588539600372314,-0.20579399168491364,74.70000457763672,-172.5,-27.900001525878906
1064644,2.104266881942749,7.949918270111084,-3.7072901725769043,0.510673999786377,2.240867853164673,-0.114329993724823,77.10000610351562,-170.10000610351562,-29.100000381469727
1064664,2.134772300720215,8.162259101867676,-3.8281149864196777,0.3125019967556,2.538125991821289,-0.02286599949002266,72.30000305175781,-172.5,-30.30000114440918
1064707,2.1383612155914307,8.018106460571289,-3.4566681385040283,-0.426831990480423,2.8125178813934326,-0.06859800219535828,79.5,-167.70001220703125,-27.30000114440918
1064727,2.3237855434417725,8.509779930114746,-3.523660182952881,-0.48018598556518555,2.957335948944092,-0.04573199898004532,72.30000305175781,-170.10000610351562,-28.500001907348633
1064749,2.4631526470184326,8.165249824523926,-3.329861879348755,-0.8765299916267395,2.538125991821289,-0.16768398880958557,69.9000015258789,-167.70001220703125,-27.30000114440918
1064769,2.575005531311035,7.930179595947266,-2.774785280227661,-0.9908599853515625,2.39330792427063,0.571649968624115,74.70000457763672,-170.10000610351562,-27.900001525878906
1064789,2.858525276184082,8.68144702911377,-2.905778646469116,-0.7698220014572144,2.3170878887176514,1.4481799602508545,72.30000305175781,-172.5,-27.30000114440918
1064809,2.848954916000366,8.536696434020996,-2.723942995071411,-0.8612859845161438,2.0579400062561035,1.6082419157028198,69.9000015258789,-172.5,-27.900001525878906
1064829,2.7825610637664795,8.058181762695312,-2.2753357887268066,-1.2576299905776978,1.9054999351501465,1.9054999351501465,62.70000076293945,-174.90000915527344,-27.900001525878906
1064849,2.8154590129852295,8.942835807800293,-2.506817102432251,-0.6097599864006042,2.2027578353881836,2.2561118602752686,67.5,-174.90000915527344,-27.30000114440918
1064871,2.995500087738037,10.4094820022583,-2.811271905899048,-0.3582339882850647,1.5701320171356201,2.080806016921997,57.900001525878906,-167.70001220703125,-26.700000762939453
1064892,2.671306610107422,9.536791801452637,-2.1479313373565674,-1.013725996017456,0.8384199738502502,-0.6631140112876892,60.30000305175781,-174.90000915527344,-28.500001907348633
1064912,2.5086116790771484,9.706664085388184,-2.1204168796539307,-0.25152599811553955,0.6783579587936401,-1.067080020904541,60.30000305175781,-167.70001220703125,-27.900001525878906
1064932,2.4464046955108643,10.276694297790527,-2.1688663959503174,-0.02286599949002266,0.38109999895095825,-1.5701320171356201,65.10000610351562,-172.5,-26.700000762939453
1064952,2.6419975757598877,11.420343399047852,-2.3680479526519775,0.1448179930448532,-0.015243999660015106,-1.1661659479141235,62.70000076293945,-172.5,-27.900001525878906
1065036,1.2620816230773926,8.890198707580566,-1.3081387281417847,-1.8140360116958618,0.2743920087814331,-2.6143460273742676,69.9000015258789,-170.10000610351562,-27.900001525878906
1065059,0.8607277274131775,8.1963529586792,-1.4570763111114502,-1.5167779922485352,0.10670799762010574,-1.9969639778137207,72.30000305175781,-172.5,-29.700000762939453
1065079,0.9223364591598511,8.2322416305542,-1.4451134204864502,-0.8231759667396545,-0.33536797761917114,-0.8079319596290588,77.10000610351562,-179.70001220703125,-29.100000381469727
1065122,1.7190629243850708,8.671278953552246,-1.4534873962402344,-0.853663980960846,-0.8612859845161438,0.9756159782409668,69.9000015258789,-172.5,-30.30000114440918
1065143,1.9774606227874756,8.618043899536133,-1.342831015586853,-0.9756159782409668,-0.853663980960846,1.4100699424743652,72.30000305175781,-172.5,-28.500001907348633
1065164,2.20296049118042,8.87584400177002,-1.3230922222137451,-0.853663980960846,-0.6250039935112,1.6692179441452026,74.70000457763672,-167.70001220703125,-29.700000762939453
1065184,2.43204927444458,9.066651344299316,-1.4283654689788818,-1.0442140102386475,-0.36585599184036255,1.707327961921692,67.5,-170.10000610351562,-29.100000381469727
1065247,2.831010580062866,9.313684463500977,-1.3075405359268188,-1.1737879514694214,0.4420759975910187,1.0442140102386475,60.30000305175781,-172.5,-32.10000228881836
1065271,2.6814749240875244,9.24908447265625,-1.2848111391067505,-1.1204339265823364,0.8384199738502502,0.5182960033416748,57.900001525878906,-172.5,-30.900001525878906
1065291,2.567229747772217,8.92548942565918,-1.2572965621948242,-1.2652519941329956,0.7926880121231079,0.060975998640060425,57.900001525878906,-177.3000030517578,-30.900001525878906
1065311,2.536724328994751,9.01700496673584,-1.1586029529571533,-0.6631140112876892,0.6707359552383423,-0.22103799879550934,60.30000305175781,-172.5,-30.30000114440918
1065331,2.504424571990967,8.62462329864502,-0.9994968771934509,-0.7698220014572144,0.571649968624115,-0.5564059615135193,60.30000305175781,-174.90000915527344,-30.900001525878906
1065352,2.3590757846832275,8.371010780334473,-0.8637184500694275,-0.5335400104522705,0.6554920077323914,-0.7469559907913208,55.500003814697266,-177.3000030517578,-29.700000762939453
1065372,2.4398252964019775,8.56181812286377,-0.8374001383781433,-0.28201398253440857,0.7469559907913208,-0.739333987236023,62.70000076293945,-172.5,-30.900001525878906
1065435,2.6132867336273193,8.52413558959961,-1.3063442707061768,0.05335399881005287,0.8231759667396545,-1.1585439443588257,67.5,-177.3000030517578,-29.700000762939453
1065481,2.6192681789398193,8.724513053894043,-2.048041582107544,1.6387299299240112,0.7545779943466187,0.48018598556518555,62.70000076293945,-174.90000915527344,-30.900001525878906
1065501,3.121109962463379,11.175105094909668,-3.4925568103790283,2.2180018424987793,1.9512319564819336,1.4862899780273438,65.10000610351562,-170.10000610351562,-30.30000114440918
1065543,1.7687088251113892,7.07902193069458,-2.516387462615967,-0.26677000522613525,0.5182960033416748,-1.478667974472046,67.5,-174.90000915527344,-29.100000381469727
1065565,1.7633254528045654,8.78313159942627,-4.261768817901611,1.3490939140319824,2.1189160346984863,0.5792719721794128,67.5,-172.5,-30.30000114440918
1065625,1.6921464204788208,9.2760009765625,-4.0703630447387695,1.0061039924621582,0.6097599864006042,-2.690565824508667,57.900001525878906,-174.90000915527344,-28.500001907348633
1065719,1.4941611289978027,8.839356422424316,-3.8287131786346436,0.13719600439071655,1.4100699424743652,0.015243999660015106,69.9000015258789,-165.3000030517578,-24.900001525878906
1065739,1.5773030519485474,8.656923294067383,-3.600820779800415,-0.23628199100494385,0.914639949798584,0.4192099869251251,65.10000610351562,-170.10000610351562,-26.100000381469727
1065783,1.8919261693954468,8.478676795959473,-3.46085524559021,-0.739333987236023,-0.18292799592018127,0.800309956073761,69.9000015258789,-174.90000915527344,-27.30000114440918
1065803,2.161688804626465,8.53908920288086,-3.2126259803771973,-0.510673999786377,-0.8155539631843567,0.8079319596290588,74.70000457763672,-170.10000610351562,-28.500001907348633
1065823,2.503826379776001,8.685035705566406,-3.1994667053222656,-0.6478700041770935,-1.067080020904541,0.7850660085678101,67.5,-170.10000610351562,-27.30000114440918
1065887,3.177933692932129,8.294448852539062,-2.771794557571411,-1.4024479389190674,-1.0061039924621582,1.524399995803833,65.10000610351562,-172.5,-28.500001907348633
1066019,3.589456081390381,10.539876937866211,-3.487173557281494,0.4878079891204834,-0.7545779943466187,1.1356779336929321,60.30000305175781,-172.5,-27.900001525878906
1066040,3.4183871746063232,9.309496879577637,-2.6928396224975586,-0.9908599853515625,-2.3628199100494385,-0.7240899801254272,50.70000076293945,-172.5,-29.700000762939453
1066080,2.7795703411102295,10.447165489196777,-2.865104913711548,0.28201398253440857,-0.510673999786377,-0.114329993724823,60.30000305175781,-172.5,-29.700000762939453
1066100,2.116827964782715,9.5032958984375,-2.301055908203125,-1.4862899780273438,-1.6082419157028198,-2.294221878051758,57.900001525878906,-174.90000915527344,-28.500001907348633
1066120,1.8823559284210205,8.908143043518066,-1.7573440074920654,-0.9527499675750732,-1.7606819868087769,-2.1646480560302734,65.10000610351562,-174.90000915527344,-29.700000762939453
1066141,1.7968214750289917,9.284375190734863,-1.5976399183273315,-0.6097599864006042,-1.4329359531402588,-2.042695999145508,65.10000610351562,-177.3000030517578,-29.100000381469727
1066161,1.7932326793670654,9.73537540435791,-1.524666428565979,-0.8384199738502502,-1.3948259353637695,-2.0198299884796143,62.70000076293945,-170.10000610351562,-29.100000381469727
1066201,1.449898600578308,9.281982421875,-1.4534873962402344,-0.7545779943466187,-0.6326259970664978,-1.600619912147522,72.30000305175781,-167.70001220703125,-30.900001525878906
1066221,1.1879119873046875,8.362038612365723,-1.4008508920669556,-1.189031958580017,-0.8689079880714417,-1.8673899173736572,72.30000305175781,-172.5,-30.30000114440918
1066244,1.1580047607421875,8.2202787399292,-1.3595789670944214,-0.36585599184036255,-0.7164679765701294,-1.0594580173492432,72.30000305175781,-170.10000610351562,-29.700000762939453
1066264,1.4839926958084106,9.030762672424316,-1.6472856998443604,0.17530599236488342,-0.6478700041770935,-0.5564059615135193,72.30000305175781,-170.10000610351562,-32.10000228881836
1066284,1.8620190620422363,9.31906795501709,-1.6706132888793945,-0.02286599949002266,-0.6936019659042358,-0.4420759975910187,72.30000305175781,-170.10000610351562,-27.900001525878906
1066306,2.510406017303467,10.17441177368164,-2.0576117038726807,-0.05335399881005287,0.26677000522613525,-0.19817200303077698,69.9000015258789,-172.5,-30.30000114440918
1066326,2.3351502418518066,9.096558570861816,-1.8357007503509521,-1.1204339265823364,0.44969800114631653,-0.9298839569091797,72.30000305175781,-172.5,-29.700000762939453
1066346,2.340533494949341,8.526528358459473,-1.8697949647903442,-0.967993974685669,1.3567159175872803,-0.2591480016708374,79.5,-170.10000610351562,-32.10000228881836
1066366,2.2544009685516357,8.76997184753418,-2.2878968715667725,-0.6707359552383423,1.829279899597168,0.2743920087814331,72.30000305175781,-165.3000030517578,-30.30000114440918
1066388,2.116229772567749,8.84593677520752,-2.495452404022217,-0.5945159792900085,1.7911700010299683,0.5259180068969727,77.10000610351562,-172.5,-29.700000762939453
1066409,2.018134355545044,8.951210021972656,-2.6419975757598877,-0.22103799879550934,1.3490939140319824,0.4420759975910187,72.30000305175781,-172.5,-32.10000228881836
1066429,2.057013750076294,8.93745231628418,-2.608501434326172,-0.09146399796009064,0.9070180058479309,0.17530599236488342,72.30000305175781,-170.10000610351562,-29.700000762939453
1066449,2.0516304969787598,9.128259658813477,-2.7161672115325928,0.038109999150037766,0.7621999979019165,0.02286599949002266,74.70000457763672,-172.5,-30.900001525878906
1066469,1.9870309829711914,9.125268936157227,-2.750859498977661,-0.07621999830007553,0.3277460038661957,-0.228659987449646,69.9000015258789,-174.90000915527344,-30.900001525878906
1066489,1.9804513454437256,9.061267852783203,-2.727531909942627,-0.09146399796009064,0.07621999830007553,-0.49542999267578125,62.70000076293945,-174.90000915527344,-30.30000114440918
1066509,1.8949168920516968,9.069642066955566,-2.844169855117798,-0.06859800219535828,-0.09908600151538849,-0.7317119836807251,69.9000015258789,-167.70001220703125,-29.100000381469727
1066533,1.8967113494873047,9.059473037719727,-2.816655158996582,-0.07621999830007553,-0.2134159952402115,-0.800309956073761,69.9000015258789,-165.3000030517578,-30.30000114440918
1066553,1.84347665309906,8.908740997314453,-2.766411304473877,-0.16768398880958557,-0.19817200303077698,-0.7621999979019165,69.9000015258789,-170.10000610351562,-29.100000381469727
1066574,1.739399790763855,8.852516174316406,-2.7975146770477295,0.08384199440479279,-0.038109999150037766,-0.5030519962310791,69.9000015258789,-170.10000610351562,-29.700000762939453
1066594,1.6957353353500366,8.808253288269043,-2.7442798614501953,0.10670799762010574,-0.02286599949002266,-0.4039659798145294,69.9000015258789,-172.5,-29.700000762939453
1066614,1.7645217180252075,8.975733757019043,-2.6599419116973877,0.2972579896450043,0.05335399881005287,-0.2591480016708374,69.9000015258789,-165.3000030517578,-29.100000381469727
1066634,1.7579421997070312,9.048707008361816,-2.5708184242248535,0.2134159952402115,0.12195199728012085,-0.3048799932003021,72.30000305175781,-167.70001220703125,-29.700000762939453
1066654,1.8081861734390259,8.96137809753418,-2.521770715713501,0.06859800219535828,0.28201398253440857,-0.38109999895095825,67.5,-172.5,-29.100000381469727
1066674,1.7340164184570312,9.120484352111816,-2.6210625171661377,0.16768398880958557,0.38109999895095825,-0.39634400606155396,74.70000457763672,-172.5,-30.30000114440918
1066694,1.6987260580062866,9.131250381469727,-2.522368907928467,0.038109999150037766,0.342989981174469,-0.6783579587936401,72.30000305175781,-170.10000610351562,-30.30000114440918
1066714,1.7041093111038208,9.273608207702637,-2.5229671001434326,0.02286599949002266,0.36585599184036255,-0.9603719711303711,72.30000305175781,-177.3000030517578,-29.100000381469727
1066734,1.722651720046997,9.296338081359863,-2.625847578048706,-0.18292799592018127,0.28201398253440857,-1.3033620119094849,77.10000610351562,-174.90000915527344,-29.700000762939453
1066758,1.712483286857605,8.88062858581543,-2.4458065032958984,-0.4420759975910187,0.20579399168491364,-1.4100699424743652,69.9000015258789,-172.5,-27.900001525878906
1066779,1.7071000337600708,9.063660621643066,-2.5803887844085693,0.038109999150037766,0.38109999895095825,-1.3262280225753784,81.9000015258789,-167.70001220703125,-29.700000762939453
1066800,1.7447830438613892,8.91651725769043,-2.4822933673858643,-0.015243999660015106,0.39634400606155396,-1.2500079870224,79.5,-167.70001220703125,-29.700000762939453
1066820,1.84048593044281,8.979920387268066,-2.3979551792144775,0.16768398880958557,0.6097599864006042,-1.1814099550247192,79.5,-167.70001220703125,-27.900001525878906
1066840,2.0402655601501465,8.891395568847656,-2.2783265113830566,0.16768398880958557,0.9070180058479309,-1.0823240280151367,72.30000305175781,-174.90000915527344,-29.100000381469727
1066862,2.121613025665283,8.71135425567627,-2.438628911972046,0.33536797761917114,1.8369019031524658,-0.7012239694595337,81.9000015258789,-172.5,-29.100000381469727
1066883,2.172455310821533,8.941638946533203,-2.426666021347046,0.6631140112876892,2.3704419136047363,-0.5487840175628662,81.9000015258789,-172.5,-29.700000762939453
1066903,2.017536163330078,9.06485652923584,-2.5708184242248535,0.6631140112876892,3.0106899738311768,-0.9222619533538818,79.5,-172.5,-26.700000762939453
1066923,1.85843026638031,9.110913276672363,-2.7550466060638428,0.8155539631843567,3.3765459060668945,-1.6844619512557983,84.30000305175781,-170.10000610351562,-29.100000381469727
1066943,1.8105788230895996,9.109119415283203,-2.807682991027832,1.013725996017456,3.5289859771728516,-2.652456045150757,84.30000305175781,-167.70001220703125,-28.500001907348633
1066983,1.733418345451355,9.179101943969727,-2.854936361312866,0.8460419774055481,3.7805118560791016,-4.580821990966797,86.70000457763672,-165.3000030517578,-27.30000114440918
1067023,1.5934529304504395,8.93446159362793,-2.9673871994018555,0.342989981174469,4.253076076507568,-6.128087997436523,91.5,-165.3000030517578,-24.900001525878906
1067043,1.415804386138916,8.790308952331543,-3.001481533050537,0.38109999895095825,4.451247692108154,-6.5244317054748535,96.30000305175781,-162.90000915527344,-24.900001525878906
1067063,1.1675751209259033,8.69640064239502,-3.1635782718658447,0.3125019967556,4.46649169921875,-6.768335819244385,103.50000762939453,-160.5,-24.30000114440918
1067103,0.921140193939209,9.091175079345703,-3.127091407775879,0.20579399168491364,3.6356940269470215,-6.981751918792725,110.70000457763672,-158.10000610351562,-24.30000114440918
1067124,0.5353379845619202,9.034351348876953,-2.9996869564056396,-0.19054999947547913,3.49849796295166,-7.385717868804932,127.50000762939453,-155.70001220703125,-22.5
1067144,0.19080761075019836,9.1922607421875,-3.0630900859832764,-0.23628199100494385,3.2241058349609375,-7.484803676605225,129.90000915527344,-153.3000030517578,-24.30000114440918
1067164,0.034094151109457016,8.927284240722656,-2.9141526222229004,-0.5335400104522705,2.8048958778381348,-7.46193790435791,132.3000030517578,-158.10000610351562,-23.100000381469727
1067184,-0.31881019473075867,8.564210891723633,-2.775383472442627,-0.6631140112876892,2.797273874282837,-6.852177619934082,139.5,-146.10000610351562,-23.100000381469727
1067206,-0.45279422402381897,8.938648223876953,-2.816655158996582,-0.2896359860897064,2.6600780487060547,-5.533571720123291,144.3000030517578,-153.3000030517578,-24.30000114440918
1067226,-0.6430037021636963,8.771766662597656,-2.6665213108062744,-0.7850660085678101,2.240867853164673,-4.687530040740967,151.5,-148.5,-24.30000114440918
1067246,-0.9133642911911011,8.733485221862793,-2.688652753829956,-0.25152599811553955,2.3094658851623535,-3.666181802749634,153.90000915527344,-146.10000610351562,-24.900001525878906
1067269,-0.8888404369354248,9.108521461486816,-2.786748170852661,-0.07621999830007553,1.9207439422607422,-2.8734939098358154,156.3000030517578,-150.90000915527344,-23.100000381469727
1067289,-0.9348974823951721,9.035547256469727,-2.6605398654937744,-0.1295740008354187,1.7301939725875854,-2.6219680309295654,156.3000030517578,-153.3000030517578,-23.100000381469727
1067313,-0.9600194692611694,9.197046279907227,-2.875871419906616,0.04573199898004532,1.4481799602508545,-2.6753220558166504,168.3000030517578,-143.70001220703125,-23.100000381469727
1067333,-0.8403908610343933,9.132447242736816,-2.7735888957977295,0.007621999830007553,1.2347639799118042,-2.5000159740448,163.5,-143.70001220703125,-23.100000381469727
1067353,-0.8822608590126038,9.07801628112793,-2.835197687149048,-0.2134159952402115,1.4329359531402588,-2.2180018424987793,161.10000610351562,-143.70001220703125,-23.100000381469727
1067395,-0.9546361565589905,9.197644233703613,-2.9793500900268555,-0.16768398880958557,1.3186060190200806,-1.9054999351501465,165.90000915527344,-138.90000915527344,-23.700000762939453
1067415,-1.0198338031768799,9.220972061157227,-2.999088764190674,-0.17530599236488342,0.9375059604644775,-1.8673899173736572,165.90000915527344,-141.3000030517578,-23.700000762939453
1067435,-1.1137422323226929,9.192859649658203,-2.9943037033081055,-0.3277460038661957,0.5182960033416748,-1.6768399477005005,168.3000030517578,-136.5,-21.900001525878906
1067458,-1.111947774887085,9.161755561828613,-2.9285080432891846,-0.4420759975910187,-0.23628199100494385,-1.189031958580017,168.3000030517578,-141.3000030517578,-22.5
1067478,-1.0928071737289429,9.161157608032227,-2.980546474456787,-0.5182960033416748,-0.4420759975910187,-1.0289700031280518,168.3000030517578,-136.5,-22.5
1067498,-0.91874760389328,9.08280086517334,-2.859123468399048,-0.5487840175628662,-1.196653962135315,-0.7240899801254272,168.3000030517578,-138.90000915527344,-23.700000762939453
1067518,-0.803305983543396,9.19943904876709,-2.7801685333251953,-0.5030519962310791,-1.2271419763565063,-0.5335400104522705,168.3000030517578,-136.5,-21.900001525878906
1067539,-0.7333232760429382,9.179101943969727,-2.7771778106689453,-0.6631140112876892,-1.0061039924621582,-0.510673999786377,168.3000030517578,-138.90000915527344,-23.700000762939453
1067559,-0.6621442437171936,9.165345191955566,-2.6551566123962402,-0.6097599864006042,-0.6707359552383423,-0.48018598556518555,175.5,-136.5,-23.100000381469727
1067579,-0.8726906180381775,9.11868953704834,-2.674297332763672,-0.6631140112876892,-0.08384199440479279,-0.6402480006217957,170.70001220703125,-136.5,-24.30000114440918
1067599,-1.1167329549789429,9.066651344299316,-2.7861499786376953,-0.5868939757347107,0.1295740008354187,-0.6173819899559021,170.70001220703125,-136.5,-22.5
1067620,-1.2830166816711426,8.99606990814209,-2.7676074504852295,-0.5487840175628662,-0.09146399796009064,-0.38109999895095825,170.70001220703125,-136.5,-23.700000762939453
1067640,-1.3745325803756714,9.119287490844727,-2.8184497356414795,-0.4039659798145294,-0.33536797761917114,-0.05335399881005287,173.10000610351562,-138.90000915527344,-21.30000114440918
1067703,-1.094003438949585,9.16654109954834,-2.6731009483337402,-0.6173819899559021,-1.0061039924621582,0.7317119836807251,170.70001220703125,-141.3000030517578,-24.900001525878906
1067760,-0.8493630290031433,8.942835807800293,-2.6479790210723877,0.13719600439071655,-0.5335400104522705,1.1509219408035278,163.5,-136.5,-24.30000114440918
1067780,-0.924130916595459,9.14859676361084,-2.7885425090789795,0.19054999947547913,-0.4878079891204834,1.196653962135315,165.90000915527344,-138.90000915527344,-23.700000762939453
1067821,-0.8308205604553223,9.10672664642334,-2.774785280227661,0.39634400606155396,-1.0365920066833496,1.0823240280151367,165.90000915527344,-143.70001220703125,-24.30000114440918
1067841,-0.6830793023109436,9.11868953704834,-2.7167654037475586,0.3048799932003021,-0.9908599853515625,1.0747020244598389,165.90000915527344,-138.90000915527344,-23.700000762939453
1067861,-0.6280501484870911,9.096558570861816,-2.750859498977661,0.3048799932003021,-0.9070180058479309,1.1128119230270386,170.70001220703125,-141.3000030517578,-24.30000114440918
1067881,-0.7040143013000488,9.1922607421875,-2.790336847305298,0.2591480016708374,-0.8841519951820374,1.1280559301376343,163.5,-143.70001220703125,-23.100000381469727
1067902,-0.7225567102432251,9.051697731018066,-2.8190479278564453,0.060975998640060425,-0.9832379817962646,1.0899460315704346,161.10000610351562,-143.70001220703125,-24.900001525878906
1067922,-0.6770978569984436,9.046314239501953,-2.790336847305298,0.07621999830007553,-1.1204339265823364,1.2271419763565063,158.70001220703125,-153.3000030517578,-23.700000762939453
1067942,-0.6782941222190857,9.062463760375977,-2.8118700981140137,0.060975998640060425,-1.196653962135315,1.2652519941329956,168.3000030517578,-143.70001220703125,-23.100000381469727
1068028,-0.4617663621902466,9.085193634033203,-2.6216607093811035,0.2743920087814331,-2.637212038040161,1.7759259939193726,158.70001220703125,-148.5,-26.100000381469727
1068064,-0.4797106683254242,9.05289363861084,-2.9380781650543213,-0.19817200303077698,-2.3628199100494385,1.5853760242462158,156.3000030517578,-148.5,-24.30000114440918
1068085,-0.4282703697681427,9.00922966003418,-2.9518356323242188,0.060975998640060425,-2.1722700595855713,1.4024479389190674,153.90000915527344,-143.70001220703125,-25.500001907348633
1068125,-0.32479164004325867,9.168933868408203,-2.8782639503479004,0.2134159952402115,-1.6844619512557983,1.3643379211425781,151.5,-153.3000030517578,-26.100000381469727
1068145,-0.35110992193222046,9.158764839172363,-2.828618049621582,-0.19817200303077698,-1.242385983467102,1.4100699424743652,153.90000915527344,-146.10000610351562,-26.100000381469727
1068165,-0.26976248621940613,9.27420711517334,-2.8208422660827637,-0.3734779953956604,-0.8917739987373352,1.4939119815826416,146.70001220703125,-150.90000915527344,-27.30000114440918
1068185,-0.2577996253967285,9.12467098236084,-2.854936361312866,-0.914639949798584,-0.7240899801254272,1.4100699424743652,149.10000610351562,-150.90000915527344,-26.700000762939453
1068207,-0.29787519574165344,8.945826530456543,-2.8537402153015137,-0.6936019659042358,-0.5487840175628662,1.5167779922485352,149.10000610351562,-153.3000030517578,-24.900001525878906
1068227,-0.24523861706256866,8.98410701751709,-2.7855517864227295,-0.4192099869251251,-0.5411620140075684,1.6158639192581177,146.70001220703125,-153.3000030517578,-26.700000762939453
1068249,-0.1914057433605194,8.951210021972656,-2.814262628555298,-0.3582339882850647,-0.426831990480423,1.6387299299240112,141.90000915527344,-153.3000030517578,-26.100000381469727
1068270,-0.11005830764770508,9.050500869750977,-2.822636604309082,-0.10670799762010574,-0.3887220025062561,1.524399995803833,139.5,-153.3000030517578,-25.500001907348633
1068290,-0.09630101919174194,9.092370986938477,-2.871086359024048,-0.20579399168491364,-0.35061198472976685,1.371959924697876,137.10000610351562,-160.5,-25.500001907348633
1068313,-0.11125459522008896,9.089380264282227,-2.9075729846954346,-0.19054999947547913,-0.3125019967556,1.2500079870224,141.90000915527344,-148.5,-25.500001907348633
1068333,0.01914057508111,9.133045196533203,-2.8991990089416504,-0.10670799762010574,-0.4725639820098877,1.1585439443588257,137.10000610351562,-158.10000610351562,-26.700000762939453
1068353,0.12740445137023926,9.107324600219727,-2.8842453956604004,-0.1600620001554489,-0.426831990480423,1.1509219408035278,127.50000762939453,-153.3000030517578,-24.30000114440918
1068374,0.2673698961734772,9.101343154907227,-2.9141526222229004,-0.2591480016708374,-0.36585599184036255,1.1661659479141235,129.90000915527344,-153.3000030517578,-25.500001907348633
1068395,0.3941762149333954,9.140222549438477,-2.923722743988037,-0.342989981174469,-0.35061198472976685,1.2500079870224,129.90000915527344,-155.70001220703125,-26.700000762939453
1068415,0.4234852194786072,9.113903999328613,-2.857927083969116,-0.5030519962310791,-0.2896359860897064,1.295740008354187,132.3000030517578,-155.70001220703125,-25.500001907348633
1068435,0.37742820382118225,9.06306266784668,-2.935685634613037,-0.5411620140075684,-0.20579399168491364,1.2881180047988892,132.3000030517578,-158.10000610351562,-25.500001907348633
1068455,0.3002677857875824,9.031360626220703,-2.9464523792266846,-0.5182960033416748,-0.23628199100494385,1.1585439443588257,129.90000915527344,-153.3000030517578,-26.100000381469727
1068475,0.3606802225112915,9.100147247314453,-2.921330213546753,-0.4725639820098877,-0.28201398253440857,1.1280559301376343,129.90000915527344,-158.10000610351562,-26.700000762939453
1068495,0.30983805656433105,9.04511833190918,-2.877067804336548,-0.457319974899292,-0.25152599811553955,0.9832379817962646,122.70000457763672,-160.5,-26.100000381469727
1068518,0.24523861706256866,9.173120498657227,-2.9231247901916504,-0.28201398253440857,-0.2591480016708374,0.7850660085678101,127.50000762939453,-158.10000610351562,-26.100000381469727
1068538,0.2799309194087982,8.953601837158203,-2.8178515434265137,-0.33536797761917114,-0.35061198472976685,0.6783579587936401,125.10000610351562,-153.3000030517578,-26.100000381469727
1068559,0.3355582058429718,9.126465797424316,-2.8752732276916504,-0.2972579896450043,-0.228659987449646,0.9984819889068604,125.10000610351562,-160.5,-27.900001525878906
1068579,0.2601921856403351,8.917713165283203,-2.760429859161377,-0.5487840175628662,-0.228659987449646,1.2118979692459106,122.70000457763672,-162.90000915527344,-26.700000762939453
1068599,0.25241634249687195,9.050500869750977,-2.742485523223877,-0.4420759975910187,-0.17530599236488342,1.3567159175872803,122.70000457763672,-162.90000915527344,-28.500001907348633
1068620,0.3212027847766876,9.171326637268066,-2.7071950435638428,-0.6707359552383423,-0.04573199898004532,1.4939119815826416,120.30000305175781,-160.5,-26.100000381469727
1068640,0.5724228024482727,9.047510147094727,-2.4930598735809326,-1.0747020244598389,0.1448179930448532,1.6387299299240112,122.70000457763672,-165.3000030517578,-29.100000381469727
1068660,0.22430361807346344,8.974536895751953,-2.6013238430023193,-1.3033620119094849,1.0747020244598389,1.5091559886932373,122.70000457763672,-165.3000030517578,-26.100000381469727
1068682,0.1561153084039688,8.79987907409668,-3.2538976669311523,-0.9756159782409668,-0.02286599949002266,-0.007621999830007553,120.30000305175781,-162.90000915527344,-26.700000762939453
1068702,0.45817750692367554,8.644362449645996,-2.9291062355041504,0.6097599864006042,-0.8841519951820374,0.18292799592018127,117.9000015258789,-160.5,-27.30000114440918
1068722,0.4533923864364624,9.204822540283203,-2.9859297275543213,0.6707359552383423,-0.7164679765701294,0.5411620140075684,120.30000305175781,-158.10000610351562,-27.30000114440918
1068742,0.5514878034591675,9.348376274108887,-3.049931049346924,0.13719600439071655,-0.8993960022926331,0.6326259970664978,110.70000457763672,-160.5,-27.900001525878906
1068786,0.6902570128440857,9.159363746643066,-2.871086359024048,-0.7012239694595337,-0.5411620140075684,0.8765299916267395,115.50000762939453,-162.90000915527344,-27.900001525878906
1068806,0.7010235786437988,9.20841121673584,-2.8393847942352295,-0.8689079880714417,-0.3125019967556,1.1737879514694214,110.70000457763672,-158.10000610351562,-27.30000114440918
1068826,0.6842755675315857,9.31607723236084,-2.772392749786377,-1.067080020904541,-0.05335399881005287,1.14329993724823,108.30000305175781,-162.90000915527344,-26.700000762939453
1068847,0.6459944248199463,9.268823623657227,-2.839982748031616,-1.2728739976882935,0.1448179930448532,0.8612859845161438,110.70000457763672,-165.3000030517578,-26.700000762939453
1068867,0.5640488266944885,9.147998809814453,-2.7502613067626953,-1.4024479389190674,0.05335399881005287,0.426831990480423,108.30000305175781,-158.10000610351562,-29.700000762939453
1068889,0.5670395493507385,9.079212188720703,-2.709587574005127,-1.371959924697876,0.02286599949002266,0.12195199728012085,105.9000015258789,-162.90000915527344,-28.500001907348633
1068909,0.605918824672699,9.153980255126953,-2.6731009483337402,-1.2042759656906128,0.015243999660015106,-0.02286599949002266,110.70000457763672,-162.90000915527344,-27.30000114440918
1068929,0.596946656703949,9.10373592376709,-2.5708184242248535,-1.1737879514694214,0.05335399881005287,-0.19054999947547913,105.9000015258789,-165.3000030517578,-29.100000381469727
1068949,0.5784042477607727,9.00922966003418,-2.5319392681121826,-1.0365920066833496,0.17530599236488342,-0.23628199100494385,113.10000610351562,-167.70001220703125,-27.900001525878906
1068969,0.6130965352058411,8.958985328674316,-2.527752161026001,-0.7545779943466187,0.3277460038661957,-0.2134159952402115,108.30000305175781,-165.3000030517578,-30.30000114440918
1068993,0.6166853904724121,8.84593677520752,-2.5325372219085693,-0.2972579896450043,0.5411620140075684,-0.114329993724823,108.30000305175781,-167.70001220703125,-30.30000114440918
1069013,0.5736191272735596,8.920703887939453,-2.602519989013672,0.04573199898004532,0.7240899801254272,0.030487999320030212,105.9000015258789,-162.90000915527344,-28.500001907348633
1069033,0.5921615362167358,8.953003883361816,-2.7018117904663086,0.2896359860897064,0.7698220014572144,0.09146399796009064,113.10000610351562,-167.70001220703125,-28.500001907348633
1069053,0.5598618388175964,8.983509063720703,-2.7071950435638428,0.4878079891204834,0.685979962348938,0.08384199440479279,105.9000015258789,-165.3000030517578,-28.500001907348633
1069073,0.6753033995628357,9.17551326751709,-2.736504077911377,0.5792719721794128,0.6631140112876892,0.13719600439071655,108.30000305175781,-167.70001220703125,-29.100000381469727
1069093,0.7357158660888672,9.20123291015625,-2.7203543186187744,0.2972579896450043,0.6936019659042358,0.04573199898004532,110.70000457763672,-165.3000030517578,-29.100000381469727
1069113,0.7225567102432251,9.231739044189453,-2.7855517864227295,0.12195199728012085,0.7469559907913208,0.06859800219535828,108.30000305175781,-160.5,-27.900001525878906
1069133,0.7333232760429382,9.351964950561523,-2.730522632598877,-0.060975998640060425,0.7088459730148315,0.015243999660015106,105.9000015258789,-158.10000610351562,-27.900001525878906
1069154,0.6274519562721252,9.27420711517334,-2.8058886528015137,-0.6097599864006042,0.5868939757347107,-0.04573199898004532,108.30000305175781,-162.90000915527344,-27.30000114440918
1069216,0.61847984790802,9.113903999328613,-2.739494800567627,-0.5945159792900085,0.07621999830007553,0.2134159952402115,108.30000305175781,-162.90000915527344,-29.700000762939453
1069321,1.0479464530944824,9.119287490844727,-2.534331798553467,-0.33536797761917114,0.05335399881005287,0.7240899801254272,96.30000305175781,-165.3000030517578,-27.900001525878906
1069341,1.1185274124145508,9.06007194519043,-2.5773980617523193,-0.3125019967556,0.07621999830007553,0.5564059615135193,96.30000305175781,-170.10000610351562,-27.900001525878906
1069383,1.1783416271209717,9.017603874206543,-2.590557098388672,-0.18292799592018127,0.04573199898004532,0.3582339882850647,105.9000015258789,-158.10000610351562,-28.500001907348633
1069403,1.1645843982696533,9.149792671203613,-2.6551566123962402,-0.08384199440479279,0.20579399168491364,0.2134159952402115,96.30000305175781,-167.70001220703125,-27.30000114440918
1069423,1.0808444023132324,9.116894721984863,-2.7191579341888428,-0.15243999660015106,0.2896359860897064,0.08384199440479279,96.30000305175781,-167.70001220703125,-27.900001525878906
1069443,1.0700777769088745,9.08280086517334,-2.7406911849975586,-0.1448179930448532,0.3048799932003021,0,98.70000457763672,-160.5,-28.500001907348633
1069463,1.0778536796569824,9.085193634033203,-2.760429859161377,-0.16768398880958557,0.33536797761917114,0.038109999150037766,98.70000457763672,-170.10000610351562,-27.900001525878906
1069483,1.1095552444458008,9.091175079345703,-2.7592334747314453,-0.22103799879550934,0.3887220025062561,0.09146399796009064,96.30000305175781,-165.3000030517578,-29.100000381469727
1069503,1.0634982585906982,9.12168025970459,-2.7442798614501953,-0.2896359860897064,0.44969800114631653,0.13719600439071655,103.50000762939453,-162.90000915527344,-29.100000381469727
1069525,1.094003438949585,9.025379180908203,-2.736504077911377,-0.41158798336982727,0.4344539940357208,0.1448179930448532,91.5,-170.10000610351562,-27.30000114440918
1069545,1.0862276554107666,9.04990291595459,-2.7071950435638428,-0.33536797761917114,0.457319974899292,0.1600620001554489,103.50000762939453,-165.3000030517578,-27.30000114440918
1069565,1.102975606918335,9.068445205688477,-2.750859498977661,-0.3048799932003021,0.426831990480423,0.08384199440479279,101.10000610351562,-170.10000610351562,-29.700000762939453
1069585,1.0922091007232666,9.03315544128418,-2.7646167278289795,-0.26677000522613525,0.3582339882850647,0.08384199440479279,93.9000015258789,-162.90000915527344,-27.900001525878906
1069608,1.2226042747497559,9.13663387298584,-2.7586352825164795,-0.22103799879550934,0.2743920087814331,0.1448179930448532,101.10000610351562,-167.70001220703125,-27.900001525878906
1069628,1.117929220199585,8.97812557220459,-2.7999072074890137,-0.5792719721794128,0.09908600151538849,0.06859800219535828,93.9000015258789,-162.90000915527344,-27.30000114440918
1069648,1.0856294631958008,9.044519424438477,-2.7855517864227295,-0.25152599811553955,0.030487999320030212,0.12195199728012085,98.70000457763672,-162.90000915527344,-27.900001525878906
1069668,1.1113495826721191,9.13065242767334,-2.8238329887390137,-0.3125019967556,0.015243999660015106,0,96.30000305175781,-170.10000610351562,-29.700000762939453
1069688,1.0742647647857666,9.114502906799316,-2.7502613067626953,-0.3887220025062561,0.06859800219535828,-0.12195199728012085,93.9000015258789,-165.3000030517578,-28.500001907348633
1069708,1.0730684995651245,9.06186580657959,-2.7699999809265137,-0.4420759975910187,0.1600620001554489,-0.228659987449646,93.9000015258789,-170.10000610351562,-27.900001525878906
1069728,1.0670870542526245,9.023585319519043,-2.7616260051727295,-0.44969800114631653,0.228659987449646,-0.26677000522613525,93.9000015258789,-172.5,-28.500001907348633
1069748,1.0670870542526245,9.001453399658203,-2.7323172092437744,-0.4192099869251251,0.2896359860897064,-0.228659987449646,96.30000305175781,-170.10000610351562,-27.30000114440918
1069768,1.1227144002914429,9.07203483581543,-2.7251393795013428,-0.3887220025062561,0.4192099869251251,-0.15243999660015106,93.9000015258789,-170.10000610351562,-28.500001907348633
1069790,1.0682833194732666,9.043323516845703,-2.7143728733062744,-0.41158798336982727,0.5487840175628662,-0.1448179930448532,96.30000305175781,-165.3000030517578,-29.100000381469727
1069810,1.0790499448776245,9.023585319519043,-2.6988210678100586,-0.3887220025062561,0.6021379828453064,-0.10670799762010574,96.30000305175781,-167.70001220703125,-30.30000114440918
1069832,1.0353854894638062,9.03315544128418,-2.7371022701263428,-0.3277460038661957,0.5945159792900085,-0.09146399796009064,96.30000305175781,-165.3000030517578,-28.500001907348633
1069852,1.0497409105300903,9.075623512268066,-2.7203543186187744,-0.2743920087814331,0.5259180068969727,-0.09146399796009064,91.5,-165.3000030517578,-27.30000114440918
1069872,1.0652925968170166,9.07981014251709,-2.6898488998413086,-0.2896359860897064,0.48018598556518555,-0.12195199728012085,91.5,-162.90000915527344,-27.900001525878906
1069894,1.0413669347763062,9.08579158782959,-2.7197561264038086,-0.3201240003108978,0.46494197845458984,-0.1448179930448532,91.5,-162.90000915527344,-27.30000114440918
1069914,1.0419650077819824,9.059473037719727,-2.751457691192627,-0.3201240003108978,0.39634400606155396,-0.1448179930448532,91.5,-162.90000915527344,-29.700000762939453
1069934,1.0880221128463745,9.03016471862793,-2.733513355255127,-0.2896359860897064,0.3048799932003021,-0.10670799762010574,96.30000305175781,-170.10000610351562,-28.500001907348633
1069956,1.1316864490509033,9.067249298095703,-2.6994192600250244,-0.3048799932003021,0.2591480016708374,-0.060975998640060425,91.5,-165.3000030517578,-27.900001525878906
1069976,1.1681731939315796,9.126465797424316,-2.6754934787750244,-0.35061198472976685,0.28201398253440857,-0.038109999150037766,96.30000305175781,-172.5,-27.900001525878906
1069997,1.2064543962478638,9.03494930267334,-2.6455862522125244,-0.41158798336982727,0.3201240003108978,-0.06859800219535828,91.5,-162.90000915527344,-28.500001907348633
1070017,1.2572965621948242,9.12766170501709,-2.623455047607422,-0.3277460038661957,0.426831990480423,-0.02286599949002266,93.9000015258789,-165.3000030517578,-27.900001525878906
1070039,1.1795378923416138,8.97932243347168,-2.6342215538024902,-0.41158798336982727,0.5030519962310791,-0.18292799592018127,91.5,-172.5,-27.900001525878906
1070059,1.2076506614685059,9.110913276672363,-2.6246514320373535,-0.18292799592018127,0.5411620140075684,-0.17530599236488342,91.5,-172.5,-27.30000114440918
1070081,1.2010711431503296,9.153980255126953,-2.605510711669922,-0.2439039945602417,0.5868939757347107,-0.2743920087814331,91.5,-167.70001220703125,-26.100000381469727
1070102,1.1274994611740112,8.950611114501953,-2.6952321529388428,-0.5792719721794128,0.5030519962310791,-0.3201240003108978,98.70000457763672,-167.70001220703125,-30.30000114440918
1070122,1.0886201858520508,9.05588436126709,-2.641399383544922,-0.07621999830007553,0.46494197845458984,-0.1295740008354187,93.9000015258789,-167.70001220703125,-30.900001525878906
1070142,1.1155366897583008,9.07801628112793,-2.6802785396575928,-0.26677000522613525,0.4344539940357208,-0.228659987449646,93.9000015258789,-170.10000610351562,-26.700000762939453
1070163,1.0742647647857666,9.05588436126709,-2.6725027561187744,-0.23628199100494385,0.46494197845458984,-0.228659987449646,91.5,-167.70001220703125,-27.30000114440918
1070183,1.0383762121200562,9.06485652923584,-2.7382984161376953,-0.17530599236488342,0.4192099869251251,-0.3125019967556,91.5,-162.90000915527344,-28.500001907348633
1070203,1.0892183780670166,9.065454483032227,-2.7030081748962402,-0.23628199100494385,0.3277460038661957,-0.26677000522613525,96.30000305175781,-167.70001220703125,-27.900001525878906
1070223,1.1304901838302612,9.03494930267334,-2.7101857662200928,-0.25152599811553955,0.3125019967556,-0.1600620001554489,91.5,-162.90000915527344,-27.900001525878906
1070243,1.1909027099609375,9.08579158782959,-2.640801191329956,-0.18292799592018127,0.2972579896450043,-0.07621999830007553,96.30000305175781,-170.10000610351562,-27.900001525878906
1070263,1.2010711431503296,9.119885444641113,-2.6814749240875244,-0.19817200303077698,0.35061198472976685,-0.06859800219535828,89.10000610351562,-170.10000610351562,-27.900001525878906
1070286,1.2226042747497559,8.993678092956543,-2.6491751670837402,-0.2591480016708374,0.3887220025062561,-0.05335399881005287,89.10000610351562,-170.10000610351562,-29.700000762939453
1070306,1.1789398193359375,9.053491592407227,-2.7233450412750244,-0.17530599236488342,0.38109999895095825,-0.060975998640060425,93.9000015258789,-160.5,-27.30000114440918
1070326,1.1693694591522217,9.110315322875977,-2.7059988975524902,-0.19054999947547913,0.3201240003108978,-0.10670799762010574,96.30000305175781,-165.3000030517578,-28.500001907348633
1070348,1.1807342767715454,9.08698844909668,-2.679680585861206,-0.3277460038661957,0.2896359860897064,-0.16768398880958557,98.70000457763672,-170.10000610351562,-28.500001907348633
1070369,1.1867156028747559,8.995471954345703,-2.6904470920562744,-0.38109999895095825,0.25152599811553955,-0.15243999660015106,89.10000610351562,-160.5,-29.700000762939453
1070389,1.1932952404022217,9.034351348876953,-2.6665213108062744,-0.28201398253440857,0.23628199100494385,-0.08384199440479279,89.10000610351562,-170.10000610351562,-28.500001907348633
1070409,1.1891082525253296,9.06784725189209,-2.7119803428649902,-0.26677000522613525,0.228659987449646,-0.09146399796009064,91.5,-165.3000030517578,-27.900001525878906
1070429,1.1992766857147217,9.081604957580566,-2.6719045639038086,-0.2591480016708374,0.2134159952402115,-0.09146399796009064,93.9000015258789,-167.70001220703125,-28.500001907348633
1070449,1.217819094657898,9.05289363861084,-2.667717695236206,-0.26677000522613525,0.2439039945602417,-0.114329993724823,89.10000610351562,-162.90000915527344,-27.30000114440918
1070469,1.22499680519104,9.031360626220703,-2.6611380577087402,-0.25152599811553955,0.28201398253440857,-0.09908600151538849,96.30000305175781,-167.70001220703125,-28.500001907348633
1070489,1.2644742727279663,9.103137969970703,-2.7251393795013428,-0.1600620001554489,0.35061198472976685,-0.07621999830007553,91.5,-167.70001220703125,-27.900001525878906
1070509,1.1825286149978638,8.909937858581543,-2.691643476486206,-0.35061198472976685,0.35061198472976685,-0.1295740008354187,91.5,-172.5,-27.30000114440918
1070531,1.2722500562667847,9.11569881439209,-2.6880545616149902,-0.10670799762010574,0.33536797761917114,0.015243999660015106,91.5,-170.10000610351562,-29.100000381469727
1070572,1.1909027099609375,8.806459426879883,-2.6880545616149902,-0.48018598556518555,0.1448179930448532,-0.09908600151538849,96.30000305175781,-165.3000030517578,-28.500001907348633
1070592,1.2866054773330688,9.21917724609375,-2.7490651607513428,0.07621999830007553,0.1295740008354187,0.038109999150037766,89.10000610351562,-167.70001220703125,-29.100000381469727
1070637,1.2196135520935059,9.10074520111084,-2.741887331008911,-0.2591480016708374,0.28201398253440857,-0.08384199440479279,98.70000457763672,-162.90000915527344,-28.500001907348633
1070657,1.2477262020111084,9.076221466064453,-2.717961549758911,-0.26677000522613525,0.22103799879550934,-0.26677000522613525,89.10000610351562,-167.70001220703125,-27.30000114440918
1070677,1.23695969581604,8.99128532409668,-2.703606128692627,-0.2591480016708374,0.228659987449646,-0.3887220025062561,89.10000610351562,-170.10000610351562,-29.700000762939453
1070699,1.2698575258255005,8.98829460144043,-2.6509697437286377,-0.19817200303077698,0.2972579896450043,-0.35061198472976685,89.10000610351562,-172.5,-27.30000114440918
1070719,1.2740445137023926,9.077417373657227,-2.6575491428375244,-0.19054999947547913,0.4420759975910187,-0.25152599811553955,93.9000015258789,-170.10000610351562,-27.900001525878906
1070739,1.21901535987854,9.03913688659668,-2.7227468490600586,-0.26677000522613525,0.5030519962310791,-0.15243999660015106,89.10000610351562,-167.70001220703125,-26.700000762939453
1070759,1.1693694591522217,9.003846168518066,-2.7460744380950928,-0.2743920087814331,0.4878079891204834,-0.12195199728012085,91.5,-165.3000030517578,-29.100000381469727
1070779,1.193893313407898,9.07083797454834,-2.7676074504852295,-0.20579399168491364,0.4039659798145294,-0.10670799762010574,89.10000610351562,-162.90000915527344,-26.700000762939453
1070799,1.2333707809448242,9.124073028564453,-2.781364917755127,-0.23628199100494385,0.33536797761917114,-0.13719600439071655,93.9000015258789,-167.70001220703125,-26.100000381469727
1070821,1.2674649953842163,9.051697731018066,-2.7227468490600586,-0.3734779953956604,0.2591480016708374,-0.12195199728012085,93.9000015258789,-167.70001220703125,-26.700000762939453
1070841,1.2698575258255005,9.022388458251953,-2.7149710655212402,-0.4192099869251251,0.25152599811553955,-0.06859800219535828,93.9000015258789,-165.3000030517578,-27.900001525878906
1070863,1.306942343711853,9.022388458251953,-2.6838674545288086,-0.38109999895095825,0.23628199100494385,-0.06859800219535828,93.9000015258789,-170.10000610351562,-28.500001907348633
1070883,1.311727523803711,9.012818336486816,-2.643791913986206,-0.3734779953956604,0.26677000522613525,-0.1295740008354187,86.70000457763672,-170.10000610351562,-27.30000114440918
1070905,1.2883999347686768,9.030762672424316,-2.662334442138672,-0.3048799932003021,0.3048799932003021,-0.228659987449646,89.10000610351562,-170.10000610351562,-27.900001525878906
1070926,1.3165127038955688,9.07083797454834,-2.6898488998413086,-0.3048799932003021,0.3582339882850647,-0.2591480016708374,86.70000457763672,-170.10000610351562,-27.30000114440918
1070946,1.3195034265518188,9.101343154907227,-2.6641287803649902,-0.26677000522613525,0.4420759975910187,-0.2972579896450043,84.30000305175781,-170.10000610351562,-27.30000114440918
1070966,1.3344569206237793,9.134241104125977,-2.7131764888763428,-0.20579399168491364,0.457319974899292,-0.3048799932003021,89.10000610351562,-167.70001220703125,-26.700000762939453
1070986,1.2351652383804321,8.926087379455566,-2.6521658897399902,-0.3734779953956604,0.457319974899292,-0.2896359860897064,96.30000305175781,-167.70001220703125,-27.900001525878906
1071006,1.2866054773330688,9.145008087158203,-2.7042043209075928,-0.16768398880958557,0.5030519962310791,-0.20579399168491364,86.70000457763672,-165.3000030517578,-29.700000762939453
1071029,1.2854092121124268,9.182690620422363,-2.6928396224975586,-0.3734779953956604,0.457319974899292,-0.20579399168491364,91.5,-170.10000610351562,-27.30000114440918
1071050,1.2214078903198242,8.988892555236816,-2.6599419116973877,-0.3125019967556,0.3582339882850647,-0.10670799762010574,89.10000610351562,-165.3000030517578,-27.900001525878906
1071070,1.3153164386749268,9.120484352111816,-2.671306610107422,-0.2134159952402115,0.3277460038661957,-0.1295740008354187,89.10000610351562,-170.10000610351562,-28.500001907348633
1071090,1.2782315015792847,9.04691219329834,-2.667717695236206,-0.41158798336982727,0.41158798336982727,-0.05335399881005287,86.70000457763672,-167.70001220703125,-27.30000114440918
1071110,1.2602872848510742,9.11868953704834,-2.7281301021575928,-0.3277460038661957,0.4192099869251251,-0.13719600439071655,91.5,-162.90000915527344,-27.900001525878906
1071130,1.22499680519104,9.00324821472168,-2.6509697437286377,-0.4039659798145294,0.342989981174469,-0.2439039945602417,96.30000305175781,-172.5,-29.100000381469727
1071152,1.196884036064148,9.016407012939453,-2.677288055419922,-0.2591480016708374,0.26677000522613525,-0.2896359860897064,96.30000305175781,-170.10000610351562,-27.900001525878906
1071172,1.2393522262573242,9.02418327331543,-2.661736249923706,-0.23628199100494385,0.25152599811553955,-0.3201240003108978,91.5,-165.3000030517578,-28.500001907348633
1071234,1.1675751209259033,9.042725563049316,-2.7382984161376953,-0.23628199100494385,0.23628199100494385,-0.25152599811553955,93.9000015258789,-170.10000610351562,-28.500001907348633
1071256,1.1645843982696533,9.05109977722168,-2.727531909942627,-0.228659987449646,0.13719600439071655,-0.22103799879550934,89.10000610351562,-165.3000030517578,-28.500001907348633
1071277,1.1885100603103638,9.01102352142334,-2.739494800567627,-0.20579399168491364,0.10670799762010574,-0.20579399168491364,86.70000457763672,-167.70001220703125,-27.900001525878906
1071298,1.2172209024429321,9.033753395080566,-2.7227468490600586,-0.2134159952402115,0.09908600151538849,-0.12195199728012085,93.9000015258789,-165.3000030517578,-28.500001907348633
1071318,1.2411466836929321,9.043323516845703,-2.745476245880127,-0.2439039945602417,0.1448179930448532,-0.06859800219535828,91.5,-162.90000915527344,-28.500001907348633
1071338,1.2776334285736084,9.06784725189209,-2.730522632598877,-0.28201398253440857,0.16768398880958557,-0.06859800219535828,91.5,-167.70001220703125,-27.30000114440918
1071358,1.2895961999893188,9.03794002532959,-2.7191579341888428,-0.2896359860897064,0.2439039945602417,-0.10670799762010574,89.10000610351562,-170.10000610351562,-29.700000762939453
1071378,1.2824184894561768,9.051697731018066,-2.6599419116973877,-0.28201398253440857,0.2896359860897064,-0.16768398880958557,91.5,-160.5,-27.900001525878906
1071398,1.2889981269836426,9.034351348876953,-2.682671308517456,-0.3125019967556,0.38109999895095825,-0.2134159952402115,93.9000015258789,-165.3000030517578,-28.500001907348633
1071418,1.2722500562667847,9.03016471862793,-2.7143728733062744,-0.28201398253440857,0.4192099869251251,-0.23628199100494385,84.30000305175781,-170.10000610351562,-25.500001907348633
1071439,1.2435392141342163,9.042725563049316,-2.7490651607513428,-0.25152599811553955,0.41158798336982727,-0.2972579896450043,89.10000610351562,-162.90000915527344,-28.500001907348633
1071459,1.1974822282791138,9.018799781799316,-2.720952272415161,-0.2439039945602417,0.33536797761917114,-0.228659987449646,86.70000457763672,-162.90000915527344,-27.30000114440918
1071479,1.2704557180404663,9.214990615844727,-2.7400929927825928,-0.19054999947547913,0.2972579896450043,-0.2439039945602417,93.9000015258789,-162.90000915527344,-26.100000381469727
1071499,1.2004729509353638,9.150989532470703,-2.7526538372039795,-0.48018598556518555,0.20579399168491364,-0.2439039945602417,86.70000457763672,-172.5,-30.30000114440918
1071519,1.1759490966796875,8.856104850769043,-2.6850638389587402,-0.5640279650688171,0.114329993724823,-0.1600620001554489,96.30000305175781,-167.70001220703125,-28.500001907348633
1071540,1.2333707809448242,9.156970977783203,-2.6898488998413086,-0.12195199728012085,0.13719600439071655,-0.030487999320030212,93.9000015258789,-167.70001220703125,-27.900001525878906
1071561,1.2985683679580688,9.07502555847168,-2.6366143226623535,-0.36585599184036255,0.18292799592018127,-0.015243999660015106,96.30000305175781,-162.90000915527344,-27.900001525878906
1071581,1.1962859630584717,9.07203483581543,-2.6575491428375244,-0.36585599184036255,0.2972579896450043,-0.060975998640060425,93.9000015258789,-167.70001220703125,-28.500001907348633
1071602,1.1956877708435059,9.041528701782227,-2.6719045639038086,-0.342989981174469,0.28201398253440857,-0.15243999660015106,93.9000015258789,-165.3000030517578,-27.30000114440918
1071622,1.1795378923416138,9.022388458251953,-2.668315887451172,-0.2591480016708374,0.2743920087814331,-0.2134159952402115,89.10000610351562,-162.90000915527344,-28.500001907348633
1071642,1.2549039125442505,9.063660621643066,-2.6479790210723877,-0.1295740008354187,0.26677000522613525,-0.18292799592018127,86.70000457763672,-162.90000915527344,-29.100000381469727
1071663,1.2572965621948242,9.064258575439453,-2.635417938232422,-0.16768398880958557,0.3201240003108978,-0.16768398880958557,96.30000305175781,-170.10000610351562,-27.900001525878906
1071684,1.2770352363586426,9.056482315063477,-2.7024099826812744,-0.18292799592018127,0.3048799932003021,-0.09908600151538849,86.70000457763672,-172.5,-29.700000762939453
1071724,1.2578946352005005,9.054688453674316,-2.7400929927825928,-0.08384199440479279,0.16768398880958557,0.007621999830007553,93.9000015258789,-167.70001220703125,-28.500001907348633
1071745,1.293783187866211,9.075623512268066,-2.745476245880127,-0.13719600439071655,0.09146399796009064,-0.02286599949002266,86.70000457763672,-165.3000030517578,-27.30000114440918
1071766,1.3404383659362793,9.015809059143066,-2.7550466060638428,-0.18292799592018127,0.015243999660015106,-0.10670799762010574,84.30000305175781,-165.3000030517578,-26.700000762939453
1071786,1.3930749893188477,8.97035026550293,-2.7293264865875244,-0.17530599236488342,0.015243999660015106,-0.10670799762010574,84.30000305175781,-174.90000915527344,-27.900001525878906
1071848,1.5019370317459106,9.070240020751953,-2.756840944290161,-0.17530599236488342,0.228659987449646,-0.2439039945602417,89.10000610351562,-165.3000030517578,-29.100000381469727
1071868,1.5121054649353027,9.07801628112793,-2.784355640411377,-0.18292799592018127,0.26677000522613525,-0.3125019967556,91.5,-172.5,-27.30000114440918
1071888,1.5461995601654053,8.972743034362793,-2.747868776321411,-0.3125019967556,0.3201240003108978,-0.3201240003108978,84.30000305175781,-167.70001220703125,-26.100000381469727
1071908,1.5790973901748657,9.05887508392334,-2.748466968536377,-0.2972579896450043,0.4039659798145294,-0.25152599811553955,96.30000305175781,-170.10000610351562,-29.100000381469727
1071929,1.60541570186615,8.86089038848877,-2.688652753829956,-0.5030519962310791,0.3887220025062561,-0.25152599811553955,89.10000610351562,-160.5,-26.100000381469727
1071949,1.712483286857605,9.131848335266113,-2.7317190170288086,-0.28201398253440857,0.4344539940357208,-0.10670799762010574,86.70000457763672,-172.5,-26.700000762939453
1071969,1.7501662969589233,9.033753395080566,-2.637810468673706,-0.48018598556518555,0.4192099869251251,-0.2439039945602417,89.10000610351562,-174.90000915527344,-28.500001907348633
1072009,1.8189527988433838,8.962574005126953,-2.5923516750335693,-0.5259180068969727,0.35061198472976685,-0.2743920087814331,89.10000610351562,-170.10000610351562,-28.500001907348633
1072033,1.836298942565918,9.143213272094727,-2.6252493858337402,-0.26677000522613525,0.41158798336982727,-0.3887220025062561,91.5,-167.70001220703125,-26.700000762939453
1072053,1.8177565336227417,9.044519424438477,-2.6073052883148193,-0.38109999895095825,0.41158798336982727,-0.6021379828453064,93.9000015258789,-165.3000030517578,-29.100000381469727
1072073,1.821345329284668,9.04810905456543,-2.5762016773223877,-0.2439039945602417,0.38109999895095825,-0.8079319596290588,93.9000015258789,-167.70001220703125,-28.500001907348633
1072133,1.9116649627685547,8.873451232910156,-2.4751155376434326,-0.2972579896450043,0.4725639820098877,-0.8765299916267395,89.10000610351562,-165.3000030517578,-27.30000114440918
1072153,1.958320140838623,8.96137809753418,-2.533733606338501,-0.1448179930448532,0.48018598556518555,-0.8689079880714417,89.10000610351562,-165.3000030517578,-26.100000381469727
1072175,1.8919261693954468,8.76817798614502,-2.6240532398223877,-0.038109999150037766,0.2591480016708374,-0.8841519951820374,91.5,-167.70001220703125,-28.500001907348633
1072195,1.8913280963897705,8.923096656799316,-2.729924440383911,0.3048799932003021,0.06859800219535828,-0.8612859845161438,93.9000015258789,-167.70001220703125,-27.30000114440918
1072215,1.9690866470336914,9.109119415283203,-2.7323172092437744,0.3125019967556,-0.15243999660015106,-0.9603719711303711,93.9000015258789,-167.70001220703125,-26.700000762939453
1072235,1.9726755619049072,8.957191467285156,-2.7789721488952637,0.09146399796009064,-0.342989981174469,-1.2804960012435913,98.70000457763672,-170.10000610351562,-27.900001525878906
1072255,2.002582550048828,8.866272926330566,-2.723942995071411,0.12195199728012085,-0.49542999267578125,-1.4405579566955566,96.30000305175781,-167.70001220703125,-26.100000381469727
1072275,1.9852365255355835,8.644362449645996,-2.6814749240875244,0.030487999320030212,-0.5868939757347107,-1.6234859228134155,96.30000305175781,-167.70001220703125,-27.30000114440918
1072296,1.9104686975479126,8.442190170288086,-2.536126136779785,-0.060975998640060425,-0.5792719721794128,-1.7225719690322876,101.10000610351562,-165.3000030517578,-26.100000381469727
1072316,1.7818678617477417,8.119791030883789,-2.4254696369171143,-0.20579399168491364,-0.5792719721794128,-1.9512319564819336,98.70000457763672,-162.90000915527344,-28.500001907348633
1072338,1.3105312585830688,6.997076511383057,-1.9828439950942993,-0.7469559907913208,-0.7850660085678101,-2.6067240238189697,101.10000610351562,-165.3000030517578,-26.100000381469727
1072358,0.62147057056427,5.181712627410889,-1.330868124961853,-1.2576299905776978,-1.067080020904541,-3.2698378562927246,105.9000015258789,-165.3000030517578,-27.900001525878906
1072378,-0.8009134531021118,2.7406911849975586,-0.7895486950874329,-1.3109840154647827,0.04573199898004532,-2.5152599811553955,105.9000015258789,-160.5,-27.30000114440918
1072398,-1.2985683679580688,2.41709566116333,-0.6310408115386963,-1.4329359531402588,0.4420759975910187,-1.1204339265823364,110.70000457763672,-160.5,-28.500001907348633
1072440,-1.5868732929229736,5.121898174285889,-1.4122155904769897,-1.7683039903640747,2.8125178813934326,4.763750076293945,101.10000610351562,-158.10000610351562,-29.700000762939453
1072460,-1.9080760478973389,6.641181468963623,-1.636519193649292,-2.743919849395752,3.75002384185791,5.022897720336914,101.10000610351562,-162.90000915527344,-29.100000381469727
1072480,-2.062397003173828,8.66948413848877,-3.439321994781494,-2.3094658851623535,5.3582658767700195,6.051867961883545,93.9000015258789,-167.70001220703125,-29.100000381469727
1072500,-2.27473783493042,9.812535285949707,-3.859816551208496,-2.187514066696167,3.361301898956299,5.129605770111084,89.10000610351562,-170.10000610351562,-29.700000762939453
1072520,-1.7399978637695312,12.254753112792969,-5.0273919105529785,0.7621999979019165,5.495461940765381,9.054935455322266,84.30000305175781,-170.10000610351562,-30.30000114440918
1072540,2.522368907928467,18.855859756469727,-7.044928073883057,-0.05335399881005287,4.984787940979004,15.670831680297852,69.9000015258789,-162.90000915527344,-29.100000381469727
1072560,5.680563926696777,19.591575622558594,-7.538993835449219,-0.030487999320030212,4.977165699005127,15.869003295898438,53.10000228881836,-170.10000610351562,-30.30000114440918
1072583,10.578756332397461,19.599349975585938,-10.605672836303711,-1.6234859228134155,1.471045970916748,4.878079891204834,31.500001907348633,-167.70001220703125,-30.900001525878906
1072603,8.70537281036377,19.599349975585938,-8.39553451538086,-0.23628199100494385,-4.794238090515137,-2.5152599811553955,38.70000076293945,-174.90000915527344,-28.500001907348633
1072623,8.258560180664062,19.599349975585938,-6.4192705154418945,-4.992409706115723,-3.4680099487304688,0.48018598556518555,38.70000076293945,-172.5,-31.500001907348633
1072643,5.757126331329346,17.50106430053711,-4.5117926597595215,-4.9466776847839355,-3.818621873855591,-4.596065998077393,38.70000076293945,-172.5,-32.10000228881836
1072667,4.298853397369385,10.056577682495117,-2.0312936305999756,-4.634175777435303,-5.327777862548828,-8.506152153015137,48.30000305175781,-172.5,-30.900001525878906
1072687,2.8902268409729004,4.49564266204834,0.915158748626709,-5.083873748779297,-3.650938034057617,-7.614377975463867,53.10000228881836,-170.10000610351562,-31.500001907348633
1072707,1.3751306533813477,1.642500638961792,0.8864479064941406,-3.5366079807281494,0.015243999660015106,-5.785098075866699,62.70000076293945,-174.90000915527344,-33.30000305175781
1072727,-0.9630101919174194,-1.546797752380371,1.2543058395385742,-3.208861827850342,-0.39634400606155396,-8.025965690612793,60.30000305175781,-179.70001220703125,-34.5
1072747,-1.7310258150100708,-3.016434907913208,0.6645368337631226,0.6783579587936401,0.17530599236488342,-4.794238090515137,72.30000305175781,-174.90000915527344,-33.900001525878906
1072771,1.8129713535308838,2.6850638389587402,0.21234075725078583,2.1646480560302734,-2.5228819847106934,0.9832379817962646,72.30000305175781,-172.5,-32.70000076293945
1072792,0.9713841676712036,0.5688339471817017,0.6747052669525146,0.114329993724823,-1.7225719690322876,-2.042695999145508,74.70000457763672,-172.5,-32.70000076293945
1072813,0.6382185220718384,-0.04605700820684433,0.7309306859970093,0.4420759975910187,-1.5167779922485352,-0.19817200303077698,77.10000610351562,-177.3000030517578,-30.900001525878906
1072833,0.5191881060600281,-0.11663787811994553,0.809287428855896,-0.1448179930448532,-0.8307979702949524,0.038109999150037766,74.70000457763672,-172.5,-33.30000305175781
1072853,-0.09630101919174194,-0.7010235786437988,0.6130965352058411,-0.5640279650688171,-0.030487999320030212,-0.4192099869251251,72.30000305175781,-167.70001220703125,-32.10000228881836
1072937,-0.09450659155845642,-0.7937357425689697,0.5108140707015991,0.18292799592018127,0.41158798336982727,0.13719600439071655,74.70000457763672,-174.90000915527344,-32.70000076293945
1072976,0.28890305757522583,0.3122306168079376,0.6501814126968384,-0.030487999320030212,1.3948259353637695,2.431417942047119,69.9000015258789,-177.3000030517578,-33.30000305175781
1072999,0.806296706199646,3.2299721240997314,-0.13637660443782806,0.05335399881005287,2.4771499633789062,3.8338658809661865,65.10000610351562,-170.10000610351562,-32.70000076293945
1073039,4.45377254486084,16.789274215698242,-5.307920932769775,3.757645845413208,6.623517990112305,17.7973690032959,45.900001525878906,-182.10000610351562,-30.30000114440918
1073119,16.2617130279541,19.599349975585938,-11.079401969909668,-2.736297845840454,6.013757705688477,6.166197776794434,14.700000762939453,-174.90000915527344,-31.500001907348633
1073159,10.476473808288574,19.599349975585938,-7.17173433303833,-0.49542999267578125,-4.580821990966797,-6.128087997436523,19.5,-174.90000915527344,-30.900001525878906
1073178,7.690324306488037,19.599349975585938,-7.071246147155762,1.0442140102386475,-2.743919849395752,-6.714982032775879,29.100000381469727,-174.90000915527344,-29.100000381469727
1073220,1.806391716003418,7.915225982666016,-0.33615633845329285,-2.4542839527130127,-5.571681976318359,-13.521428108215332,48.30000305175781,-174.90000915527344,-29.700000762939453
1073240,-0.9331030249595642,1.9003002643585205,-0.4001576602458954,-2.28659987449646,-0.5487840175628662,-14.451312065124512,67.5,-172.5,-29.100000381469727
1073260,-3.2855992317199707,-2.2789247035980225,0.03648672252893448,-3.5366079807281494,-1.2652519941329956,-10.716531753540039,72.30000305175781,-172.5,-29.100000381469727
1073280,-3.705495595932007,-4.060194492340088,0.3929799199104309,-2.073184013366699,-0.5792719721794128,-4.847591876983643,81.9000015258789,-170.10000610351562,-32.10000228881836
1073300,-0.5305528044700623,0.5963485240936279,-0.7046124339103699,3.3841679096221924,-1.2728739976882935,2.9268479347229004,86.70000457763672,-172.5,-30.30000114440918
1073320,1.7746901512145996,3.8323020935058594,-0.42468151450157166,2.4161739349365234,-2.690565824508667,2.7591638565063477,74.70000457763672,-172.5,-27.900001525878906
1073343,0.5682358145713806,0.6753033995628357,0.22849062085151672,-1.196653962135315,-1.1280559301376343,-2.126538038253784,81.9000015258789,-174.90000915527344,-31.500001907348633
1073407,-0.03469229117035866,-1.1227144002914429,0.5329453945159912,-1.577754020690918,0.7850660085678101,1.7759259939193726,77.10000610351562,-170.10000610351562,-32.10000228881836
1073447,0.20396675169467926,-0.13757288455963135,0.19499461352825165,-0.7469559907913208,0.8841519951820374,1.882633924484253,69.9000015258789,-172.5,-30.30000114440918
1073507,0.3917836546897888,-0.6136946678161621,0.3373526334762573,-1.021347999572754,1.067080020904541,2.1646480560302734,72.30000305175781,-174.90000915527344,-31.500001907348633
1073527,0.8338112831115723,0.8385964632034302,-0.04964586719870567,0.2972579896450043,1.7301939725875854,3.5899620056152344,65.10000610351562,-170.10000610351562,-30.900001525878906
1073547,1.8428784608840942,4.498034954071045,-1.0503391027450562,3.2241058349609375,3.5747179985046387,7.515291690826416,65.10000610351562,-167.70001220703125,-29.700000762939453
1073567,4.1002702713012695,11.332416534423828,-3.70190691947937,5.083873748779297,6.775958061218262,16.166261672973633,45.900001525878906,-170.10000610351562,-30.900001525878906
1073590,8.73827075958252,19.599349975585938,-5.044139862060547,-1.8445239067077637,6.432967662811279,17.324806213378906,29.100000381469727,-172.5,-31.500001907348633
1073610,6.577179908752441,16.5667667388916,-4.764806747436523,-2.850627899169922,-1.1585439443588257,-2.8658719062805176,24.30000114440918,-170.10000610351562,-29.700000762939453
1073630,5.647665977478027,15.740132331848145,-4.310218334197998,2.843005895614624,4.07014799118042,0.9298839569091797,26.700000762939453,-172.5,-30.30000114440918
1073650,15.808918952941895,19.599349975585938,-9.658812522888184,2.126538038253784,15.42692756652832,19.611406326293945,14.700000762939453,-170.10000610351562,-30.30000114440918
1073670,15.801142692565918,19.599349975585938,-11.434699058532715,-3.208861827850342,1.9664759635925293,2.5228819847106934,-6.900000095367432,-177.3000030517578,-30.900001525878906
1073690,13.99774169921875,19.597557067871094,-8.705970764160156,-0.05335399881005287,-6.478699684143066,-2.545747995376587,0.30000001192092896,-170.10000610351562,-33.900001525878906
1073712,11.915007591247559,19.599349975585938,-5.723629951477051,-1.7683039903640747,-5.556437969207764,-2.530503988265991,2.700000047683716,-172.5,-32.10000228881836
1073732,7.932571887969971,19.33078384399414,-6.2912678718566895,-0.35061198472976685,-2.5152599811553955,-5.243936061859131,5.100000381469727,-167.70001220703125,-29.700000762939453
1073754,5.872567653656006,13.841028213500977,-3.7635154724121094,-2.1189160346984863,-6.364369869232178,-7.614377975463867,12.300000190734863,-172.5,-30.30000114440918
1073815,-2.20894193649292,-4.95382022857666,1.5150961875915527,-4.115880012512207,-1.9740979671478271,-11.1357421875,53.10000228881836,-172.5,-30.900001525878906
1073835,-0.7602397203445435,-2.205353021621704,-0.7357158660888672,0.6554920077323914,1.2500079870224,2.332331895828247,53.10000228881836,-170.10000610351562,-32.10000228881836
1073855,1.6060138940811157,3.1306803226470947,-0.7907450199127197,2.4085519313812256,-1.5472660064697266,4.687530040740967,53.10000228881836,-172.5,-29.700000762939453
1073875,1.3835047483444214,1.83151376247406,-0.09689915925264359,0.48018598556518555,-1.196653962135315,-1.2347639799118042,53.10000228881836,-174.90000915527344,-30.30000114440918
1073895,0.5634506940841675,-0.356493204832077,-0.1058713048696518,-0.4039659798145294,-1.2500079870224,-1.2271419763565063,60.30000305175781,-179.70001220703125,-32.70000076293945
1073915,0.5628525614738464,-0.596946656703949,0.43664437532424927,-0.5945159792900085,-1.2347639799118042,-0.13719600439071655,53.10000228881836,-174.90000915527344,-31.500001907348633
1073935,0.2326776087284088,-1.1520233154296875,0.6447980999946594,-1.2347639799118042,-0.3048799932003021,-0.25152599811553955,55.500003814697266,-174.90000915527344,-30.30000114440918
1073955,0.041870009154081345,-0.6806867122650146,0.5843856930732727,-1.1280559301376343,0.5030519962310791,0.41158798336982727,53.10000228881836,-179.70001220703125,-31.500001907348633
1074036,0.05861801281571388,0.10527316480875015,0.43903693556785583,-0.7545779943466187,0.3201240003108978,0.2134159952402115,53.10000228881836,-170.10000610351562,-30.900001525878906
1074076,-0.02691643312573433,1.0808444023132324,0.6232649683952332,-0.1448179930448532,0.1600620001554489,0.23628199100494385,55.500003814697266,-177.3000030517578,-30.900001525878906
1074116,3.058305025100708,12.197331428527832,-3.031986713409424,3.201239824295044,2.6295900344848633,12.141845703125,43.5,-172.5,-31.500001907348633
1074138,6.133358001708984,19.599349975585938,-3.7509546279907227,-1.4634239673614502,4.047281742095947,12.10373592376709,26.700000762939453,-179.70001220703125,-34.5
1074178,4.4430060386657715,19.078369140625,-6.665107250213623,6.440589904785156,5.137228012084961,0.38109999895095825,29.100000381469727,-172.5,-33.30000305175781
1074198,15.343563079833984,19.58200454711914,-10.908333778381348,2.4619059562683105,11.814099311828613,19.05500030517578,12.300000190734863,-172.5,-31.500001907348633
1074218,14.702354431152344,19.599349975585938,-11.074019432067871,-2.225623846054077,-3.346057891845703,0.10670799762010574,5.100000381469727,-167.70001220703125,-32.10000228881836
1074238,12.417448043823242,19.598752975463867,-8.299832344055176,-0.6173819899559021,-5.480217933654785,-1.9054999351501465,12.300000190734863,-170.10000610351562,-31.500001907348633
1074258,9.370508193969727,19.599349975585938,-6.790717124938965,-2.538125991821289,-1.2728739976882935,-1.0365920066833496,5.100000381469727,-165.3000030517578,-31.500001907348633
1074278,7.7399702072143555,19.531761169433594,-5.910250663757324,-2.850627899169922,-2.8048958778381348,-3.5823400020599365,5.100000381469727,-165.3000030517578,-32.10000228881836
1074298,4.622448921203613,13.208192825317383,-2.555266857147217,-3.094532012939453,-5.632658004760742,-9.28359603881836,21.900001525878906,-177.3000030517578,-32.10000228881836
1074320,1.2405484914779663,6.185994625091553,-0.49047723412513733,-2.080806016921997,-3.1326420307159424,-14.405579566955566,26.700000762939453,-170.10000610351562,-32.10000228881836
1074361,-2.847160577774048,-5.317491054534912,1.2740445137023926,-2.4771499633789062,-1.699705958366394,-9.260729789733887,53.10000228881836,-174.90000915527344,-33.900001525878906
1074423,1.5665364265441895,0.5921615362167358,-0.12740445137023926,-0.9375059604644775,-0.015243999660015106,0.23628199100494385,48.30000305175781,-177.3000030517578,-30.900001525878906
1074443,1.0114597082138062,-0.41271865367889404,0.02691643312573433,-1.0899460315704346,0.060975998640060425,1.189031958580017,48.30000305175781,-174.90000915527344,-32.10000228881836
1074463,0.7387065887451172,-0.6717145442962646,0.31881019473075867,-1.6311079263687134,0.2743920087814331,1.0899460315704346,45.900001525878906,-167.70001220703125,-32.10000228881836
1074483,0.28770676255226135,-0.6256575584411621,0.24105161428451538,-2.0045859813690186,0.8155539631843567,0.8689079880714417,45.900001525878906,-182.10000610351562,-33.30000305175781
1074503,0.07476787269115448,-0.38161522150039673,0.20875190198421478,-2.195136070251465,0.6478700041770935,0.19817200303077698,45.900001525878906,-172.5,-33.30000305175781
1074523,-0.06878644227981567,-0.5299546718597412,0.3152213394641876,-2.187514066696167,0.28201398253440857,-0.5259180068969727,43.5,-179.70001220703125,-33.30000305175781
1074543,-0.022131290286779404,-0.17047074437141418,0.43066293001174927,-1.4329359531402588,0.02286599949002266,-0.6936019659042358,43.5,-172.5,-33.900001525878906
1074563,0.02691643312573433,-0.10467501729726791,0.48928093910217285,-1.2271419763565063,-0.2439039945602417,-1.013725996017456,41.10000228881836,-174.90000915527344,-33.900001525878906
1074583,0.19798532128334045,-0.49346795678138733,0.7410991191864014,-1.3033620119094849,-0.4344539940357208,-0.9832379817962646,48.30000305175781,-172.5,-34.5
1074603,0.6615461111068726,-0.9259253144264221,1.2052581310272217,-1.3186060190200806,-0.39634400606155396,-0.08384199440479279,45.900001525878906,-177.3000030517578,-33.900001525878906
1074624,1.1011812686920166,-0.20217232406139374,1.519881248474121,-0.8765299916267395,1.1661659479141235,2.3475759029388428,45.900001525878906,-174.90000915527344,-33.900001525878906
1074644,2.4302549362182617,4.660131931304932,-0.29488447308540344,2.233245849609375,4.00154972076416,8.269869804382324,38.70000076293945,-174.90000915527344,-34.5
1074664,3.764711856842041,11.109907150268555,-2.2005679607391357,2.957335948944092,6.730226039886475,13.46045207977295,26.700000762939453,-177.3000030517578,-33.900001525878906
1074687,6.662116527557373,19.011375427246094,-4.159486293792725,1.699705958366394,7.865903854370117,12.660141944885254,14.700000762939453,-174.90000915527344,-33.900001525878906
1074707,7.710660934448242,18.306764602661133,-3.9955949783325195,-1.6311079263687134,-1.1204339265823364,-0.6173819899559021,14.700000762939453,-167.70001220703125,-35.70000076293945
1074727,6.520954608917236,17.481327056884766,-3.341824769973755,3.4832539558410645,3.6738038063049316,-2.042695999145508,17.100000381469727,-174.90000915527344,-34.5
1074747,13.926563262939453,19.599349975585938,-9.899266242980957,6.333881855010986,17.17998695373535,13.612892150878906,7.500000476837158,-170.10000610351562,-31.500001907348633
1074767,16.88976287841797,19.599349975585938,-11.991570472717285,-0.6402480006217957,1.0747020244598389,-0.457319974899292,-4.5,-170.10000610351562,-32.10000228881836
1074789,11.447857856750488,19.598154067993164,-7.918216705322266,0.914639949798584,-9.550365447998047,-4.153989791870117,0.30000001192092896,-170.10000610351562,-32.10000228881836
1074809,12.401896476745605,19.599349975585938,-7.07603120803833,-0.030487999320030212,-4.2988080978393555,-0.8917739987373352,5.100000381469727,-174.90000915527344,-30.900001525878906
1074829,6.3211750984191895,18.56336784362793,-5.284593105316162,-1.8369019031524658,-8.460419654846191,-5.686011791229248,12.300000190734863,-172.5,-30.30000114440918
1074849,5.158384799957275,15.326217651367188,-3.5134918689727783,-3.155508041381836,-9.28359603881836,-7.233277797698975,21.900001525878906,-172.5,-33.30000305175781
1074871,1.5342366695404053,7.26923131942749,-0.10048802196979523,-2.949713945388794,-4.496979713439941,-14.580885887145996,26.700000762939453,-174.90000915527344,-33.900001525878906
1074892,0.4886828064918518,0.43484994769096375,-0.4677478075027466,0.48018598556518555,-3.2317278385162354,-23.399539947509766,45.900001525878906,-179.70001220703125,-32.10000228881836
1074912,-3.7060937881469727,-6.519758224487305,1.939179539680481,-1.935987949371338,-3.8414878845214844,-18.582435607910156,65.10000610351562,-177.3000030517578,-31.500001907348633
1074932,-2.519378185272217,-2.981144666671753,0.13577845692634583,-0.1448179930448532,1.6692179441452026,0.030487999320030212,72.30000305175781,-177.3000030517578,-33.30000305175781
1074952,0.355895072221756,3.71985125541687,-0.8583351373672485,1.6234859228134155,-0.3734779953956604,3.9253299236297607,67.5,-172.5,-32.70000076293945
1075032,0.5473008155822754,-1.040170669555664,0.6944440007209778,-0.19817200303077698,1.6234859228134155,2.2180018424987793,77.10000610351562,-177.3000030517578,-33.30000305175781
1075098,-0.2733513414859772,0.2548089027404785,-0.13876916468143463,-1.417691946029663,2.1570260524749756,0.4039659798145294,69.9000015258789,-174.90000915527344,-31.500001907348633
1075201,2.918339490890503,7.815336227416992,-2.5773980617523193,6.844555854797363,5.266801834106445,14.298871994018555,53.10000228881836,-172.5,-31.500001907348633
1075221,6.62383508682251,16.50994300842285,-3.508706569671631,-0.2134159952402115,5.853695869445801,18.3004207611084,41.10000228881836,-179.70001220703125,-29.100000381469727
1075263,8.368020057678223,19.593368530273438,-6.95759916305542,-0.09146399796009064,1.524399995803833,1.471045970916748,17.100000381469727,-170.10000610351562,-30.30000114440918
1075303,18.082460403442383,19.599349975585938,-9.176709175109863,-3.239349842071533,10.777507781982422,11.554951667785645,2.700000047683716,-170.10000610351562,-35.10000228881836
1075438,-2.7018117904663086,-4.408313751220703,-0.36546534299850464,-1.7225719690322876,-1.425313949584961,-11.166230201721191,53.10000228881836,-177.3000030517578,-32.10000228881836
1075479,1.1603974103927612,2.42606782913208,-0.9821507334709167,1.6920839548110962,-1.7301939725875854,5.8613176345825195,48.30000305175781,-177.3000030517578,-30.30000114440918
1075499,1.6700152158737183,2.6425955295562744,-0.23925718665122986,0.04573199898004532,-1.9664759635925293,1.3948259353637695,43.5,-179.70001220703125,-32.10000228881836
1075519,1.1741546392440796,0.5556747913360596,-0.11424531042575836,-2.0198299884796143,-1.653973937034607,-0.02286599949002266,43.5,-170.10000610351562,-30.900001525878906
1075562,1.0545260906219482,-1.1777435541152954,1.0951998233795166,-2.4161739349365234,-0.9375059604644775,0.07621999830007553,45.900001525878906,-174.90000915527344,-33.30000305175781
1075604,0.718967854976654,-1.032992959022522,1.193893313407898,-1.4329359531402588,0.8841519951820374,0.18292799592018127,48.30000305175781,-179.70001220703125,-33.900001525878906
1075644,0.5778061151504517,-0.3223990499973297,1.0138523578643799,-0.5792719721794128,1.7606819868087769,0.6554920077323914,43.5,-172.5,-34.5
1075681,1.22200608253479,4.94783878326416,-0.7446879744529724,2.8048958778381348,2.9268479347229004,3.3765459060668945,38.70000076293945,-174.90000915527344,-32.70000076293945
1075701,2.6725027561187744,12.324735641479492,-3.0176312923431396,5.022897720336914,5.983269691467285,9.657073974609375,33.900001525878906,-177.3000030517578,-30.30000114440918
1075744,5.754733562469482,16.29401206970215,-5.16197395324707,-2.2713558673858643,-5.807963848114014,-6.722603797912598,19.5,-177.3000030517578,-32.10000228881836
1075784,7.394243240356445,19.599349975585938,-8.077322959899902,6.067111968994141,11.46348762512207,7.35522985458374,24.30000114440918,-179.70001220703125,-30.30000114440918
1075804,10.241403579711914,19.553293228149414,-10.4932222366333,-1.6920839548110962,0.8155539631843567,-1.3033620119094849,19.5,-172.5,-30.30000114440918
1075828,2.7371022701263428,14.041406631469727,-1.824336051940918,-0.6021379828453064,-10.228723526000977,-8.689080238342285,38.70000076293945,-177.3000030517578,-31.500001907348633
1075868,0.9606176018714905,9.391443252563477,-2.885441780090332,-1.653973937034607,-4.8552141189575195,-7.317119598388672,48.30000305175781,-182.10000610351562,-31.500001907348633
1075888,0.4210926592350006,5.708078384399414,-1.919440746307373,-0.15243999660015106,-2.9116039276123047,-8.14029598236084,50.70000076293945,-174.90000915527344,-30.30000114440918
1075908,0.17047074437141418,4.080531120300293,-1.7370071411132812,-1.7149499654769897,-1.9207439422607422,-3.7881338596343994,55.500003814697266,-174.90000915527344,-32.10000228881836
1075928,0.5478989481925964,4.042848110198975,-1.3721399307250977,-1.6768399477005005,-1.3872039318084717,-0.38109999895095825,57.900001525878906,-174.90000915527344,-31.500001907348633
1075948,1.1227144002914429,4.108046054840088,-1.2752407789230347,-0.33536797761917114,-1.021347999572754,0.6097599864006042,65.10000610351562,-174.90000915527344,-30.900001525878906
1075968,1.515694260597229,4.298853397369385,-1.0509371757507324,-0.28201398253440857,-0.6250039935112,1.471045970916748,60.30000305175781,-170.10000610351562,-32.10000228881836
1075990,1.7884474992752075,5.013036251068115,-1.3589807748794556,-0.16768398880958557,-0.038109999150037766,2.2561118602752686,57.900001525878906,-179.70001220703125,-31.500001907348633
1076010,2.0402655601501465,6.925299167633057,-1.7914382219314575,0.228659987449646,-0.3582339882850647,2.324709892272949,57.900001525878906,-179.70001220703125,-30.900001525878906
1076030,2.110248327255249,7.291362762451172,-1.6078083515167236,-0.10670799762010574,-0.6402480006217957,1.882633924484253,55.500003814697266,-177.3000030517578,-31.500001907348633
1076050,2.6390068531036377,8.623427391052246,-1.3123257160186768,-0.5945159792900085,-0.6021379828453064,1.6692179441452026,50.70000076293945,-177.3000030517578,-30.900001525878906
1076070,2.9530317783355713,9.887901306152344,-1.1233124732971191,-1.7835479974746704,0.22103799879550934,0.5411620140075684,48.30000305175781,-174.90000915527344,-31.500001907348633
1076091,2.697624683380127,10.00812816619873,-1.6323322057724,-1.9054999351501465,1.4558019638061523,-0.8155539631843567,53.10000228881836,-172.5,-32.10000228881836
1076111,2.5474908351898193,11.033345222473145,-2.0761542320251465,-1.1128119230270386,1.7378159761428833,-0.26677000522613525,45.900001525878906,-172.5,-30.900001525878906
1076131,2.8956100940704346,12.983291625976562,-2.530742883682251,-0.4344539940357208,1.5091559886932373,0.4420759975910187,48.30000305175781,-174.90000915527344,-33.30000305175781
1076151,3.2359535694122314,13.851795196533203,-2.358477830886841,-0.8993960022926331,0.4420759975910187,-0.8765299916267395,48.30000305175781,-179.70001220703125,-32.10000228881836
1076174,1.7178666591644287,8.942237854003906,-0.9205420613288879,-0.9375059604644775,-0.2591480016708374,-3.5975840091705322,50.70000076293945,-172.5,-33.900001525878906
1076194,1.1980804204940796,8.024685859680176,-0.8104837536811829,-0.114329993724823,1.1509219408035278,-2.2103798389434814,53.10000228881836,-170.10000610351562,-32.70000076293945
1076214,1.0754610300064087,8.062967300415039,-1.1442475318908691,0.4725639820098877,1.600619912147522,-1.5320219993591309,55.500003814697266,-172.5,-33.900001525878906
1076234,1.1412568092346191,8.095865249633789,-1.2441374063491821,0.6783579587936401,1.524399995803833,-1.3033620119094849,57.900001525878906,-170.10000610351562,-30.900001525878906
1076254,1.540816307067871,8.368020057678223,-1.2901943922042847,0.7469559907913208,1.295740008354187,-1.1204339265823364,57.900001525878906,-177.3000030517578,-30.30000114440918
1076274,2.0043771266937256,8.267532348632812,-1.1065645217895508,0.4420759975910187,1.417691946029663,-0.9603719711303711,65.10000610351562,-167.70001220703125,-30.30000114440918
1076336,2.787346363067627,8.968555450439453,-2.4374325275421143,1.0061039924621582,2.0503180027008057,0.4420759975910187,55.500003814697266,-172.5,-30.900001525878906
1076356,3.001481533050537,9.478771209716797,-2.9608078002929688,1.1356779336929321,2.134160041809082,0.7850660085678101,60.30000305175781,-172.5,-33.900001525878906
1076379,2.7496633529663086,9.572081565856934,-3.479397773742676,1.3338500261306763,1.8673899173736572,0.3048799932003021,60.30000305175781,-170.10000610351562,-30.30000114440918
1076400,2.592949867248535,9.93036937713623,-4.098475456237793,2.179892063140869,1.4100699424743652,-0.5945159792900085,60.30000305175781,-170.10000610351562,-31.500001907348633
1076420,2.5032284259796143,10.122373580932617,-4.518372058868408,2.6295900344848633,0.015243999660015106,-1.92836594581604,62.70000076293945,-172.5,-29.700000762939453
1076460,2.8005053997039795,9.537389755249023,-3.8317039012908936,1.8673899173736572,-1.8140360116958618,-3.6356940269470215,62.70000076293945,-174.90000915527344,-28.500001907348633
1076482,2.48588228225708,7.857205867767334,-3.26765513420105,-0.015243999660015106,-1.2347639799118042,-3.3917899131774902,69.9000015258789,-170.10000610351562,-30.900001525878906
1076502,2.444610357284546,7.7603068351745605,-3.141446828842163,-0.3887220025062561,-0.33536797761917114,-1.8216580152511597,72.30000305175781,-170.10000610351562,-28.500001907348633
1076522,2.471526861190796,8.0886869430542,-3.1049602031707764,-0.967993974685669,0.07621999830007553,-0.9375059604644775,79.5,-172.5,-29.100000381469727
1076545,2.3943662643432617,8.001358985900879,-2.9996869564056396,-1.1661659479141235,0.426831990480423,-0.571649968624115,72.30000305175781,-170.10000610351562,-27.900001525878906
1076565,2.530144691467285,8.170034408569336,-2.9966962337493896,-0.9756159782409668,0.5335400104522705,-0.41158798336982727,69.9000015258789,-167.70001220703125,-30.900001525878906
1076585,2.620464324951172,8.28906536102295,-2.9380781650543213,-0.9375059604644775,0.7164679765701294,-0.6097599864006042,74.70000457763672,-172.5,-30.30000114440918
1076629,2.569622278213501,8.31897258758545,-3.314908266067505,-0.25152599811553955,0.5868939757347107,-1.2804960012435913,77.10000610351562,-167.70001220703125,-28.500001907348633
1076689,2.7526538372039795,8.36263656616211,-3.44590163230896,0.2134159952402115,-0.2972579896450043,-1.7378159761428833,81.9000015258789,-167.70001220703125,-29.100000381469727
1076709,2.7861499786376953,8.42544174194336,-3.5302398204803467,0.18292799592018127,-0.4344539940357208,-1.5701320171356201,81.9000015258789,-172.5,-29.700000762939453
1076733,2.8088793754577637,8.555238723754883,-3.46683669090271,0.22103799879550934,-0.9222619533538818,-1.417691946029663,79.5,-172.5,-29.700000762939453
1076753,2.882451057434082,8.862086296081543,-3.4441072940826416,0.1295740008354187,-1.0899460315704346,-1.2804960012435913,81.9000015258789,-165.3000030517578,-27.30000114440918
1076814,3.142045021057129,9.42254638671875,-3.0218183994293213,-0.3048799932003021,-1.2652519941329956,-1.5015339851379395,81.9000015258789,-167.70001220703125,-29.700000762939453
1076882,2.062397003173828,8.921900749206543,-1.8578320741653442,-0.342989981174469,-0.7545779943466187,-1.2347639799118042,91.5,-170.10000610351562,-29.100000381469727
1076902,1.2812222242355347,9.2879638671875,-1.9427683353424072,-0.3125019967556,-0.7164679765701294,-1.4405579566955566,96.30000305175781,-165.3000030517578,-28.500001907348633
1076942,-1.1855193376541138,9.93036937713623,-2.2041568756103516,-0.6707359552383423,0.685979962348938,0.09146399796009064,91.5,-167.70001220703125,-29.700000762939453
1076982,-1.8973095417022705,9.70726203918457,-2.301654100418091,-0.5487840175628662,0.571649968624115,0.44969800114631653,101.10000610351562,-170.10000610351562,-30.30000114440918
1077022,-1.6550616025924683,9.429723739624023,-2.030097246170044,-0.28201398253440857,-1.1814099550247192,-1.4100699424743652,91.5,-167.70001220703125,-30.900001525878906
1077140,-1.1227144002914429,8.947022438049316,-1.8697949647903442,0.6936019659042358,0.5564059615135193,-1.6844619512557983,108.30000305175781,-162.90000915527344,-29.700000762939453
1077179,-0.7422954440116882,8.692214012145996,-1.7615309953689575,0.3277460038661957,1.3490939140319824,-0.3734779953956604,105.9000015258789,-162.90000915527344,-26.100000381469727
1077200,-0.4372425079345703,8.88182544708252,-1.8249342441558838,0.35061198472976685,1.5015339851379395,0.16768398880958557,113.10000610351562,-165.3000030517578,-28.500001907348633
1077242,-0.3648672103881836,8.99427604675293,-1.9774606227874756,0.15243999660015106,1.4558019638061523,0.12195199728012085,108.30000305175781,-167.70001220703125,-27.900001525878906
1077262,-0.15970417857170105,9.340002059936523,-2.107855796813965,0.09146399796009064,1.0899460315704346,-0.2896359860897064,103.50000762939453,-162.90000915527344,-27.30000114440918
1077283,-0.1399654597043991,9.42434024810791,-2.2908875942230225,-0.228659987449646,0.9756159782409668,-0.6783579587936401,105.9000015258789,-158.10000610351562,-27.900001525878906
1077303,-0.28591233491897583,8.724513053894043,-2.369244337081909,-0.26677000522613525,0.3887220025062561,-1.3262280225753784,105.9000015258789,-167.70001220703125,-29.700000762939453
1077323,0.2075556069612503,8.611464500427246,-2.4912655353546143,0.3277460038661957,0.015243999660015106,-0.5792719721794128,108.30000305175781,-162.90000915527344,-27.30000114440918
1077344,0.3546987771987915,8.612062454223633,-2.6342215538024902,0.3125019967556,0.007621999830007553,-0.38109999895095825,108.30000305175781,-158.10000610351562,-27.900001525878906
1077364,0.5048326849937439,8.445180892944336,-2.605510711669922,0.23628199100494385,-0.060975998640060425,-0.13719600439071655,105.9000015258789,-162.90000915527344,-27.900001525878906
1077384,0.9163550138473511,8.883021354675293,-2.6964285373687744,0.25152599811553955,0.26677000522613525,0.02286599949002266,105.9000015258789,-162.90000915527344,-27.30000114440918
1077404,1.2441374063491821,9.45125675201416,-3.075651168823242,-0.114329993724823,0.8765299916267395,-0.44969800114631653,110.70000457763672,-165.3000030517578,-26.700000762939453
1077424,1.4044396877288818,9.670177459716797,-3.48478102684021,-0.6097599864006042,1.067080020904541,-1.2576299905776978,103.50000762939453,-162.90000915527344,-26.700000762939453
1077444,1.7238479852676392,10.158860206604004,-3.791628360748291,-0.09146399796009064,1.4939119815826416,-1.6920839548110962,110.70000457763672,-162.90000915527344,-29.100000381469727
1077464,2.089313507080078,10.701375961303711,-4.373621463775635,0.36585599184036255,1.653973937034607,-2.179892063140869,110.70000457763672,-160.5,-26.100000381469727
1077484,1.5826863050460815,9.57985782623291,-4.303638458251953,0.030487999320030212,1.0747020244598389,-2.9649579524993896,115.50000762939453,-160.5,-27.900001525878906
1077504,1.2830166816711426,8.37759017944336,-4.0613908767700195,0.33536797761917114,1.0594580173492432,-2.6143460273742676,117.9000015258789,-158.10000610351562,-27.900001525878906
1077524,1.3565882444381714,9.20242977142334,-4.28150749206543,0.7545779943466187,1.0975680351257324,-1.3872039318084717,115.50000762939453,-158.10000610351562,-26.100000381469727
1077544,1.3015590906143188,9.56191349029541,-4.67388916015625,0.571649968624115,0.9527499675750732,-1.882633924484253,115.50000762939453,-160.5,-24.900001525878906
1077564,1.0323947668075562,8.403908729553223,-4.140944004058838,0.46494197845458984,-0.1600620001554489,-2.5076379776000977,122.70000457763672,-160.5,-25.500001907348633
1077584,0.9869359135627747,8.009134292602539,-3.922621488571167,0.3887220025062561,-0.3125019967556,-2.3094658851623535,122.70000457763672,-155.70001220703125,-26.100000381469727
1077604,1.0317965745925903,7.658024311065674,-3.538613796234131,-0.07621999830007553,-0.13719600439071655,-1.3795819282531738,120.30000305175781,-162.90000915527344,-27.30000114440918
1077624,0.9408788681030273,7.6053876876831055,-3.5954372882843018,-0.5487840175628662,0.2134159952402115,-0.4192099869251251,117.9000015258789,-158.10000610351562,-27.30000114440918
1077646,1.1197236776351929,8.579164505004883,-3.752748966217041,0.02286599949002266,0.228659987449646,0.6631140112876892,127.50000762939453,-158.10000610351562,-25.500001907348633
1077666,1.043161392211914,8.391945838928223,-3.6474759578704834,-0.3582339882850647,-0.6707359552383423,0.038109999150037766,122.70000457763672,-153.3000030517578,-24.900001525878906
1077688,1.0258152484893799,7.902665138244629,-3.1372599601745605,-0.20579399168491364,-0.9070180058479309,0.4878079891204834,125.10000610351562,-162.90000915527344,-27.900001525878906
1077708,1.0389742851257324,8.96137809753418,-3.233560800552368,0.2743920087814331,-0.5945159792900085,0.6707359552383423,125.10000610351562,-160.5,-26.100000381469727
1077728,0.8804664611816406,9.619335174560547,-3.270047664642334,-0.2591480016708374,-0.3048799932003021,0.3201240003108978,117.9000015258789,-160.5,-27.30000114440918
1077749,0.9965062141418457,10.589523315429688,-3.4566681385040283,-0.5030519962310791,-0.3887220025062561,-0.3277460038661957,125.10000610351562,-153.3000030517578,-27.900001525878906
1077769,0.5873764157295227,9.22635555267334,-3.0301923751831055,-1.2500079870224,-0.5182960033416748,-1.6920839548110962,125.10000610351562,-158.10000610351562,-26.700000762939453
1077789,0.007775858510285616,8.37280559539795,-2.5893609523773193,-1.1356779336929321,-0.28201398253440857,-1.3872039318084717,127.50000762939453,-160.5,-27.30000114440918
1077813,-0.06160872429609299,9.05708122253418,-2.7502613067626953,-0.44969800114631653,0.19054999947547913,-0.7317119836807251,125.10000610351562,-160.5,-26.700000762939453
1077833,-0.3810170590877533,9.319665908813477,-2.897404670715332,-0.5564059615135193,0.1295740008354187,-1.0594580173492432,122.70000457763672,-153.3000030517578,-27.30000114440918
1077855,-0.30923992395401,9.448864936828613,-2.668315887451172,-0.19054999947547913,-0.23628199100494385,-1.371959924697876,125.10000610351562,-158.10000610351562,-26.100000381469727
1077875,-0.34692293405532837,9.598998069763184,-2.5821831226348877,-0.3048799932003021,0.06859800219535828,-1.5853760242462158,127.50000762939453,-158.10000610351562,-27.900001525878906
1077896,-0.355895072221756,9.272412300109863,-2.6180717945098877,-0.6783579587936401,0.5259180068969727,-1.8597679138183594,125.10000610351562,-158.10000610351562,-27.900001525878906
1077957,-0.4372425079345703,8.671278953552246,-2.7197561264038086,-0.114329993724823,1.4481799602508545,-0.6478700041770935,132.3000030517578,-155.70001220703125,-26.700000762939453
1077977,-0.3182120621204376,8.80406665802002,-2.7855517864227295,0.3277460038661957,1.1814099550247192,-0.41158798336982727,134.70001220703125,-155.70001220703125,-26.700000762939453
1078001,-0.2811271846294403,8.954200744628906,-2.972172498703003,0.5411620140075684,0.9070180058479309,-0.457319974899292,132.3000030517578,-155.70001220703125,-28.500001907348633
1078021,-0.31701576709747314,9.045716285705566,-2.9608078002929688,0.6021379828453064,0.49542999267578125,-0.510673999786377,132.3000030517578,-155.70001220703125,-27.30000114440918
1078041,-0.31402507424354553,9.127063751220703,-3.2126259803771973,0.3582339882850647,-0.007621999830007553,-0.7850660085678101,129.90000915527344,-158.10000610351562,-26.700000762939453
1078061,-0.41989636421203613,8.878235816955566,-3.2509069442749023,0.2134159952402115,-0.41158798336982727,-0.7545779943466187,129.90000915527344,-158.10000610351562,-24.900001525878906
1078083,-0.3086417615413666,9.27420711517334,-3.410611152648926,0.5487840175628662,-0.853663980960846,-0.5335400104522705,132.3000030517578,-155.70001220703125,-26.700000762939453
1078104,-0.19918161630630493,9.167139053344727,-3.2772252559661865,0.18292799592018127,-0.8993960022926331,-0.5792719721794128,127.50000762939453,-158.10000610351562,-26.100000381469727
1078124,-0.12321744859218597,9.173120498657227,-3.257486581802368,-0.007621999830007553,-0.7698220014572144,-0.5335400104522705,132.3000030517578,-153.3000030517578,-26.100000381469727
1078144,-0.1381710320711136,9.037342071533203,-3.332254409790039,-0.2743920087814331,-0.5564059615135193,-0.5182960033416748,132.3000030517578,-158.10000610351562,-26.100000381469727
1078164,-0.17166703939437866,8.993678092956543,-3.326272964477539,-0.23628199100494385,-0.5259180068969727,-0.5030519962310791,129.90000915527344,-153.3000030517578,-26.100000381469727
1078206,0.0957028716802597,8.84773063659668,-3.162381887435913,-0.510673999786377,-0.5640279650688171,-0.6631140112876892,132.3000030517578,-153.3000030517578,-26.700000762939453
1078227,0.17106889188289642,8.74425220489502,-3.2269814014434814,-0.5030519962310791,-0.3277460038661957,-0.685979962348938,129.90000915527344,-158.10000610351562,-27.30000114440918
1078247,0.38759663701057434,8.999659538269043,-3.446499824523926,-0.20579399168491364,-0.2743920087814331,-0.7317119836807251,134.70001220703125,-148.5,-27.30000114440918
1078267,0.6280501484870911,8.617445945739746,-3.171952247619629,-0.5792719721794128,-0.3125019967556,-1.067080020904541,132.3000030517578,-155.70001220703125,-25.500001907348633
1078288,0.6687238216400146,8.573183059692383,-3.102567672729492,-0.5259180068969727,-0.1600620001554489,-1.021347999572754,132.3000030517578,-150.90000915527344,-26.100000381469727
1078328,0.61548912525177,8.618043899536133,-3.027799606323242,-0.8384199738502502,0.6478700041770935,-1.1814099550247192,132.3000030517578,-148.5,-26.700000762939453
1078348,0.5556747913360596,8.77116870880127,-3.1103434562683105,-0.6783579587936401,0.7698220014572144,-1.3338500261306763,144.3000030517578,-146.10000610351562,-26.100000381469727
1078369,0.19678904116153717,8.562417030334473,-3.0750529766082764,-0.5868939757347107,0.8155539631843567,-1.92836594581604,139.5,-155.70001220703125,-27.30000114440918
1078389,0.20097604393959045,9.120484352111816,-3.449490547180176,0.1448179930448532,0.7469559907913208,-1.92836594581604,141.90000915527344,-150.90000915527344,-26.700000762939453
1078409,0.022131290286779404,9.092370986938477,-3.5302398204803467,0.19817200303077698,0.35061198472976685,-2.2637338638305664,139.5,-150.90000915527344,-26.700000762939453
1078429,-0.023925717920064926,9.07203483581543,-3.4656403064727783,0.3048799932003021,-0.060975998640060425,-2.225623846054077,141.90000915527344,-148.5,-26.100000381469727
1078453,-0.07895487546920776,8.65153980255127,-3.42496657371521,-0.007621999830007553,-0.25152599811553955,-1.9664759635925293,144.3000030517578,-143.70001220703125,-25.500001907348633
1078473,-0.15252645313739777,8.612062454223633,-3.5751004219055176,-0.02286599949002266,-0.3277460038661957,-1.5472660064697266,156.3000030517578,-146.10000610351562,-26.700000762939453
1078493,-0.20037789642810822,8.659914016723633,-3.5930447578430176,0.15243999660015106,-0.5868939757347107,-0.9908599853515625,151.5,-146.10000610351562,-26.700000762939453
1078513,0.007775858510285616,9.393835067749023,-3.821535348892212,0.685979962348938,-0.7164679765701294,-0.38109999895095825,153.90000915527344,-153.3000030517578,-27.30000114440918
1078533,0.11962859332561493,9.75511360168457,-3.8017966747283936,0.6707359552383423,-1.14329993724823,-0.3734779953956604,158.70001220703125,-153.3000030517578,-27.30000114440918
1078554,-0.051440294831991196,9.57088565826416,-3.362161636352539,0.33536797761917114,-1.2652519941329956,-0.3582339882850647,146.70001220703125,-155.70001220703125,-24.900001525878906
1078574,-0.6489851474761963,9.775450706481934,-3.1187174320220947,-0.060975998640060425,-0.5792719721794128,-0.5411620140075684,156.3000030517578,-150.90000915527344,-25.500001907348633
1078594,-1.1556122303009033,9.849021911621094,-3.0810344219207764,-0.739333987236023,-0.18292799592018127,-1.1509219408035278,156.3000030517578,-146.10000610351562,-27.30000114440918
1078614,-1.429561734199524,9.506884574890137,-2.736504077911377,-1.021347999572754,0.060975998640060425,-1.6920839548110962,156.3000030517578,-148.5,-27.30000114440918
1078637,-1.9068797826766968,8.694605827331543,-2.5702202320098877,-1.3490939140319824,0.7545779943466187,-1.9969639778137207,156.3000030517578,-143.70001220703125,-26.700000762939453
1078657,-2.524163246154785,8.144912719726562,-2.6126885414123535,-0.7621999979019165,1.0442140102386475,-1.7149499654769897,156.3000030517578,-143.70001220703125,-26.100000381469727
1078677,-2.772392749786377,8.739466667175293,-2.7580373287200928,0.228659987449646,1.2118979692459106,-0.7012239694595337,158.70001220703125,-143.70001220703125,-26.100000381469727
1078699,-2.9757611751556396,8.091079711914062,-2.6665213108062744,0.07621999830007553,0.038109999150037766,-1.0899460315704346,163.5,-148.5,-26.700000762939453
1078720,-3.1252970695495605,8.051004409790039,-2.7705981731414795,0.5030519962310791,-0.015243999660015106,-0.4344539940357208,153.90000915527344,-146.10000610351562,-26.100000381469727
1078741,-2.9530317783355713,8.1664457321167,-2.932694911956787,0.4725639820098877,0.13719600439071655,-0.10670799762010574,158.70001220703125,-141.3000030517578,-24.30000114440918
1078761,-2.095294713973999,8.857300758361816,-2.9733686447143555,0.48018598556518555,-0.10670799762010574,0.33536797761917114,161.10000610351562,-146.10000610351562,-26.100000381469727
1078781,-1.6221637725830078,8.734084129333496,-2.8447680473327637,-0.3887220025062561,0.3277460038661957,0.25152599811553955,158.70001220703125,-148.5,-26.100000381469727
1078801,-1.021030068397522,9.21738338470459,-2.935685634613037,-0.5182960033416748,0.8460419774055481,0.6936019659042358,156.3000030517578,-148.5,-26.100000381469727
1078885,-0.0065795728005468845,9.414172172546387,-3.3256750106811523,0.030487999320030212,1.4862899780273438,0.02286599949002266,158.70001220703125,-146.10000610351562,-27.30000114440918
1078915,-0.033496007323265076,9.58583927154541,-3.70190691947937,0.1448179930448532,1.3414719104766846,-0.6554920077323914,151.5,-148.5,-24.900001525878906
1078935,-0.41989636421203613,8.76219654083252,-3.826918840408325,-0.10670799762010574,1.0823240280151367,-0.9375059604644775,158.70001220703125,-148.5,-25.500001907348633
1078975,-0.48748651146888733,8.604286193847656,-4.210926532745361,0.426831990480423,-0.16768398880958557,0.2591480016708374,158.70001220703125,-143.70001220703125,-23.700000762939453
1078995,-0.4462146461009979,8.68443775177002,-4.229468822479248,0.25152599811553955,-0.1448179930448532,0.2743920087814331,151.5,-146.10000610351562,-24.900001525878906
1079019,-0.09211401641368866,8.858497619628906,-4.246815204620361,-0.3277460038661957,-0.038109999150037766,-0.10670799762010574,153.90000915527344,-148.5,-24.900001525878906
1079039,0.2165277600288391,8.964966773986816,-4.075148105621338,-0.6097599864006042,0.4420759975910187,-0.17530599236488342,153.90000915527344,-141.3000030517578,-26.100000381469727
1079059,0.40972793102264404,8.954798698425293,-3.993800640106201,-1.2118979692459106,1.2728739976882935,-0.35061198472976685,153.90000915527344,-146.10000610351562,-24.900001525878906
1079080,0.39836323261260986,8.893189430236816,-4.100868225097656,-1.646351933479309,2.1722700595855713,-0.5564059615135193,153.90000915527344,-148.5,-24.30000114440918
1079100,0.518589973449707,8.743654251098633,-4.25160026550293,-1.707327961921692,2.8734939098358154,-0.9603719711303711,153.90000915527344,-141.3000030517578,-26.700000762939453
1079120,0.9223364591598511,8.578566551208496,-4.342517852783203,-2.0122079849243164,3.4222779273986816,-1.6082419157028198,156.3000030517578,-143.70001220703125,-23.700000762939453
1079140,1.3864953517913818,7.991788387298584,-4.541699409484863,-2.4542839527130127,4.306429862976074,-2.7591638565063477,161.10000610351562,-143.70001220703125,-24.30000114440918
1079163,1.9248241186141968,7.408000469207764,-4.6888427734375,-2.28659987449646,4.413137912750244,-3.2850818634033203,158.70001220703125,-138.90000915527344,-27.30000114440918
1079183,2.149725914001465,6.599311351776123,-4.22169303894043,-3.2774598598480225,4.268320083618164,-4.519845962524414,163.5,-138.90000915527344,-27.30000114440918
1079203,2.6390068531036377,5.923409938812256,-4.106849670410156,-2.446661949157715,4.725639820098877,-5.792719841003418,168.3000030517578,-141.3000030517578,-26.700000762939453
