time,sensor_accX[g],sensor_accY[g],sensor_accZ[g],sensor_gyroX[°/s],sensor_gyroY[°/s],sensor_gyroZ[°/s],sensor_magX[µT],sensor_magY[µT],sensor_magZ[µT]
181230,0.3475210666656494,9.11569881439209,-2.780766725540161,-0.3048799932003021,0.5868939757347107,-0.02286599949002266,67.5,-172.5,-42.30000305175781
181250,0.406139075756073,9.174317359924316,-2.739494800567627,-0.2896359860897064,0.6173819899559021,-0.1448179930448532,62.70000076293945,-179.70001220703125,-41.10000228881836
181271,0.353502482175827,8.961976051330566,-2.762822389602661,-0.36585599184036255,0.6631140112876892,-0.228659987449646,65.10000610351562,-174.90000915527344,-40.5
181291,0.35410064458847046,9.055286407470703,-2.899797201156616,-0.2439039945602417,0.5792719721794128,-0.1600620001554489,65.10000610351562,-174.90000915527344,-41.70000076293945
181353,0.4976549446582794,9.297533988952637,-2.6892507076263428,-0.5182960033416748,0.41158798336982727,-0.4344539940357208,67.5,-172.5,-40.5
181409,0.258995920419693,9.131250381469727,-2.6964285373687744,-0.4039659798145294,0.5792719721794128,-0.3734779953956604,69.9000015258789,-174.90000915527344,-41.70000076293945
181430,0.23507018387317657,9.079212188720703,-2.700615406036377,-0.2743920087814331,0.5564059615135193,-0.36585599184036255,67.5,-177.3000030517578,-40.5
181470,0.19738717377185822,9.06485652923584,-2.819645881652832,0.02286599949002266,0.8155539631843567,-0.13719600439071655,67.5,-179.70001220703125,-41.10000228881836
181513,-0.08732887357473373,8.724513053894043,-2.9165451526641846,0.15243999660015106,1.0899460315704346,-0.1295740008354187,67.5,-179.70001220703125,-41.70000076293945
181533,-0.14175988733768463,8.807655334472656,-3.141446828842163,0.5030519962310791,1.196653962135315,0.23628199100494385,69.9000015258789,-179.70001220703125,-41.70000076293945
181553,-0.020935004577040672,9.51824951171875,-3.0630900859832764,0.6936019659042358,1.14329993724823,0.3887220025062561,67.5,-179.70001220703125,-40.5
181573,-0.06699201464653015,9.75511360168457,-2.874077081680298,0.5335400104522705,1.699705958366394,-0.10670799762010574,65.10000610351562,-179.70001220703125,-38.70000076293945
181637,-0.28890305757522583,9.08878231048584,-2.9889204502105713,0.8917739987373352,4.53508996963501,-0.9375059604644775,72.30000305175781,-174.90000915527344,-39.30000305175781
181657,-0.25361260771751404,8.947022438049316,-3.036771774291992,1.1128119230270386,5.472595691680908,-0.8307979702949524,72.30000305175781,-174.90000915527344,-38.70000076293945
181697,-0.3313712179660797,9.165943145751953,-3.3214879035949707,1.2728739976882935,6.5320539474487305,0.1295740008354187,65.10000610351562,-174.90000915527344,-37.5
181717,-0.23507018387317657,9.1922607421875,-3.264066219329834,0.8765299916267395,6.402479648590088,0.2591480016708374,72.30000305175781,-179.70001220703125,-38.10000228881836
181740,0.032299719750881195,8.98530387878418,-3.118119239807129,0.5868939757347107,6.135709762573242,0.35061198472976685,69.9000015258789,-177.3000030517578,-36.900001525878906
181760,0.22191104292869568,8.78014087677002,-3.0415570735931396,0.4192099869251251,5.746987819671631,0.5335400104522705,67.5,-174.90000915527344,-36.30000305175781
181780,0.3858022093772888,8.671876907348633,-3.0684733390808105,0.41158798336982727,5.2058258056640625,0.685979962348938,69.9000015258789,-177.3000030517578,-36.30000305175781
181820,0.7931375503540039,8.962574005126953,-3.0929973125457764,0.5411620140075684,3.810999870300293,0.4420759975910187,69.9000015258789,-177.3000030517578,-36.30000305175781
181840,0.9037940502166748,8.891395568847656,-2.980546474456787,0.5792719721794128,3.2317278385162354,0.114329993724823,65.10000610351562,-177.3000030517578,-35.70000076293945
181863,1.0258152484893799,8.956592559814453,-2.891423225402832,0.5945159792900085,2.850627899169922,-0.228659987449646,67.5,-172.5,-35.10000228881836
181883,1.0784517526626587,9.241907119750977,-2.9231247901916504,0.46494197845458984,2.8201398849487305,-0.1600620001554489,62.70000076293945,-177.3000030517578,-35.70000076293945
181903,0.9953098893165588,9.165943145751953,-2.9584150314331055,0.28201398253440857,2.743919849395752,-0.25152599811553955,62.70000076293945,-172.5,-36.30000305175781
181923,0.9558324813842773,9.306506156921387,-3.058903217315674,0.4192099869251251,2.8048958778381348,-0.4344539940357208,67.5,-177.3000030517578,-33.900001525878906
181947,0.9953098893165588,9.753917694091797,-3.048734664916992,0.4039659798145294,2.8201398849487305,-0.7621999979019165,69.9000015258789,-177.3000030517578,-34.5
182007,1.436739444732666,9.27301025390625,-2.852543830871582,0.13719600439071655,4.6951518058776855,-2.3094658851623535,74.70000457763672,-177.3000030517578,-33.900001525878906
182067,1.6945390701293945,8.315383911132812,-2.790336847305298,1.2804960012435913,9.519877433776855,-2.4085519313812256,77.10000610351562,-174.90000915527344,-32.10000228881836
182090,1.1986784934997559,7.940946102142334,-3.814955949783325,1.653973937034607,11.89031982421875,-1.653973937034607,74.70000457763672,-177.3000030517578,-32.10000228881836
182131,0.7931375503540039,8.47927474975586,-4.023109436035156,0.571649968624115,12.187578201293945,-0.8841519951820374,77.10000610351562,-172.5,-29.700000762939453
182151,0.4725329577922821,8.496023178100586,-4.198963642120361,-0.015243999660015106,11.905563354492188,-1.6615959405899048,72.30000305175781,-167.70001220703125,-30.30000114440918
182171,0.12321744859218597,8.446974754333496,-4.47470760345459,-0.1448179930448532,10.259211540222168,-1.8597679138183594,81.9000015258789,-172.5,-32.10000228881836
182214,-0.2679680585861206,8.274709701538086,-4.9526238441467285,-0.41158798336982727,7.766818046569824,-2.1570260524749756,77.10000610351562,-174.90000915527344,-29.100000381469727
182250,-0.2763420641422272,8.534303665161133,-4.900585174560547,-0.3125019967556,3.803377866744995,-1.600619912147522,79.5,-170.10000610351562,-29.100000381469727
182270,-0.08134744316339493,8.433218002319336,-4.771984577178955,-0.571649968624115,2.5533699989318848,-1.4024479389190674,86.70000457763672,-167.70001220703125,-29.100000381469727
182290,0.16508746147155762,8.391347885131836,-4.71875,-0.46494197845458984,1.4405579566955566,-0.9222619533538818,79.5,-167.70001220703125,-29.100000381469727
182310,0.6238631010055542,8.688026428222656,-4.541101455688477,-0.23628199100494385,0.1295740008354187,-0.23628199100494385,84.30000305175781,-165.3000030517578,-29.100000381469727
182331,1.0557223558425903,8.75023365020752,-4.174439907073975,-0.3734779953956604,-0.5640279650688171,0.1295740008354187,84.30000305175781,-174.90000915527344,-28.500001907348633
182351,1.4708335399627686,9.04810905456543,-4.045838832855225,-0.6631140112876892,-0.853663980960846,0.6402480006217957,79.5,-165.3000030517578,-29.700000762939453
182371,1.7722976207733154,9.281982421875,-3.800002336502075,-1.0518360137939453,-1.3109840154647827,0.853663980960846,81.9000015258789,-167.70001220703125,-27.30000114440918
182395,2.026508331298828,9.108521461486816,-3.4919586181640625,-1.7301939725875854,-1.6920839548110962,1.0975680351257324,79.5,-165.3000030517578,-29.700000762939453
182415,2.0827338695526123,8.780738830566406,-3.22578501701355,-2.339953899383545,-1.6158639192581177,1.3948259353637695,84.30000305175781,-172.5,-29.700000762939453
182435,2.1000800132751465,8.828590393066406,-3.0828287601470947,-2.4085519313812256,-1.7911700010299683,1.6844619512557983,77.10000610351562,-174.90000915527344,-30.900001525878906
182455,2.160492420196533,8.87763786315918,-2.766411304473877,-2.385685920715332,-2.187514066696167,1.5091559886932373,84.30000305175781,-162.90000915527344,-29.100000381469727
182475,2.1533145904541016,8.680251121520996,-2.509807825088501,-2.4237959384918213,-2.2103798389434814,1.067080020904541,74.70000457763672,-170.10000610351562,-30.900001525878906
182496,2.2364566326141357,8.774757385253906,-2.3237855434417725,-2.2027578353881836,-2.690565824508667,1.0061039924621582,72.30000305175781,-172.5,-32.10000228881836
182516,2.166473865509033,8.36562728881836,-2.014545440673828,-2.644834041595459,-2.850627899169922,0.8307979702949524,72.30000305175781,-167.70001220703125,-32.70000076293945
182536,2.0229194164276123,8.110818862915039,-2.038471221923828,-2.682943820953369,-3.567095994949341,1.478667974472046,72.30000305175781,-172.5,-32.10000228881836
182556,2.045050859451294,8.294448852539062,-1.9822458028793335,-2.4237959384918213,-4.077769756317139,1.7987920045852661,69.9000015258789,-172.5,-32.70000076293945
182576,2.1299872398376465,8.63778305053711,-1.8650097846984863,-2.4009299278259277,-5.190581798553467,2.126538038253784,65.10000610351562,-167.70001220703125,-33.30000305175781
182596,2.42905855178833,8.885414123535156,-1.522871971130371,-2.339953899383545,-6.9360198974609375,2.4161739349365234,62.70000076293945,-172.5,-34.5
182677,3.8466575145721436,10.157065391540527,-0.5963485240936279,-2.0503180027008057,-9.893355369567871,2.1112940311431885,57.900001525878906,-167.70001220703125,-38.70000076293945
182701,4.265357494354248,10.5649995803833,-0.22430361807346344,-2.0198299884796143,-9.733293533325195,1.707327961921692,55.500003814697266,-177.3000030517578,-38.10000228881836
182721,4.219898700714111,10.14271068572998,0.1561153084039688,-2.179892063140869,-8.529017448425293,0.8155539631843567,55.500003814697266,-182.10000610351562,-38.10000228881836
182741,3.9238178730010986,9.758702278137207,0.04725329577922821,-1.8673899173736572,-7.317119598388672,0.457319974899292,57.900001525878906,-174.90000915527344,-39.30000305175781
182765,3.871779441833496,10.004539489746094,0.0059814294800162315,-1.2118979692459106,-6.478699684143066,0.030487999320030212,48.30000305175781,-172.5,-38.70000076293945
182785,3.883742332458496,10.13971996307373,-0.022729432210326195,-1.0061039924621582,-6.242417812347412,-0.16768398880958557,50.70000076293945,-172.5,-39.900001525878906
182807,3.7180566787719727,9.520641326904297,0.4426257908344269,-0.8917739987373352,-5.289668083190918,-0.6326259970664978,53.10000228881836,-177.3000030517578,-39.900001525878906
182827,3.535623073577881,9.26702880859375,0.5586655139923096,-0.7698220014572144,-4.413137912750244,-0.6402480006217957,55.500003814697266,-177.3000030517578,-39.900001525878906
182849,3.2538976669311523,8.578566551208496,0.5538803935050964,-0.8079319596290588,-3.4680099487304688,-0.853663980960846,53.10000228881836,-179.70001220703125,-40.5
182869,3.1785316467285156,8.255569458007812,0.5347397923469543,-0.39634400606155396,-2.843005895614624,-0.6021379828453064,53.10000228881836,-170.10000610351562,-39.30000305175781
182889,3.252103328704834,8.35964584350586,0.46415895223617554,0.3734779953956604,-2.3551979064941406,-0.23628199100494385,55.500003814697266,-174.90000915527344,-39.900001525878906
182909,3.0834269523620605,8.47030258178711,0.1573116034269333,1.0518360137939453,-1.8978779315948486,0.1448179930448532,60.30000305175781,-172.5,-39.30000305175781
182930,2.947648525238037,8.958985328674316,-0.15790975093841553,1.9054999351501465,-1.8521459102630615,0.18292799592018127,57.900001525878906,-167.70001220703125,-41.10000228881836
182950,2.924320936203003,9.140222549438477,-0.4617663621902466,2.187514066696167,-1.5929979085922241,-0.3582339882850647,57.900001525878906,-172.5,-39.30000305175781
182974,2.423675298690796,9.261645317077637,-1.2226042747497559,2.545747995376587,-1.021347999572754,-1.5472660064697266,55.500003814697266,-177.3000030517578,-38.70000076293945
182994,2.1802310943603516,9.253870010375977,-1.502535104751587,2.637212038040161,-0.7545779943466187,-1.8978779315948486,57.900001525878906,-179.70001220703125,-37.5
183014,1.520479440689087,9.147400856018066,-2.0486397743225098,2.2180018424987793,0.46494197845458984,-2.2027578353881836,57.900001525878906,-172.5,-38.70000076293945
183035,1.0539278984069824,10.021885871887207,-2.825627326965332,2.7210538387298584,0.6936019659042358,-2.1722700595855713,57.900001525878906,-174.90000915527344,-36.900001525878906
183055,0.9073829054832458,10.009324073791504,-2.3919737339019775,2.7591638565063477,0.19817200303077698,-2.644834041595459,67.5,-172.5,-37.5
183075,0.6812848448753357,8.97035026550293,-2.348309278488159,1.875011920928955,1.5625100135803223,-2.6295900344848633,65.10000610351562,-174.90000915527344,-35.70000076293945
183095,0.5748153924942017,8.924293518066406,-3.264066219329834,2.5609920024871826,2.7591638565063477,-1.5929979085922241,69.9000015258789,-172.5,-33.900001525878906
183119,0.5305528044700623,9.60079288482666,-4.102064609527588,3.9405739307403564,2.5152599811553955,-0.6707359552383423,62.70000076293945,-172.5,-33.900001525878906
183139,0.596946656703949,10.443575859069824,-4.234253883361816,4.123501777648926,1.9512319564819336,-0.25152599811553955,62.70000076293945,-172.5,-33.900001525878906
183159,0.6358259916305542,11.164937019348145,-4.557251453399658,3.3155698776245117,2.6143460273742676,-1.3872039318084717,67.5,-167.70001220703125,-32.70000076293945
183179,0.20635932683944702,10.237814903259277,-5.156590461730957,2.644834041595459,3.7805118560791016,-3.155508041381836,67.5,-174.90000915527344,-32.70000076293945
183199,-0.01794428937137127,9.64565372467041,-6.2464070320129395,2.896359920501709,4.778994083404541,-3.2622158527374268,69.9000015258789,-170.10000610351562,-29.700000762939453
183219,0.19200389087200165,9.3238525390625,-6.87684965133667,2.5762360095977783,3.5289859771728516,-2.431417942047119,77.10000610351562,-167.70001220703125,-30.900001525878906
183243,1.1550140380859375,10.519540786743164,-6.324763774871826,1.2271419763565063,1.8521459102630615,-0.967993974685669,77.10000610351562,-172.5,-29.100000381469727
183263,1.1442475318908691,9.87773323059082,-6.83497953414917,0.28201398253440857,3.2241058349609375,-1.882633924484253,77.10000610351562,-170.10000610351562,-30.900001525878906
183283,2.1539127826690674,10.677450180053711,-7.472002029418945,0.9070180058479309,3.0640439987182617,-1.0518360137939453,74.70000457763672,-167.70001220703125,-30.30000114440918
183323,2.1778385639190674,10.588326454162598,-7.375102996826172,-0.8993960022926331,3.3384358882904053,-3.201239824295044,81.9000015258789,-170.10000610351562,-28.500001907348633
183343,2.2908875942230225,10.4573335647583,-8.002554893493652,-0.3201240003108978,4.07014799118042,-3.650938034057617,79.5,-162.90000915527344,-28.500001907348633
183363,2.337542772293091,10.861678123474121,-8.138931274414062,-0.35061198472976685,3.300325870513916,-3.5899620056152344,86.70000457763672,-167.70001220703125,-30.900001525878906
183385,2.27473783493042,10.745039939880371,-8.213101387023926,-0.09146399796009064,3.6738038063049316,-3.9253299236297607,84.30000305175781,-172.5,-28.500001907348633
183446,1.506722092628479,10.16065502166748,-7.156182289123535,-0.7317119836807251,5.388753890991211,-4.847591876983643,103.50000762939453,-167.70001220703125,-27.30000114440918
183466,1.1879119873046875,9.691112518310547,-6.230257034301758,-1.5701320171356201,6.394857883453369,-5.731743812561035,101.10000610351562,-167.70001220703125,-27.900001525878906
183486,0.8583351373672485,9.329236030578613,-5.143431186676025,-2.027451992034912,7.583889961242676,-6.440589904785156,101.10000610351562,-165.3000030517578,-29.100000381469727
183506,-0.13338588178157806,8.290261268615723,-4.206141471862793,-2.2180018424987793,9.809514045715332,-7.865903854370117,115.50000762939453,-167.70001220703125,-28.500001907348633
183530,-0.9289160370826721,7.627519130706787,-4.072755336761475,-1.067080020904541,11.882698059082031,-8.262248039245605,113.10000610351562,-162.90000915527344,-27.900001525878906
183550,-1.5575642585754395,7.062273979187012,-3.705495595932007,-0.09146399796009064,12.454347610473633,-8.483285903930664,122.70000457763672,-160.5,-26.100000381469727
183570,-2.19099760055542,6.790717124938965,-3.347208023071289,0.15243999660015106,12.965022087097168,-7.896391868591309,117.9000015258789,-153.3000030517578,-25.500001907348633
183590,-2.6635305881500244,6.881634712219238,-3.225186824798584,-0.3582339882850647,13.7119779586792,-7.073215961456299,132.3000030517578,-153.3000030517578,-23.700000762939453
183610,-3.0062665939331055,7.022796630859375,-3.005070209503174,-0.9984819889068604,14.024479866027832,-6.859799861907959,129.90000915527344,-158.10000610351562,-24.900001525878906
183630,-3.63012957572937,6.459944248199463,-2.983537197113037,-1.5396440029144287,14.314115524291992,-7.294253826141357,134.70001220703125,-148.5,-21.30000114440918
183650,-4.117616176605225,5.934774398803711,-2.9793500900268555,-1.3033620119094849,13.468073844909668,-6.440589904785156,149.10000610351562,-153.3000030517578,-22.5
183670,-4.138551235198975,6.2733235359191895,-2.7317190170288086,-1.3490939140319824,12.60678768157959,-4.794238090515137,151.5,-146.10000610351562,-23.100000381469727
183693,-3.9268085956573486,7.016815185546875,-2.7353076934814453,-1.577754020690918,11.432999610900879,-3.8262438774108887,151.5,-150.90000915527344,-21.30000114440918
183713,-3.8412742614746094,6.875653266906738,-2.718559741973877,-2.0655620098114014,10.75464153289795,-3.704291820526123,149.10000610351562,-134.10000610351562,-20.700000762939453
183733,-3.6265408992767334,7.431926250457764,-2.7167654037475586,-2.088428020477295,9.961954116821289,-3.292703866958618,149.10000610351562,-146.10000610351562,-18.900001525878906
183753,-3.3543858528137207,7.19865083694458,-2.7119803428649902,-2.042695999145508,9.664695739746094,-3.5899620056152344,149.10000610351562,-146.10000610351562,-19.5
183773,-2.984135389328003,7.281792640686035,-2.5767998695373535,-1.3872039318084717,9.054935455322266,-3.6814258098602295,153.90000915527344,-146.10000610351562,-19.5
183793,-2.670708417892456,7.122686386108398,-2.1927921772003174,-0.8689079880714417,8.81865406036377,-3.7881338596343994,151.5,-146.10000610351562,-17.700000762939453
183813,-2.4182920455932617,7.406206130981445,-1.9266184568405151,-0.7621999979019165,9.024447441101074,-3.5213639736175537,149.10000610351562,-141.3000030517578,-18.30000114440918
183833,-1.9774606227874756,7.6269211769104,-1.539620041847229,-1.1814099550247192,9.82475757598877,-4.085391998291016,156.3000030517578,-138.90000915527344,-17.700000762939453
183855,-1.9337961673736572,7.320672035217285,-1.752558946609497,-1.189031958580017,11.318669319152832,-5.282045841217041,153.90000915527344,-136.5,-15.90000057220459
183875,-2.1329777240753174,6.519160270690918,-1.951142430305481,-0.4420759975910187,11.958917617797852,-6.265284061431885,153.90000915527344,-136.5,-15.300000190734863
183895,-2.1533145904541016,6.8188300132751465,-2.321392774581909,0.6707359552383423,11.821722030639648,-5.800342082977295,161.10000610351562,-126.9000015258789,-14.100000381469727
183915,-1.6191730499267578,7.7124552726745605,-2.24782133102417,1.524399995803833,10.79275131225586,-5.068629741668701,161.10000610351562,-136.5,-14.700000762939453
183936,-1.2166228294372559,8.010330200195312,-2.4218809604644775,1.2652519941329956,10.160125732421875,-4.275941848754883,163.5,-129.3000030517578,-12.300000190734863
183956,-0.10048802196979523,10.053586959838867,-2.5062191486358643,1.478667974472046,8.452797889709473,-2.7134318351745605,156.3000030517578,-122.10000610351562,-12.300000190734863
183976,1.099984884262085,10.701375961303711,-1.8853466510772705,0.038109999150037766,7.4390716552734375,-3.361301898956299,163.5,-124.50000762939453,-9.300000190734863
183998,0.9325048923492432,9.297533988952637,-2.1682682037353516,-0.8917739987373352,8.086941719055176,-4.024415969848633,161.10000610351562,-119.70000457763672,-9.90000057220459
184018,0.8385964632034302,8.986499786376953,-2.2244937419891357,-0.6554920077323914,7.233277797698975,-3.810999870300293,161.10000610351562,-126.9000015258789,-8.100000381469727
184040,1.431954264640808,10.408286094665527,-2.512798547744751,-0.13719600439071655,6.593029975891113,-3.2850818634033203,158.70001220703125,-119.70000457763672,-8.100000381469727
184060,2.0289008617401123,11.614142417907715,-2.8782639503479004,-0.16768398880958557,6.593029975891113,-3.7195358276367188,161.10000610351562,-119.70000457763672,-8.100000381469727
184082,1.5372273921966553,10.439987182617188,-3.344815492630005,0.25152599811553955,6.562541961669922,-4.923811912536621,165.90000915527344,-122.10000610351562,-5.700000286102295
184102,0.9606176018714905,9.453649520874023,-4.127784729003906,1.6311079263687134,6.143332004547119,-4.093013763427734,161.10000610351562,-117.30000305175781,-6.300000190734863
184163,0.0017944289138540626,9.060669898986816,-4.182215690612793,2.492393970489502,2.6753220558166504,-2.2713558673858643,165.90000915527344,-110.10000610351562,-5.700000286102295
184183,-0.2237054705619812,8.036648750305176,-4.306031227111816,1.699705958366394,2.39330792427063,-1.9740979671478271,165.90000915527344,-110.10000610351562,-3.9000000953674316
184203,-0.5879745483398438,6.8487372398376465,-4.382593631744385,0.9527499675750732,1.829279899597168,-1.3567159175872803,163.5,-112.50000762939453,-3.9000000953674316
184223,-0.11424531042575836,6.923504829406738,-4.3921637535095215,0.7012239694595337,0.426831990480423,0.4039659798145294,163.5,-102.9000015258789,-2.700000047683716
184243,0.4916735291481018,7.801578998565674,-4.081129550933838,0.33536797761917114,-0.7926880121231079,1.3795819282531738,163.5,-107.70000457763672,-3.9000000953674316
184263,0.9917210340499878,8.030069351196289,-4.073951721191406,-0.4192099869251251,-1.3186060190200806,1.6311079263687134,158.70001220703125,-105.30000305175781,-4.5
184283,0.9199438691139221,8.009134292602539,-4.312012672424316,-0.6250039935112,-2.042695999145508,1.806414008140564,165.90000915527344,-110.10000610351562,-2.700000047683716
184303,0.7512675523757935,7.6532392501831055,-4.529736518859863,-0.3277460038661957,-3.4375219345092773,1.8521459102630615,165.90000915527344,-105.30000305175781,-3.9000000953674316
184323,0.46236452460289,7.454655647277832,-4.743871688842773,-0.05335399881005287,-5.419241905212402,2.385685920715332,161.10000610351562,-107.70000457763672,-4.5
184345,0.37443751096725464,8.213699340820312,-5.279808044433594,0.22103799879550934,-8.033587455749512,3.1707520484924316,161.10000610351562,-110.10000610351562,-5.700000286102295
184365,0.34931549429893494,8.46133041381836,-5.543589115142822,0.4192099869251251,-11.28818130493164,3.3384358882904053,163.5,-114.9000015258789,-5.700000286102295
184385,0.9133642911911011,9.417162895202637,-5.744565010070801,0.8993960022926331,-14.45893383026123,3.9863059520721436,170.70001220703125,-114.9000015258789,-8.100000381469727
184405,1.618574857711792,9.19525146484375,-5.395249366760254,0.05335399881005287,-16.9284610748291,3.60520601272583,168.3000030517578,-114.9000015258789,-9.300000190734863
184425,1.8500561714172363,7.841654300689697,-5.064476490020752,-0.6936019659042358,-17.81261444091797,4.207344055175781,175.5,-117.30000305175781,-9.300000190734863
184445,2.40812349319458,8.025283813476562,-4.4938483238220215,-0.8689079880714417,-18.651033401489258,6.0213799476623535,173.10000610351562,-117.30000305175781,-12.90000057220459
184465,2.7550466060638428,8.2023344039917,-3.926210403442383,-2.0960500240325928,-17.652551651000977,6.509187698364258,170.70001220703125,-124.50000762939453,-14.700000762939453
184489,2.548687219619751,7.7363810539245605,-3.9208271503448486,-2.942091941833496,-14.939119338989258,5.724122047424316,170.70001220703125,-126.9000015258789,-15.300000190734863
184509,2.2011661529541016,7.613163948059082,-3.7306177616119385,-2.690565824508667,-13.849173545837402,4.9466776847839355,168.3000030517578,-129.3000030517578,-19.5
184529,1.8530468940734863,6.946234226226807,-3.457266330718994,-2.080806016921997,-11.989405632019043,3.96343994140625,168.3000030517578,-131.70001220703125,-18.900001525878906
184551,2.0133492946624756,9.134241104125977,-3.6498684883117676,-1.0823240280151367,-11.03665542602539,4.900945663452148,175.5,-131.70001220703125,-20.100000381469727
184572,1.2255949974060059,7.851224422454834,-3.076847553253174,-1.981719970703125,-9.31408405303955,2.850627899169922,168.3000030517578,-134.10000610351562,-23.100000381469727
184595,0.8547462821006775,8.515761375427246,-3.6044094562530518,-1.0365920066833496,-8.079319953918457,3.460387945175171,170.70001220703125,-136.5,-23.700000762939453
184615,0.8296242952346802,8.797487258911133,-3.48179030418396,-0.8231759667396545,-8.109807968139648,3.2850818634033203,163.5,-138.90000915527344,-24.900001525878906
184637,0.20994818210601807,9.14261531829834,-2.580986976623535,-0.6936019659042358,-7.9497456550598145,2.5000159740448,165.90000915527344,-138.90000915527344,-23.100000381469727
184658,-0.28052905201911926,8.99906063079834,-2.140155553817749,-0.7317119836807251,-6.6387619972229,1.6920839548110962,168.3000030517578,-136.5,-25.500001907348633
184678,-0.7769877314567566,10.254563331604004,-2.107257604598999,-0.7469559907913208,-5.823207855224609,1.0442140102386475,168.3000030517578,-138.90000915527344,-26.100000381469727
184698,-1.027011513710022,10.503390312194824,-1.749568223953247,-1.1737879514694214,-5.030519962310791,0.2743920087814331,165.90000915527344,-141.3000030517578,-28.500001907348633
184718,-1.6341265439987183,10.501596450805664,-1.6514726877212524,-1.524399995803833,-4.344540119171143,0.2743920087814331,163.5,-146.10000610351562,-26.100000381469727
184738,-2.119220495223999,10.512362480163574,-1.0599093437194824,-1.8597679138183594,-4.146368026733398,0.35061198472976685,165.90000915527344,-138.90000915527344,-27.900001525878906
184760,-3.0421552658081055,10.626607894897461,-0.903195858001709,-1.699705958366394,-3.3308138847351074,-0.3048799932003021,165.90000915527344,-141.3000030517578,-27.30000114440918
184823,-2.2496156692504883,10.395126342773438,0.17106889188289642,-1.5929979085922241,-2.5152599811553955,-0.571649968624115,170.70001220703125,-146.10000610351562,-30.900001525878906
184844,-1.9032909870147705,9.710850715637207,0.2117426097393036,-1.6768399477005005,-1.524399995803833,0.571649968624115,163.5,-141.3000030517578,-29.700000762939453
184865,-1.512703537940979,9.3118896484375,-0.04545886442065239,-1.4558019638061523,-1.0518360137939453,1.5167779922485352,161.10000610351562,-143.70001220703125,-30.900001525878906
184885,-1.2907925844192505,9.140820503234863,-0.4270740747451782,-1.0594580173492432,-0.914639949798584,2.1722700595855713,165.90000915527344,-138.90000915527344,-33.30000305175781
184905,-0.7440898418426514,9.28317928314209,-0.38340964913368225,-1.0289700031280518,-1.2576299905776978,2.5152599811553955,165.90000915527344,-141.3000030517578,-31.500001907348633
184925,-0.33196935057640076,9.568492889404297,-0.4683459401130676,-1.2500079870224,-0.800309956073761,2.28659987449646,158.70001220703125,-143.70001220703125,-33.30000305175781
184948,-0.09031958878040314,9.173718452453613,-0.6400129795074463,-1.4939119815826416,-0.2134159952402115,1.806414008140564,161.10000610351562,-141.3000030517578,-34.5
185010,0.32000648975372314,9.995567321777344,-1.5450032949447632,-0.114329993724823,0.35061198472976685,2.28659987449646,151.5,-148.5,-32.70000076293945
185071,0.2398553341627121,9.826292991638184,-1.3446253538131714,0.2439039945602417,1.1509219408035278,1.3414719104766846,141.90000915527344,-148.5,-32.70000076293945
185112,-0.2763420641422272,9.619933128356934,-1.4570763111114502,0.1448179930448532,1.5548880100250244,0.6250039935112,144.3000030517578,-150.90000915527344,-32.10000228881836
185132,-0.3104361891746521,9.548754692077637,-1.2537076473236084,0.15243999660015106,1.524399995803833,0.2743920087814331,149.10000610351562,-153.3000030517578,-30.900001525878906
185152,-0.4515979290008545,8.835169792175293,-1.4050378799438477,0.16768398880958557,1.8902559280395508,0.2972579896450043,151.5,-153.3000030517578,-32.10000228881836
185194,0.22250919044017792,10.047605514526367,-2.1886050701141357,1.5091559886932373,1.646351933479309,2.225623846054077,146.70001220703125,-153.3000030517578,-29.700000762939453
185215,0.6543684005737305,10.493820190429688,-2.393768072128296,1.3948259353637695,0.9298839569091797,1.875011920928955,141.90000915527344,-150.90000915527344,-29.100000381469727
185235,0.4504016637802124,8.859095573425293,-1.8973095417022705,1.0289700031280518,0.6402480006217957,1.417691946029663,139.5,-153.3000030517578,-30.900001525878906
185255,0.49047723412513733,8.75322437286377,-2.319000244140625,1.3948259353637695,0.8765299916267395,2.0122079849243164,144.3000030517578,-153.3000030517578,-29.700000762939453
185275,0.362474650144577,9.43929386138916,-2.4404232501983643,1.4481799602508545,0.4039659798145294,1.92836594581604,137.10000610351562,-153.3000030517578,-29.700000762939453
185295,0.4139149487018585,9.844237327575684,-2.650371551513672,1.2728739976882935,0.228659987449646,1.0899460315704346,137.10000610351562,-153.3000030517578,-28.500001907348633
185315,0.4886828064918518,9.800572395324707,-2.6061089038848877,0.967993974685669,0.09908600151538849,-0.07621999830007553,137.10000610351562,-155.70001220703125,-29.100000381469727
185335,0.48928093910217285,9.07203483581543,-2.5827813148498535,0.6250039935112,0.22103799879550934,-0.7774440050125122,132.3000030517578,-146.10000610351562,-28.500001907348633
185375,0.49526238441467285,8.83995532989502,-2.6515676975250244,0.38109999895095825,0.2743920087814331,-0.5564059615135193,137.10000610351562,-150.90000915527344,-27.900001525878906
185395,0.44083136320114136,8.893787384033203,-2.759831666946411,0.2896359860897064,0.3734779953956604,-0.5182960033416748,129.90000915527344,-158.10000610351562,-27.30000114440918
185415,0.521580696105957,8.85789966583252,-2.6222589015960693,0.1600620001554489,0.2439039945602417,-0.5564059615135193,134.70001220703125,-153.3000030517578,-28.500001907348633
185436,0.3750356435775757,8.152688980102539,-2.5654351711273193,-0.114329993724823,0.7012239694595337,-0.9070180058479309,134.70001220703125,-153.3000030517578,-27.900001525878906
185456,0.37862449884414673,8.043827056884766,-2.611492156982422,-0.18292799592018127,0.967993974685669,-0.7850660085678101,137.10000610351562,-155.70001220703125,-27.30000114440918
185476,0.46116822957992554,8.39074993133545,-2.936283826828003,-0.4725639820098877,1.2804960012435913,-0.6097599864006042,139.5,-150.90000915527344,-27.30000114440918
185498,0.6717145442962646,9.03913688659668,-3.192289113998413,-0.39634400606155396,1.699705958366394,-0.6326259970664978,139.5,-153.3000030517578,-26.700000762939453
185518,1.0963960886001587,10.20431900024414,-3.67798113822937,0.12195199728012085,1.8673899173736572,-0.426831990480423,137.10000610351562,-146.10000610351562,-27.30000114440918
185540,0.8194558620452881,9.548754692077637,-3.7419824600219727,0.2972579896450043,0.9451279640197754,-1.3186060190200806,134.70001220703125,-150.90000915527344,-26.100000381469727
185560,0.8314187526702881,9.5032958984375,-3.7629175186157227,0.6554920077323914,0.8307979702949524,-1.0747020244598389,137.10000610351562,-153.3000030517578,-25.500001907348633
185580,0.7446879744529724,9.97941780090332,-3.7868430614471436,1.1509219408035278,0.457319974899292,-1.3643379211425781,141.90000915527344,-148.5,-26.100000381469727
185642,0.8720924258232117,8.411086082458496,-3.2419350147247314,0.8765299916267395,0.3201240003108978,-1.4939119815826416,141.90000915527344,-143.70001220703125,-24.30000114440918
185803,0.9145606160163879,8.59471607208252,-2.9614057540893555,-0.5030519962310791,1.0594580173492432,-0.2972579896450043,141.90000915527344,-150.90000915527344,-24.900001525878906
185849,0.8469704389572144,9.234729766845703,-3.0062665939331055,-0.2972579896450043,0.8993960022926331,-0.8155539631843567,139.5,-153.3000030517578,-25.500001907348633
185869,0.6513776779174805,9.04691219329834,-3.108549118041992,-0.44969800114631653,1.0061039924621582,-1.1051899194717407,137.10000610351562,-146.10000610351562,-24.30000114440918
185889,0.5108140707015991,9.012818336486816,-3.20185923576355,-0.33536797761917114,0.9222619533538818,-1.1128119230270386,144.3000030517578,-148.5,-24.900001525878906
185909,0.4713366627693176,9.155774116516113,-3.1916909217834473,-0.07621999830007553,0.7545779943466187,-1.196653962135315,144.3000030517578,-146.10000610351562,-24.30000114440918
185932,0.3044547736644745,8.957191467285156,-3.1791298389434814,-0.04573199898004532,0.7240899801254272,-1.3872039318084717,146.70001220703125,-148.5,-24.900001525878906
185952,0.253014475107193,9.314282417297363,-3.1785316467285156,0.17530599236488342,0.6402480006217957,-1.4100699424743652,149.10000610351562,-143.70001220703125,-24.900001525878906
185972,0.20635932683944702,9.283777236938477,-3.126493215560913,0.05335399881005287,0.6402480006217957,-1.6920839548110962,144.3000030517578,-150.90000915527344,-24.900001525878906
185992,0.14893759787082672,9.043323516845703,-3.1492228507995605,-0.04573199898004532,0.7926880121231079,-1.753059983253479,141.90000915527344,-153.3000030517578,-24.30000114440918
186012,0.013159145601093769,8.736475944519043,-3.1408486366271973,0.02286599949002266,0.8765299916267395,-1.577754020690918,149.10000610351562,-143.70001220703125,-24.900001525878906
186032,0.04785143584012985,8.581557273864746,-3.156400442123413,0.06859800219535828,0.9298839569091797,-1.021347999572754,149.10000610351562,-143.70001220703125,-24.30000114440918
186052,0.2811271846294403,8.840553283691406,-3.180924415588379,0.1448179930448532,0.9832379817962646,-0.3125019967556,146.70001220703125,-146.10000610351562,-24.30000114440918
186076,0.4940660893917084,8.97633171081543,-3.2861974239349365,0.1448179930448532,1.0442140102386475,0.09908600151538849,149.10000610351562,-146.10000610351562,-25.500001907348633
186096,0.6382185220718384,8.76219654083252,-3.240140438079834,0.10670799762010574,1.013725996017456,0.5792719721794128,146.70001220703125,-146.10000610351562,-23.700000762939453
186116,0.9564306139945984,9.000855445861816,-3.508108615875244,0.2439039945602417,0.9451279640197754,1.6158639192581177,149.10000610351562,-143.70001220703125,-25.500001907348633
186137,1.2949795722961426,9.595409393310547,-3.8819479942321777,0.19054999947547913,0.8079319596290588,2.073184013366699,144.3000030517578,-150.90000915527344,-24.900001525878906
186157,1.7651199102401733,10.586532592773438,-4.54349422454834,0.5792719721794128,1.2271419763565063,3.239349842071533,146.70001220703125,-148.5,-23.100000381469727
186177,1.7100907564163208,9.956089973449707,-4.904174327850342,0.3201240003108978,-0.25152599811553955,2.6219680309295654,141.90000915527344,-148.5,-21.900001525878906
186197,1.8171583414077759,10.658309936523438,-4.82222843170166,1.0442140102386475,-1.7454379796981812,3.7805118560791016,141.90000915527344,-148.5,-23.100000381469727
186220,1.5491902828216553,10.699581146240234,-4.362854957580566,0.5335400104522705,-2.5686140060424805,2.591480016708374,132.3000030517578,-146.10000610351562,-23.700000762939453
186241,1.0862276554107666,9.715636253356934,-3.9866228103637695,0.038109999150037766,-2.896359920501709,1.2652519941329956,132.3000030517578,-153.3000030517578,-23.700000762939453
186261,0.1399654597043991,8.1843900680542,-3.0888102054595947,-0.426831990480423,-3.0259339809417725,-0.17530599236488342,137.10000610351562,-146.10000610351562,-24.30000114440918
186281,-0.4647570848464966,7.979227066040039,-3.028995990753174,-0.6021379828453064,-2.3170878887176514,-0.6478700041770935,137.10000610351562,-150.90000915527344,-25.500001907348633
186301,-0.6980328559875488,7.805765628814697,-2.981144666671753,-0.5487840175628662,-2.126538038253784,-1.0442140102386475,137.10000610351562,-150.90000915527344,-22.5
186321,-0.3768300712108612,8.12158489227295,-2.7430837154388428,-0.5792719721794128,-2.2103798389434814,-0.5030519962310791,137.10000610351562,-155.70001220703125,-24.900001525878906
186341,-0.28052905201911926,8.335122108459473,-2.5355279445648193,-0.7012239694595337,-1.8140360116958618,0.3582339882850647,132.3000030517578,-150.90000915527344,-23.700000762939453
186364,-0.2548089027404785,9.50209903717041,-2.6665213108062744,-0.5335400104522705,-1.5625100135803223,0.8307979702949524,137.10000610351562,-155.70001220703125,-27.30000114440918
186384,-0.7416973114013672,9.420751571655273,-2.727531909942627,-0.426831990480423,-0.8612859845161438,-0.6173819899559021,129.90000915527344,-155.70001220703125,-24.30000114440918
186465,-0.8732887506484985,9.353759765625,-3.1139323711395264,0.4420759975910187,0.04573199898004532,-1.5548880100250244,141.90000915527344,-143.70001220703125,-25.500001907348633
186625,-0.6567609906196594,7.847635746002197,-2.149725914001465,-0.7164679765701294,0.7317119836807251,-0.967993974685669,139.5,-148.5,-24.30000114440918
186646,-0.8385964632034302,7.699894428253174,-2.247223138809204,-0.2439039945602417,1.067080020904541,-0.7774440050125122,139.5,-148.5,-23.700000762939453
186686,-0.8738868832588196,10.173813819885254,-2.9171433448791504,0.6554920077323914,0.5259180068969727,-1.3567159175872803,141.90000915527344,-148.5,-23.700000762939453
186726,-0.36426907777786255,9.85261058807373,-2.6934378147125244,-0.038109999150037766,1.646351933479309,-1.1128119230270386,144.3000030517578,-155.70001220703125,-23.100000381469727
186751,-0.5335435271263123,9.19345760345459,-2.7735888957977295,-0.6554920077323914,1.935987949371338,-1.3490939140319824,141.90000915527344,-150.90000915527344,-23.700000762939453
186793,0.16568560898303986,10.316171646118164,-3.2090370655059814,-0.015243999660015106,1.7987920045852661,-0.228659987449646,141.90000915527344,-146.10000610351562,-24.900001525878906
186866,-0.5837875604629517,7.708268642425537,-4.164271354675293,0.2743920087814331,2.484771966934204,-2.637212038040161,146.70001220703125,-138.90000915527344,-23.100000381469727
186886,-0.9079810380935669,7.869168758392334,-4.585363864898682,0.6326259970664978,2.134160041809082,-2.2027578353881836,144.3000030517578,-146.10000610351562,-21.30000114440918
186926,-0.8990088701248169,9.127063751220703,-4.959203243255615,0.4192099869251251,1.5320219993591309,-2.6753220558166504,156.3000030517578,-146.10000610351562,-23.100000381469727
186950,-0.9444677233695984,8.75621509552002,-4.882640838623047,-0.114329993724823,1.600619912147522,-2.797273874282837,156.3000030517578,-138.90000915527344,-22.5
186970,-0.9540380239486694,9.277795791625977,-5.068065166473389,0.07621999830007553,1.5625100135803223,-2.324709892272949,161.10000610351562,-143.70001220703125,-22.5
186990,-1.146041989326477,8.900965690612793,-5.09617805480957,0.030487999320030212,1.2118979692459106,-2.339953899383545,161.10000610351562,-138.90000915527344,-22.5
187010,-1.1574066877365112,8.515761375427246,-4.949035167694092,0.2743920087814331,0.9070180058479309,-1.981719970703125,161.10000610351562,-141.3000030517578,-18.900001525878906
187030,-1.1903045177459717,8.152091026306152,-4.799499034881592,0.5030519962310791,0.685979962348938,-1.7378159761428833,165.90000915527344,-134.10000610351562,-21.30000114440918
187050,-1.1615936756134033,8.165249824523926,-4.755236625671387,0.6936019659042358,0.5182960033416748,-1.5853760242462158,161.10000610351562,-138.90000915527344,-22.5
187073,-1.1532196998596191,7.942142486572266,-4.550671577453613,0.7850660085678101,0.2896359860897064,-2.0122079849243164,165.90000915527344,-143.70001220703125,-19.5
187113,-1.2273893356323242,7.428337574005127,-4.580578804016113,0.038109999150037766,0.8689079880714417,-2.0655620098114014,170.70001220703125,-138.90000915527344,-19.5
187133,-1.4301598072052002,7.199248790740967,-4.960997581481934,0.038109999150037766,1.189031958580017,-1.6920839548110962,173.10000610351562,-136.5,-19.5
187153,-1.4977500438690186,7.250091075897217,-5.181114196777344,-0.08384199440479279,0.5335400104522705,-0.7698220014572144,177.90000915527344,-143.70001220703125,-20.700000762939453
187173,-1.2154265642166138,7.7519330978393555,-5.121300220489502,0.007621999830007553,-0.3048799932003021,0.2591480016708374,170.70001220703125,-134.10000610351562,-20.700000762939453
187236,-0.9085791707038879,8.369216918945312,-5.275620937347412,0.4420759975910187,-1.417691946029663,0.6783579587936401,175.5,-134.10000610351562,-20.700000762939453
187256,-0.9779637455940247,8.770570755004883,-5.3850812911987305,0.6097599864006042,-1.9664759635925293,0.17530599236488342,170.70001220703125,-138.90000915527344,-20.700000762939453
187276,-1.0078709125518799,9.033753395080566,-5.349790573120117,0.6936019659042358,-2.278977870941162,-0.038109999150037766,168.3000030517578,-143.70001220703125,-21.30000114440918
187299,-1.22200608253479,9.02298641204834,-4.767199516296387,0.28201398253440857,-2.39330792427063,-0.6707359552383423,173.10000610351562,-138.90000915527344,-19.5
187319,-1.2638760805130005,9.038537979125977,-4.47171688079834,-1.0442140102386475,-1.653973937034607,-0.5030519962310791,173.10000610351562,-134.10000610351562,-20.700000762939453
187340,-1.217819094657898,8.77894401550293,-4.373621463775635,-1.2652519941329956,-1.5548880100250244,-0.2134159952402115,170.70001220703125,-138.90000915527344,-21.30000114440918
187360,-1.104171872138977,8.622230529785156,-3.7180566787719727,-1.4634239673614502,-2.0503180027008057,0.6554920077323914,170.70001220703125,-138.90000915527344,-22.5
187380,-1.1346771717071533,8.80705738067627,-3.2287757396698,-2.0045859813690186,-1.829279899597168,0.9298839569091797,177.90000915527344,-136.5,-22.5
187402,-1.305746078491211,9.051697731018066,-3.0008833408355713,-1.5701320171356201,-1.5853760242462158,0.39634400606155396,173.10000610351562,-141.3000030517578,-22.5
187422,-1.411617398262024,8.733485221862793,-2.5056209564208984,-1.5929979085922241,-1.707327961921692,-0.342989981174469,175.5,-146.10000610351562,-24.30000114440918
187505,-1.9708811044692993,9.62172794342041,-2.176044225692749,-1.4862899780273438,-0.22103799879550934,-1.5167779922485352,175.5,-146.10000610351562,-23.700000762939453
187590,-2.524761438369751,8.79210376739502,-2.2496156692504883,-0.426831990480423,-0.17530599236488342,-1.7683039903640747,182.70001220703125,-138.90000915527344,-25.500001907348633
187610,-2.1234076023101807,10.07691478729248,-2.5821831226348877,-0.15243999660015106,-0.060975998640060425,-1.4024479389190674,185.10000610351562,-136.5,-26.100000381469727
187650,-2.0402655601501465,8.762794494628906,-2.6575491428375244,-0.09146399796009064,0.1295740008354187,-0.9832379817962646,182.70001220703125,-136.5,-24.900001525878906
187672,-1.61737859249115,9.145008087158203,-2.664726972579956,-0.060975998640060425,0.18292799592018127,-1.067080020904541,185.10000610351562,-141.3000030517578,-25.500001907348633
187692,-1.4690390825271606,8.76817798614502,-2.867497444152832,-0.3125019967556,0.4344539940357208,-0.8384199738502502,185.10000610351562,-134.10000610351562,-24.900001525878906
187712,-1.4445152282714844,8.896778106689453,-3.0128462314605713,0.228659987449646,0.2972579896450043,-0.7774440050125122,189.90000915527344,-138.90000915527344,-23.700000762939453
187732,-1.4253747463226318,8.53609848022461,-3.0900065898895264,0.23628199100494385,0.3887220025062561,-0.9756159782409668,189.90000915527344,-134.10000610351562,-23.100000381469727
187752,-1.3924767971038818,8.786720275878906,-3.3705356121063232,0.6478700041770935,0.39634400606155396,-1.0823240280151367,187.5,-136.5,-24.900001525878906
187772,-1.3936731815338135,8.668288230895996,-3.3639559745788574,0.8689079880714417,0.3048799932003021,-1.5015339851379395,194.70001220703125,-131.70001220703125,-25.500001907348633
187795,-1.4893759489059448,8.427236557006836,-3.4118075370788574,0.7926880121231079,0.5335400104522705,-1.7987920045852661,204.3000030517578,-131.70001220703125,-25.500001907348633
187815,-1.6448931694030762,8.2501859664917,-3.666616439819336,0.853663980960846,0.8155539631843567,-1.7301939725875854,192.3000030517578,-136.5,-22.5
187837,-1.6748002767562866,8.703577995300293,-4.074550151824951,1.1051899194717407,0.7698220014572144,-1.3872039318084717,194.70001220703125,-136.5,-25.500001907348633
187857,-1.7298294305801392,8.655128479003906,-4.15290641784668,1.14329993724823,0.4878079891204834,-1.4481799602508545,197.10000610351562,-134.10000610351562,-21.900001525878906
187877,-1.8147658109664917,8.587538719177246,-4.169654846191406,1.1128119230270386,0.26677000522613525,-1.3567159175872803,189.90000915527344,-131.70001220703125,-23.700000762939453
187898,-1.9379832744598389,8.592324256896973,-4.163074970245361,0.5259180068969727,0.1448179930448532,-1.7835479974746704,194.70001220703125,-124.50000762939453,-22.5
187918,-2.0498359203338623,8.370412826538086,-4.150514125823975,0.5945159792900085,0.09908600151538849,-1.8521459102630615,197.10000610351562,-126.9000015258789,-22.5
187938,-2.0791449546813965,8.460732460021973,-4.069166660308838,0.48018598556518555,-0.015243999660015106,-1.7225719690322876,197.10000610351562,-126.9000015258789,-24.30000114440918
187962,-2.026508331298828,8.592324256896973,-3.899294137954712,0.22103799879550934,0.06859800219535828,-1.7454379796981812,201.90000915527344,-124.50000762939453,-24.30000114440918
187982,-2.050434112548828,8.611464500427246,-3.740187883377075,-0.25152599811553955,0.4420759975910187,-1.935987949371338,201.90000915527344,-129.3000030517578,-22.5
188002,-2.2107365131378174,8.384169578552246,-3.755739688873291,-0.2972579896450043,0.4878079891204834,-1.9054999351501465,211.50001525878906,-122.10000610351562,-21.900001525878906
188023,-2.2107365131378174,8.316579818725586,-3.7120752334594727,-0.15243999660015106,0.4192099869251251,-1.7454379796981812,206.70001220703125,-122.10000610351562,-22.5
188043,-2.2884950637817383,8.396132469177246,-3.7150659561157227,0.10670799762010574,0.28201398253440857,-1.3567159175872803,211.50001525878906,-124.50000762939453,-23.100000381469727
188063,-2.2514102458953857,8.66469955444336,-3.720449209213257,0.4420759975910187,0.08384199440479279,-1.1280559301376343,209.10000610351562,-126.9000015258789,-23.100000381469727
188083,-2.19099760055542,8.686232566833496,-3.618764877319336,0.5030519962310791,-0.10670799762010574,-1.1280559301376343,206.70001220703125,-124.50000762939453,-22.5
188103,-2.2765321731567383,8.79808521270752,-3.6438870429992676,0.25152599811553955,-0.13719600439071655,-1.021347999572754,209.10000610351562,-122.10000610351562,-23.700000762939453
188127,-2.4601619243621826,8.496023178100586,-3.827516794204712,0.114329993724823,-0.1295740008354187,-1.1585439443588257,211.50001525878906,-117.30000305175781,-20.700000762939453
188148,-2.512798547744751,8.497817039489746,-3.913649559020996,0.5259180068969727,-0.426831990480423,-0.9756159782409668,211.50001525878906,-119.70000457763672,-21.900001525878906
188168,-2.360272169113159,8.61086654663086,-3.7360010147094727,0.685979962348938,-0.6173819899559021,-0.6936019659042358,213.90000915527344,-117.30000305175781,-22.5
188189,-2.2699525356292725,8.65572738647461,-3.6893458366394043,0.3734779953956604,-0.46494197845458984,-0.510673999786377,211.50001525878906,-122.10000610351562,-23.700000762939453
188253,-2.796318292617798,8.399123191833496,-3.883742332458496,0.5182960033416748,-0.17530599236488342,-0.8079319596290588,209.10000610351562,-114.9000015258789,-22.5
188273,-2.786748170852661,8.396132469177246,-3.9178364276885986,0.5182960033416748,-0.36585599184036255,-1.14329993724823,209.10000610351562,-114.9000015258789,-20.700000762939453
188294,-2.8962082862854004,8.3399076461792,-4.102662563323975,0.457319974899292,-0.39634400606155396,-1.2576299905776978,213.90000915527344,-117.30000305175781,-21.30000114440918
188314,-2.857927083969116,8.525331497192383,-4.128981113433838,0.5335400104522705,-0.6250039935112,-1.0823240280151367,218.70001220703125,-114.9000015258789,-20.700000762939453
188334,-2.7353076934814453,8.344094276428223,-4.105055332183838,0.23628199100494385,-0.5792719721794128,-1.0289700031280518,218.70001220703125,-117.30000305175781,-20.700000762939453
188354,-2.510406017303467,8.54507064819336,-3.991408109664917,0.2743920087814331,-0.5411620140075684,-0.5259180068969727,223.50001525878906,-117.30000305175781,-21.900001525878906
188374,-2.3124208450317383,8.698195457458496,-3.792226552963257,-0.05335399881005287,-0.26677000522613525,-0.23628199100494385,218.70001220703125,-117.30000305175781,-21.30000114440918
188394,-2.211334466934204,8.583352088928223,-3.699514389038086,-0.426831990480423,0.16768398880958557,-0.114329993724823,218.70001220703125,-112.50000762939453,-20.100000381469727
188416,-2.25978422164917,8.164052963256836,-3.6803736686706543,-0.44969800114631653,0.48018598556518555,-0.007621999830007553,216.3000030517578,-119.70000457763672,-20.700000762939453
188436,-2.4164977073669434,8.208913803100586,-3.908266067504883,-0.07621999830007553,0.49542999267578125,-0.1295740008354187,221.10000610351562,-114.9000015258789,-22.5
188456,-2.4487972259521484,8.28906536102295,-3.9184346199035645,0.2591480016708374,0.25152599811553955,-0.39634400606155396,218.70001220703125,-122.10000610351562,-21.30000114440918
188477,-2.519378185272217,8.328542709350586,-3.957911968231201,0.15243999660015106,0.2439039945602417,-0.6554920077323914,216.3000030517578,-119.70000457763672,-20.700000762939453
188497,-2.757439136505127,8.319570541381836,-4.095484733581543,0.02286599949002266,0.25152599811553955,-0.9222619533538818,228.3000030517578,-114.9000015258789,-21.900001525878906
188520,-3.033781051635742,8.205923080444336,-4.3443121910095215,0.02286599949002266,0.19817200303077698,-1.1509219408035278,225.90000915527344,-117.30000305175781,-21.900001525878906
188540,-3.1378579139709473,8.168838500976562,-4.3861823081970215,0.20579399168491364,-0.4344539940357208,-0.7774440050125122,221.10000610351562,-110.10000610351562,-21.30000114440918
188560,-3.084623336791992,8.28906536102295,-4.371827125549316,0.17530599236488342,-0.5564059615135193,-0.571649968624115,223.50001525878906,-112.50000762939453,-21.30000114440918
188581,-3.066679000854492,8.2561674118042,-4.372425079345703,-0.114329993724823,-0.6097599864006042,-0.2591480016708374,221.10000610351562,-117.30000305175781,-21.900001525878906
188601,-3.0272016525268555,8.252578735351562,-4.37302303314209,-0.33536797761917114,-0.6631140112876892,0.05335399881005287,221.10000610351562,-112.50000762939453,-21.900001525878906
188622,-2.9494431018829346,8.101248741149902,-4.242030143737793,-0.4878079891204834,-0.7240899801254272,0.3734779953956604,218.70001220703125,-117.30000305175781,-20.700000762939453
188643,-2.7915332317352295,8.280691146850586,-4.181019306182861,-0.5487840175628662,-0.7240899801254272,0.7088459730148315,218.70001220703125,-114.9000015258789,-21.30000114440918
188664,-2.667717695236206,8.080911636352539,-4.111036777496338,-0.6402480006217957,-0.7240899801254272,0.9527499675750732,216.3000030517578,-112.50000762939453,-23.100000381469727
188685,-2.4338438510894775,8.484060287475586,-3.972865581512451,-0.4878079891204834,-0.8917739987373352,0.9908599853515625,216.3000030517578,-114.9000015258789,-21.900001525878906
188705,-2.4721248149871826,8.59292221069336,-3.945949077606201,-0.853663980960846,-0.8384199738502502,0.6021379828453064,225.90000915527344,-119.70000457763672,-21.900001525878906
188725,-2.6210625171661377,8.50918197631836,-3.969874858856201,-1.0518360137939453,-1.021347999572754,0.18292799592018127,209.10000610351562,-117.30000305175781,-21.900001525878906
188745,-2.5977349281311035,8.655128479003906,-3.842470407485962,-1.0975680351257324,-1.3567159175872803,-0.060975998640060425,223.50001525878906,-117.30000305175781,-21.900001525878906
188765,-2.6013238430023193,8.551650047302246,-3.7276270389556885,-1.3109840154647827,-1.3948259353637695,-0.26677000522613525,221.10000610351562,-114.9000015258789,-21.900001525878906
188785,-2.653362274169922,8.439199447631836,-3.544595241546631,-1.2347639799118042,-1.4634239673614502,-0.2134159952402115,216.3000030517578,-117.30000305175781,-23.100000381469727
188805,-2.6982228755950928,8.411086082458496,-3.43992018699646,-1.196653962135315,-1.3643379211425781,-0.015243999660015106,223.50001525878906,-119.70000457763672,-23.700000762939453
188825,-2.7699999809265137,8.421853065490723,-3.44889235496521,-1.067080020904541,-1.1814099550247192,0.08384199440479279,218.70001220703125,-110.10000610351562,-23.100000381469727
188845,-2.730522632598877,8.250783920288086,-3.335843324661255,-0.8612859845161438,-1.0518360137939453,0.2591480016708374,221.10000610351562,-114.9000015258789,-24.900001525878906
188868,-2.647380828857422,8.261550903320312,-3.311319589614868,-0.5945159792900085,-0.7926880121231079,0.44969800114631653,221.10000610351562,-112.50000762939453,-25.500001907348633
188910,-2.6461844444274902,8.35964584350586,-3.4943511486053467,-0.22103799879550934,-0.3125019967556,0.6173819899559021,221.10000610351562,-117.30000305175781,-23.700000762939453
188930,-2.6246514320373535,8.484060287475586,-3.586465358734131,-0.007621999830007553,-0.228659987449646,0.571649968624115,218.70001220703125,-112.50000762939453,-24.30000114440918
188950,-2.5983331203460693,8.539687156677246,-3.6588406562805176,-0.17530599236488342,-0.17530599236488342,0.2972579896450043,211.50001525878906,-117.30000305175781,-24.30000114440918
188970,-2.584575891494751,8.476881980895996,-3.7210474014282227,-0.17530599236488342,-0.09908600151538849,0.2134159952402115,211.50001525878906,-114.9000015258789,-23.700000762939453
189032,-2.5199763774871826,8.55703353881836,-3.797011613845825,-0.4039659798145294,0.02286599949002266,0.2743920087814331,211.50001525878906,-124.50000762939453,-26.100000381469727
189052,-2.4218809604644775,8.408095359802246,-3.792226552963257,-0.5030519962310791,0.007621999830007553,0.38109999895095825,221.10000610351562,-122.10000610351562,-24.900001525878906
189075,-2.2496156692504883,8.436208724975586,-3.8203392028808594,-0.3201240003108978,-0.2743920087814331,0.5945159792900085,213.90000915527344,-119.70000457763672,-24.30000114440918
189095,-2.006171464920044,8.384169578552246,-3.826918840408325,-0.12195199728012085,-0.5945159792900085,0.8307979702949524,216.3000030517578,-119.70000457763672,-23.700000762939453
189115,-1.8022047281265259,8.436806678771973,-3.854433298110962,0.060975998640060425,-0.967993974685669,1.0518360137939453,213.90000915527344,-124.50000762939453,-24.30000114440918
189136,-1.6329302787780762,8.445180892944336,-3.827516794204712,0.35061198472976685,-1.471045970916748,1.196653962135315,211.50001525878906,-124.50000762939453,-27.30000114440918
189156,-1.60541570186615,8.358449935913086,-3.815553903579712,0.5564059615135193,-1.8369019031524658,1.2652519941329956,211.50001525878906,-119.70000457763672,-26.100000381469727
189198,-2.2197086811065674,8.37280559539795,-4.045240879058838,0.7850660085678101,-2.446661949157715,0.914639949798584,213.90000915527344,-119.70000457763672,-24.900001525878906
189221,-2.6509697437286377,8.311196327209473,-3.577493190765381,0.7469559907913208,-2.736297845840454,1.4100699424743652,209.10000610351562,-122.10000610351562,-26.700000762939453
189263,-4.282105445861816,8.515761375427246,-3.4829864501953125,-0.6402480006217957,-1.6615959405899048,1.417691946029663,209.10000610351562,-122.10000610351562,-24.30000114440918
189283,-4.9436516761779785,7.888309478759766,-3.3035435676574707,-0.6478700041770935,-1.3795819282531738,1.2728739976882935,206.70001220703125,-117.30000305175781,-25.500001907348633
189306,-5.4712138175964355,7.156182289123535,-3.0056684017181396,-0.6021379828453064,-1.1356779336929321,1.4405579566955566,206.70001220703125,-131.70001220703125,-26.100000381469727
189326,-5.329453945159912,7.726212978363037,-2.954228162765503,-0.114329993724823,-0.4725639820098877,2.5609920024871826,209.10000610351562,-124.50000762939453,-25.500001907348633
189346,-5.314500331878662,8.42065715789795,-2.7735888957977295,-0.1600620001554489,0.08384199440479279,2.3094658851623535,204.3000030517578,-126.9000015258789,-25.500001907348633
189389,-5.3761091232299805,7.917020320892334,-2.969181776046753,-0.35061198472976685,1.7301939725875854,1.021347999572754,206.70001220703125,-126.9000015258789,-24.900001525878906
189410,-4.887426376342773,7.8739542961120605,-2.957218885421753,-0.38109999895095825,2.278977870941162,1.2271419763565063,204.3000030517578,-126.9000015258789,-24.30000114440918
189430,-4.354480743408203,8.062967300415039,-2.9398727416992188,-0.7545779943466187,2.7286758422851562,1.7759259939193726,194.70001220703125,-129.3000030517578,-24.30000114440918
189472,-3.5284454822540283,8.051602363586426,-2.823234796524048,-1.4634239673614502,3.353679895401001,2.378063917160034,199.50001525878906,-136.5,-24.900001525878906
189506,-2.905778646469116,8.587538719177246,-2.831010580062866,-1.371959924697876,3.49849796295166,2.6600780487060547,192.3000030517578,-131.70001220703125,-24.900001525878906
189526,-2.504424571990967,8.73228931427002,-2.6360161304473877,-1.5091559886932373,3.513741970062256,2.0579400062561035,185.10000610351562,-131.70001220703125,-23.700000762939453
189569,-2.23585844039917,8.189773559570312,-2.486480236053467,-1.6768399477005005,3.6814258098602295,1.3338500261306763,182.70001220703125,-136.5,-24.30000114440918
189589,-1.8925243616104126,8.563612937927246,-2.4368345737457275,-1.653973937034607,3.6890478134155273,1.3262280225753784,185.10000610351562,-136.5,-23.700000762939453
189609,-1.403841495513916,9.44049072265625,-2.3680479526519775,-1.6615959405899048,3.5975840091705322,1.0975680351257324,180.3000030517578,-138.90000915527344,-24.900001525878906
189629,-1.007272720336914,9.797581672668457,-2.2914857864379883,-1.981719970703125,3.955817937850952,0.36585599184036255,175.5,-138.90000915527344,-23.700000762939453
189650,-0.8080911636352539,9.999753952026367,-2.5732109546661377,-2.2103798389434814,4.519845962524414,-0.26677000522613525,180.3000030517578,-141.3000030517578,-23.100000381469727
189670,-0.92771977186203,9.337610244750977,-3.177335500717163,-2.14178204536438,5.129605770111084,-0.8765299916267395,175.5,-141.3000030517578,-24.900001525878906
189690,-0.7656229734420776,9.774253845214844,-3.9094624519348145,-0.9832379817962646,4.969543933868408,-0.2896359860897064,180.3000030517578,-141.3000030517578,-23.700000762939453
189754,-0.9301123023033142,9.387255668640137,-4.28150749206543,-1.14329993724823,4.4436259269714355,0.853663980960846,170.70001220703125,-136.5,-23.100000381469727
189774,-0.7835673093795776,11.151179313659668,-5.0064568519592285,-0.48018598556518555,5.282045841217041,0.8993960022926331,170.70001220703125,-136.5,-22.5
189794,0.16748003661632538,13.11548137664795,-6.4342241287231445,0.3734779953956604,4.885701656341553,0.4192099869251251,175.5,-138.90000915527344,-21.900001525878906
189814,-1.1962859630584717,9.785618782043457,-5.676974773406982,0.2972579896450043,1.8673899173736572,-3.5747179985046387,170.70001220703125,-138.90000915527344,-22.5
189835,-1.5964435338974,8.260952949523926,-6.128572940826416,1.7378159761428833,1.7683039903640747,-1.7606819868087769,170.70001220703125,-134.10000610351562,-21.900001525878906
189855,-1.3829065561294556,8.944031715393066,-5.709872722625732,1.5625100135803223,-0.6783579587936401,0.48018598556518555,173.10000610351562,-129.3000030517578,-22.5
189898,-0.7267436981201172,8.001956939697266,-4.014735698699951,-1.013725996017456,-0.426831990480423,1.8445239067077637,170.70001220703125,-134.10000610351562,-21.30000114440918
189924,-0.6681256890296936,7.6412763595581055,-3.645681381225586,-2.1189160346984863,0.5182960033416748,1.8369019031524658,168.3000030517578,-136.5,-23.100000381469727
189945,-0.62147057056427,7.119695663452148,-3.508706569671631,-2.5762360095977783,0.8612859845161438,1.7987920045852661,165.90000915527344,-138.90000915527344,-23.700000762939453
189987,0.2607903480529785,7.074835300445557,-3.1707558631896973,-2.2713558673858643,0.8079319596290588,2.4009299278259277,161.10000610351562,-143.70001220703125,-22.5
190007,0.5227769613265991,7.15378999710083,-3.2287757396698,-1.9207439422607422,0.7317119836807251,2.637212038040161,161.10000610351562,-138.90000915527344,-22.5
190027,0.6884625554084778,7.6951093673706055,-3.46982741355896,-1.1280559301376343,0.4192099869251251,2.7744078636169434,156.3000030517578,-136.5,-21.900001525878906
190049,0.6824811100959778,8.043228149414062,-3.817946672439575,-0.7545779943466187,0.19817200303077698,2.5000159740448,158.70001220703125,-146.10000610351562,-23.100000381469727
190069,0.7082012891769409,8.156277656555176,-3.9866228103637695,-0.5487840175628662,-0.26677000522613525,2.2484898567199707,149.10000610351562,-146.10000610351562,-23.100000381469727
190105,0.8200539946556091,8.476881980895996,-4.178028583526611,-0.3582339882850647,-0.7088459730148315,1.6920839548110962,151.5,-143.70001220703125,-22.5
190125,0.8864479064941406,8.359047889709473,-4.228272438049316,-0.3887220025062561,-1.1356779336929321,0.9756159782409668,151.5,-146.10000610351562,-24.900001525878906
190167,0.8864479064941406,7.35297155380249,-3.7216455936431885,-0.15243999660015106,-1.7454379796981812,1.646351933479309,149.10000610351562,-148.5,-23.700000762939453
190187,1.1735565662384033,8.694605827331543,-3.711477041244507,0.09908600151538849,-1.9740979671478271,2.339953899383545,149.10000610351562,-143.70001220703125,-24.900001525878906
190230,0.8858497142791748,9.074426651000977,-2.879460334777832,0.07621999830007553,-2.5686140060424805,1.6692179441452026,146.70001220703125,-146.10000610351562,-23.100000381469727
190250,-0.15671345591545105,8.37759017944336,-2.399749517440796,-0.060975998640060425,-2.2637338638305664,2.187514066696167,141.90000915527344,-153.3000030517578,-23.700000762939453
190272,-0.709995687007904,10.843135833740234,-2.7442798614501953,-0.06859800219535828,-2.294221878051758,3.048799991607666,137.10000610351562,-150.90000915527344,-22.5
190292,-0.61847984790802,12.868448257446289,-2.3830015659332275,-0.4878079891204834,-3.003067970275879,1.7911700010299683,144.3000030517578,-148.5,-23.700000762939453
190354,-1.2782315015792847,11.912016868591309,-2.074958086013794,-1.6082419157028198,-0.13719600439071655,-1.242385983467102,134.70001220703125,-153.3000030517578,-26.100000381469727
190410,-1.2782315015792847,9.567296981811523,-1.6688188314437866,-1.2271419763565063,0.2439039945602417,0.23628199100494385,146.70001220703125,-150.90000915527344,-25.500001907348633
190431,-1.007272720336914,9.04212760925293,-1.709492564201355,-1.1280559301376343,0.571649968624115,0.8689079880714417,139.5,-146.10000610351562,-24.900001525878906
190472,-0.19619089365005493,8.310598373413086,-1.9571237564086914,-0.2591480016708374,0.48018598556518555,1.6234859228134155,139.5,-158.10000610351562,-26.700000762939453
190493,0.6669294238090515,8.58095932006836,-1.7974196672439575,0.18292799592018127,0.19817200303077698,1.7683039903640747,137.10000610351562,-153.3000030517578,-26.700000762939453
190535,1.3607752323150635,8.749635696411133,-1.6389117240905762,-0.18292799592018127,0.426831990480423,1.875011920928955,129.90000915527344,-150.90000915527344,-25.500001907348633
190645,1.2417447566986084,9.254467964172363,-1.4893759489059448,-0.9527499675750732,0.8841519951820374,0.4039659798145294,125.10000610351562,-153.3000030517578,-26.100000381469727
190665,1.2728482484817505,9.09296989440918,-1.2501188516616821,-0.8079319596290588,1.0289700031280518,0.6707359552383423,125.10000610351562,-158.10000610351562,-26.700000762939453
190705,1.2214078903198242,8.94941520690918,-1.0664888620376587,-1.0518360137939453,1.6920839548110962,0.7850660085678101,117.9000015258789,-153.3000030517578,-25.500001907348633
190725,1.1382660865783691,8.60966968536377,-1.032992959022522,-0.9832379817962646,1.9588539600372314,0.6936019659042358,120.30000305175781,-160.5,-26.700000762939453
190766,1.8608227968215942,9.381872177124023,-1.0198338031768799,-0.6631140112876892,2.278977870941162,0.8460419774055481,117.9000015258789,-155.70001220703125,-24.900001525878906
190786,2.0049753189086914,9.22037410736084,-1.0491427183151245,-0.8079319596290588,2.5152599811553955,0.7621999979019165,113.10000610351562,-158.10000610351562,-26.100000381469727
190806,1.9170482158660889,8.868067741394043,-1.2860074043273926,-0.7545779943466187,2.8734939098358154,0.6326259970664978,113.10000610351562,-153.3000030517578,-28.500001907348633
190829,1.8321119546890259,8.903956413269043,-1.6119953393936157,-0.36585599184036255,2.797273874282837,0.510673999786377,113.10000610351562,-158.10000610351562,-24.900001525878906
190849,1.821345329284668,8.376992225646973,-1.7806715965270996,-0.4878079891204834,2.987823963165283,0.2134159952402115,110.70000457763672,-158.10000610351562,-26.100000381469727
190889,1.2925869226455688,7.580863952636719,-2.9129562377929688,-0.8460419774055481,3.9939279556274414,0.38109999895095825,115.50000762939453,-153.3000030517578,-27.30000114440918
190953,2.274139642715454,11.214582443237305,-5.3725199699401855,0.04573199898004532,2.545747995376587,1.6844619512557983,105.9000015258789,-160.5,-25.500001907348633
191009,2.119818687438965,10.43639850616455,-5.531626224517822,1.2042759656906128,-0.571649968624115,0.04573199898004532,101.10000610351562,-160.5,-26.100000381469727
191051,2.426666021347046,10.29284381866455,-4.606298923492432,1.013725996017456,-1.3567159175872803,-0.9832379817962646,103.50000762939453,-155.70001220703125,-24.30000114440918
191071,2.1951847076416016,9.380078315734863,-4.166664123535156,-0.16768398880958557,-0.49542999267578125,-1.3109840154647827,108.30000305175781,-160.5,-24.30000114440918
191095,1.9541330337524414,8.176614761352539,-3.627737045288086,-0.6250039935112,-0.3582339882850647,-1.6311079263687134,108.30000305175781,-150.90000915527344,-26.100000381469727
191136,2.089911460876465,7.405009746551514,-2.8268237113952637,-1.2195199728012085,0.114329993724823,-0.967993974685669,110.70000457763672,-160.5,-24.900001525878906
191206,2.295074462890625,6.703388214111328,-2.021125078201294,-2.03507399559021,0.5030519962310791,1.1204339265823364,108.30000305175781,-155.70001220703125,-26.700000762939453
191246,2.4063291549682617,7.8290934562683105,-1.942170262336731,-1.8369019031524658,0.2591480016708374,2.339953899383545,103.50000762939453,-155.70001220703125,-26.700000762939453
191266,2.601922035217285,8.349477767944336,-2.1598942279815674,-1.600619912147522,0.1600620001554489,2.5609920024871826,101.10000610351562,-155.70001220703125,-27.30000114440918
191306,2.543303966522217,8.378188133239746,-1.6311359405517578,-1.242385983467102,-0.853663980960846,3.506119966506958,96.30000305175781,-162.90000915527344,-26.700000762939453
191349,1.6102008819580078,11.911418914794922,-1.5784993171691895,-2.7744078636169434,-0.030487999320030212,5.2058258056640625,89.10000610351562,-162.90000915527344,-28.500001907348633
191370,1.4074304103851318,13.600574493408203,-2.277130365371704,-2.4771499633789062,0.4192099869251251,3.2164838314056396,84.30000305175781,-167.70001220703125,-29.700000762939453
191391,1.540816307067871,13.614930152893066,-2.238250970840454,-1.4481799602508545,-0.8384199738502502,0.33536797761917114,79.5,-170.10000610351562,-29.700000762939453
191431,1.4122155904769897,12.761978149414062,-1.5767048597335815,-0.1448179930448532,-1.0975680351257324,-2.03507399559021,79.5,-167.70001220703125,-27.900001525878906
191452,1.2243986129760742,11.512457847595215,-1.1592010259628296,-0.17530599236488342,-0.739333987236023,-2.789651870727539,84.30000305175781,-170.10000610351562,-27.900001525878906
191473,0.9851414561271667,10.520736694335938,-1.21602463722229,0.09908600151538849,0.02286599949002266,-2.8125178813934326,86.70000457763672,-167.70001220703125,-29.100000381469727
191493,0.821250319480896,9.399816513061523,-1.3870935440063477,0.2591480016708374,0.2134159952402115,-2.736297845840454,86.70000457763672,-155.70001220703125,-29.100000381469727
191513,0.6190779805183411,7.839859962463379,-1.2501188516616821,0.5868939757347107,-0.44969800114631653,-2.5152599811553955,89.10000610351562,-167.70001220703125,-30.900001525878906
191536,0.7105938792228699,6.817633628845215,-1.122116208076477,0.5792719721794128,-0.967993974685669,-1.3643379211425781,96.30000305175781,-165.3000030517578,-27.30000114440918
191556,1.024020791053772,6.549067497253418,-1.0814424753189087,0.4878079891204834,-1.3262280225753784,-0.19817200303077698,98.70000457763672,-165.3000030517578,-29.700000762939453
191616,0.9163550138473511,4.24262809753418,-0.6328352689743042,-0.3201240003108978,-1.1280559301376343,-0.5640279650688171,93.9000015258789,-162.90000915527344,-30.30000114440918
191747,2.537322521209717,14.930246353149414,-3.8651998043060303,-1.935987949371338,6.852177619934082,10.144882202148438,74.70000457763672,-172.5,-30.30000114440918
191782,7.100555419921875,19.599349975585938,-6.65673303604126,-0.5030519962310791,4.763750076293945,6.204308032989502,55.500003814697266,-167.70001220703125,-31.500001907348633
191802,9.07382869720459,19.595762252807617,-6.082515716552734,1.0518360137939453,1.3262280225753784,4.496979713439941,45.900001525878906,-167.70001220703125,-31.500001907348633
191846,8.531312942504883,19.599349975585938,-4.544690132141113,-0.38109999895095825,-1.9588539600372314,-2.6219680309295654,48.30000305175781,-165.3000030517578,-28.500001907348633
191870,5.903072834014893,16.090045928955078,-3.66601824760437,-1.3033620119094849,-3.1173980236053467,-5.571681976318359,48.30000305175781,-167.70001220703125,-31.500001907348633
191891,2.9739668369293213,9.363329887390137,-1.4666465520858765,0.2896359860897064,-4.39027214050293,-10.815617561340332,55.500003814697266,-172.5,-31.500001907348633
191911,-0.030505292117595673,0.13637660443782806,0.5688339471817017,-0.09908600151538849,-3.4832539558410645,-11.143363952636719,84.30000305175781,-160.5,-30.30000114440918
191931,-0.46415895223617554,-1.2471281290054321,0.9468603134155273,-0.685979962348938,-2.492393970489502,-8.330845832824707,89.10000610351562,-167.70001220703125,-29.700000762939453
191971,-0.034094151109457016,1.4164025783538818,0.18303175270557404,0.6478700041770935,2.126538038253784,0.09908600151538849,89.10000610351562,-165.3000030517578,-30.900001525878906
191991,0.01973871886730194,2.5445001125335693,-0.1118527352809906,0.9451279640197754,1.981719970703125,-0.08384199440479279,86.70000457763672,-165.3000030517578,-30.30000114440918
192011,-0.518589973449707,1.9278148412704468,0.07895487546920776,0.3125019967556,0.914639949798584,-2.3704419136047363,89.10000610351562,-162.90000915527344,-28.500001907348633
192031,-0.7452861666679382,0.36606350541114807,0.4049427807331085,0.015243999660015106,0.1295740008354187,-2.782029867172241,89.10000610351562,-160.5,-27.900001525878906
192051,-0.9648045897483826,-0.409129798412323,0.31282877922058105,-0.06859800219535828,0.3582339882850647,-2.3704419136047363,93.9000015258789,-167.70001220703125,-29.100000381469727
192091,-1.3817102909088135,-1.4821982383728027,-0.04904772341251373,0.9070180058479309,-0.3887220025062561,0.38109999895095825,93.9000015258789,-165.3000030517578,-27.900001525878906
192114,-0.9103736281394958,-0.5622543692588806,0.33615633845329285,0.1295740008354187,-0.7774440050125122,2.591480016708374,93.9000015258789,-167.70001220703125,-27.900001525878906
192157,0.6609479784965515,5.726620674133301,-1.5061240196228027,-0.2591480016708374,2.28659987449646,9.039691925048828,86.70000457763672,-162.90000915527344,-29.100000381469727
192177,1.7071000337600708,10.5470552444458,-0.9785618782043457,-2.9116039276123047,2.088428020477295,8.658592224121094,74.70000457763672,-165.3000030517578,-29.700000762939453
192197,4.4310431480407715,18.84808349609375,-3.887331247329712,-2.2713558673858643,9.413169860839844,14.931497573852539,60.30000305175781,-165.3000030517578,-32.10000228881836
192217,8.75322437286377,19.558677673339844,-7.995377063751221,-3.0640439987182617,10.053418159484863,10.79275131225586,50.70000076293945,-170.10000610351562,-32.10000228881836
192237,9.984800338745117,19.599349975585938,-6.947430610656738,2.9802019596099854,-2.385685920715332,-0.5564059615135193,43.5,-167.70001220703125,-30.900001525878906
192261,14.747215270996094,19.598752975463867,-7.020403861999512,-0.8155539631843567,1.3643379211425781,10.358297348022461,31.500001907348633,-162.90000915527344,-32.10000228881836
192323,5.746957778930664,16.31255531311035,-3.9632952213287354,-0.967993974685669,-4.89332389831543,-5.556437969207764,41.10000228881836,-165.3000030517578,-31.500001907348633
192343,2.557659387588501,8.146707534790039,-1.6209675073623657,1.4939119815826416,-6.539675712585449,-13.056486129760742,48.30000305175781,-170.10000610351562,-30.30000114440918
192363,-0.2117426097393036,0.17585402727127075,0.2823234796524048,0.4725639820098877,-6.311016082763672,-14.74856948852539,60.30000305175781,-167.70001220703125,-30.30000114440918
192383,-0.6268538236618042,-2.0582098960876465,0.5604599714279175,-0.25152599811553955,-2.8201398849487305,-6.303393840789795,69.9000015258789,-165.3000030517578,-29.100000381469727
192403,0.7267436981201172,0.15551717579364777,0.8798683285713196,0.49542999267578125,-1.8445239067077637,-1.4481799602508545,77.10000610351562,-167.70001220703125,-28.500001907348633
192423,1.004281997680664,0.7692118883132935,0.5455064177513123,0.9603719711303711,-0.5411620140075684,-0.800309956073761,72.30000305175781,-170.10000610351562,-30.30000114440918
192444,1.1711639165878296,1.9768625497817993,0.5496934056282043,0.9070180058479309,-0.5792719721794128,-0.25152599811553955,81.9000015258789,-165.3000030517578,-29.100000381469727
192465,0.49227166175842285,0.9008033275604248,0.6872662901878357,0.2134159952402115,-0.02286599949002266,-1.425313949584961,77.10000610351562,-162.90000915527344,-27.900001525878906
192486,-0.23327575623989105,-0.23507018387317657,0.15252645313739777,0.426831990480423,0.46494197845458984,-2.1722700595855713,79.5,-167.70001220703125,-27.900001525878906
192507,-0.7285381555557251,-0.7363139986991882,-0.16867631673812866,1.1509219408035278,0.5030519962310791,-3.048799991607666,79.5,-170.10000610351562,-29.100000381469727
192527,-0.9325048923492432,-1.196884036064148,-0.30804362893104553,1.0747020244598389,-0.2743920087814331,-2.1494040489196777,84.30000305175781,-167.70001220703125,-27.900001525878906
192549,-0.6914532780647278,-0.6681256890296936,-0.1543208807706833,0.5182960033416748,-0.6097599864006042,-0.6478700041770935,93.9000015258789,-167.70001220703125,-26.700000762939453
192569,-0.5425156950950623,-0.1561153084039688,-0.09151587635278702,-0.114329993724823,-0.228659987449646,0.17530599236488342,84.30000305175781,-158.10000610351562,-28.500001907348633
192590,-0.5586655139923096,-0.4073353707790375,-0.028710862621665,-1.2728739976882935,0.2439039945602417,0.6783579587936401,86.70000457763672,-167.70001220703125,-28.500001907348633
192651,0.712986409664154,9.140820503234863,-2.319000244140625,-1.5548880100250244,6.867421627044678,4.1921000480651855,69.9000015258789,-167.70001220703125,-29.700000762939453
192686,8.883021354675293,19.599349975585938,-7.16276216506958,-6.128087997436523,5.007653713226318,14.085455894470215,48.30000305175781,-167.70001220703125,-30.900001525878906
192706,7.882328033447266,19.599349975585938,-4.533325672149658,-0.6250039935112,-0.8307979702949524,-4.17685604095459,48.30000305175781,-167.70001220703125,-31.500001907348633
192749,15.588204383850098,19.599349975585938,-7.914628028869629,-5.6174139976501465,0.1600620001554489,6.029001712799072,33.900001525878906,-172.5,-32.70000076293945
192789,7.06406831741333,19.47972297668457,-4.8898186683654785,-1.0747020244598389,-2.530503988265991,-4.474113941192627,29.100000381469727,-167.70001220703125,-31.500001907348633
192809,3.7569360733032227,12.800259590148926,-2.2855043411254883,0.3887220025062561,-5.25155782699585,-9.634207725524902,38.70000076293945,-170.10000610351562,-32.70000076293945
192829,-0.17286331951618195,3.6044094562530518,-0.016748003661632538,-0.2972579896450043,-5.594547748565674,-14.405579566955566,57.900001525878906,-170.10000610351562,-30.900001525878906
192869,-0.9073829054832458,-2.348309278488159,1.311727523803711,-1.6234859228134155,-0.2743920087814331,-3.8414878845214844,62.70000076293945,-167.70001220703125,-31.500001907348633
192932,0.4402332305908203,0.3134269118309021,0.35709136724472046,1.9740979671478271,-0.6250039935112,-2.5152599811553955,74.70000457763672,-167.70001220703125,-30.900001525878906
192982,-0.3212027847766876,-0.9301123023033142,0.06160872429609299,2.14178204536438,-0.1448179930448532,-1.600619912147522,81.9000015258789,-165.3000030517578,-30.30000114440918
193005,-0.2661736309528351,-0.40255022048950195,-0.09630101919174194,1.4939119815826416,-0.5259180068969727,-0.9527499675750732,84.30000305175781,-162.90000915527344,-27.900001525878906
193046,-0.3307730555534363,-0.32479164004325867,0.04306629300117493,-0.16768398880958557,-1.0289700031280518,-0.36585599184036255,86.70000457763672,-162.90000915527344,-27.900001525878906
193066,-0.3074454963207245,-0.718369722366333,0.3487173616886139,-1.1737879514694214,-0.8384199738502502,0.19817200303077698,84.30000305175781,-162.90000915527344,-29.700000762939453
193086,0.5610581040382385,1.8691967725753784,-0.29069748520851135,-0.510673999786377,0.2743920087814331,3.201239824295044,81.9000015258789,-167.70001220703125,-28.500001907348633
193107,1.5629476308822632,4.573400974273682,-0.9905247688293457,-0.06859800219535828,0.7926880121231079,5.754610061645508,77.10000610351562,-162.90000915527344,-28.500001907348633
193167,8.64555835723877,19.599349975585938,-5.511887550354004,-6.4253458976745605,8.307979583740234,18.437618255615234,48.30000305175781,-167.70001220703125,-31.500001907348633
193187,7.452861309051514,19.599349975585938,-4.178028583526611,-1.0823240280151367,0.5487840175628662,-1.14329993724823,43.5,-170.10000610351562,-30.30000114440918
193207,9.40340518951416,19.597557067871094,-8.162857055664062,4.184477806091309,7.644865989685059,9.329327583312988,36.30000305175781,-174.90000915527344,-30.900001525878906
193231,13.638855934143066,19.599349975585938,-7.278801918029785,-0.36585599184036255,-4.375028133392334,-1.5167779922485352,26.700000762939453,-162.90000915527344,-32.10000228881836
193251,9.426733016967773,19.599349975585938,-4.634411811828613,-0.007621999830007553,-4.00154972076416,-4.237832069396973,21.900001525878906,-172.5,-32.10000228881836
193273,5.4742045402526855,18.802623748779297,-4.327564239501953,-0.7164679765701294,-1.7606819868087769,-5.39637565612793,33.900001525878906,-167.70001220703125,-30.900001525878906
193293,2.533135414123535,10.812032699584961,-3.165970802307129,1.9512319564819336,-3.4756319522857666,-13.910149574279785,41.10000228881836,-170.10000610351562,-29.700000762939453
193375,0.7662211656570435,0.8625221848487854,0.5538803935050964,0.3048799932003021,0.6783579587936401,-0.4192099869251251,77.10000610351562,-162.90000915527344,-29.700000762939453
193411,0.7554545998573303,0.5520859360694885,0.512608528137207,-0.19817200303077698,1.425313949584961,0.342989981174469,69.9000015258789,-167.70001220703125,-29.100000381469727
193432,0.48808467388153076,-0.2649773359298706,0.5048326849937439,-0.015243999660015106,1.471045970916748,0.6021379828453064,74.70000457763672,-165.3000030517578,-27.900001525878906
193473,-0.20396675169467926,-0.9851414561271667,0.02930900640785694,0.9298839569091797,0.6783579587936401,0.4344539940357208,69.9000015258789,-167.70001220703125,-27.30000114440918
193493,-0.03828115016222,-0.6489851474761963,0.09091772884130478,0.49542999267578125,-0.23628199100494385,0.7545779943466187,72.30000305175781,-167.70001220703125,-26.700000762939453
193513,0.1118527352809906,-0.4695422351360321,0.032299719750881195,0.16768398880958557,-0.4878079891204834,1.0442140102386475,69.9000015258789,-167.70001220703125,-29.700000762939453
193534,0.2147333323955536,-0.16209673881530762,0.0017944289138540626,-0.33536797761917114,-0.6173819899559021,1.3948259353637695,69.9000015258789,-170.10000610351562,-29.100000381469727
193554,0.3223990499973297,0.20097604393959045,-0.008972144685685635,-0.8765299916267395,-0.4725639820098877,1.7378159761428833,74.70000457763672,-172.5,-27.900001525878906
193574,1.2913906574249268,3.0810344219207764,-0.5132066607475281,-0.39634400606155396,0.13719600439071655,3.7347798347473145,67.5,-167.70001220703125,-28.500001907348633
193614,2.7939257621765137,11.283967018127441,-2.44401216506958,-0.800309956073761,4.314052104949951,7.179924011230469,62.70000076293945,-170.10000610351562,-28.500001907348633
193705,17.09014129638672,19.599349975585938,-8.80705738067627,-2.0122079849243164,0.26677000522613525,5.701255798339844,14.700000762939453,-165.3000030517578,-30.30000114440918
193725,10.991475105285645,19.599349975585938,-6.034066200256348,0.8612859845161438,-5.480217933654785,-6.227173805236816,12.300000190734863,-162.90000915527344,-29.100000381469727
193765,4.005763530731201,13.37627124786377,-3.2562904357910156,0.510673999786377,-5.686011791229248,-10.053418159484863,36.30000305175781,-160.5,-28.500001907348633
193829,-0.403148353099823,-0.9875340461730957,0.8637184500694275,-1.7454379796981812,0.17530599236488342,-0.7240899801254272,69.9000015258789,-172.5,-29.100000381469727
193850,0.6920514106750488,2.1144354343414307,0.921140193939209,-0.6021379828453064,0.8307979702949524,0.35061198472976685,72.30000305175781,-167.70001220703125,-29.700000762939453
193890,0.2506219148635864,-0.5993392467498779,0.5975448489189148,-0.7698220014572144,2.1189160346984863,0.5259180068969727,72.30000305175781,-170.10000610351562,-30.30000114440918
193910,0.13577845692634583,-1.006076455116272,0.48329952359199524,-0.39634400606155396,2.134160041809082,1.0594580173492432,67.5,-170.10000610351562,-29.100000381469727
193930,-0.023327575996518135,-0.6304426789283752,0.26437920331954956,0.3201240003108978,1.7911700010299683,2.294221878051758,65.10000610351562,-167.70001220703125,-29.100000381469727
193950,-0.2308831810951233,-0.6107039451599121,0.17047074437141418,0.44969800114631653,1.1661659479141235,2.0655620098114014,60.30000305175781,-170.10000610351562,-29.700000762939453
193971,0,-0.25959405303001404,0.2739494740962982,0,0.4878079891204834,1.9436099529266357,60.30000305175781,-165.3000030517578,-30.900001525878906
193991,0.23626647889614105,-0.3517080545425415,0.22729432582855225,-0.853663980960846,0.38109999895095825,1.7454379796981812,57.900001525878906,-170.10000610351562,-28.500001907348633
194011,0.40853163599967957,-0.16987259685993195,0.20396675169467926,-1.5625100135803223,0.4878079891204834,2.0960500240325928,60.30000305175781,-170.10000610351562,-30.30000114440918
194031,0.4163075089454651,-0.1471431702375412,0.15850788354873657,-1.8445239067077637,0.6021379828453064,2.2180018424987793,55.500003814697266,-172.5,-29.700000762939453
194094,4.592541694641113,14.988266944885254,-3.1229045391082764,0.25152599811553955,5.838451862335205,10.07628345489502,43.5,-167.70001220703125,-31.500001907348633
194124,10.487838745117188,19.519798278808594,-6.001168251037598,-3.1173980236053467,1.9893419742584229,5.556437969207764,24.30000114440918,-167.70001220703125,-32.10000228881836
194145,8.673670768737793,19.599349975585938,-6.108834266662598,4.649419784545898,1.3262280225753784,-1.2652519941329956,24.30000114440918,-160.5,-31.500001907348633
194185,14.901535987854004,19.599349975585938,-6.067562103271484,-1.7301939725875854,-5.373509883880615,-3.2698378562927246,14.700000762939453,-174.90000915527344,-30.900001525878906
194205,11.684722900390625,19.599349975585938,-4.774377346038818,-1.2271419763565063,-1.5320219993591309,-2.545747995376587,17.100000381469727,-162.90000915527344,-30.30000114440918
194226,7.467814922332764,18.855859756469727,-4.529736518859863,-1.9512319564819336,-2.1646480560302734,-4.565577983856201,19.5,-165.3000030517578,-30.30000114440918
194246,3.5786893367767334,11.542365074157715,-1.7956252098083496,-0.4192099869251251,-5.655523777008057,-11.699769973754883,26.700000762939453,-167.70001220703125,-30.30000114440918
194266,0.8523537516593933,3.8281149864196777,-0.013757288455963135,0.49542999267578125,-4.78661584854126,-17.507734298706055,43.5,-172.5,-31.500001907348633
194286,-1.612593412399292,-2.5654351711273193,0.6980328559875488,-0.457319974899292,-2.088428020477295,-14.96198558807373,53.10000228881836,-170.10000610351562,-29.700000762939453
194306,-1.83450448513031,-3.9752581119537354,0.7835673093795776,-1.1737879514694214,0.007621999830007553,-6.311016082763672,65.10000610351562,-167.70001220703125,-30.900001525878906
194329,0.30266034603118896,0.6992291212081909,0.12142302095890045,0.9756159782409668,0.1600620001554489,-0.3125019967556,65.10000610351562,-167.70001220703125,-29.700000762939453
194349,0.6597517132759094,1.8632153272628784,-0.04964586719870567,1.1128119230270386,0.739333987236023,-1.5396440029144287,69.9000015258789,-167.70001220703125,-30.30000114440918
194369,0.4342517852783203,0.5078234076499939,-0.3104361891746521,1.1661659479141235,0.228659987449646,-1.5701320171356201,65.10000610351562,-167.70001220703125,-29.100000381469727
194389,0.1812373250722885,-0.17764846980571747,-0.2631829082965851,1.5472660064697266,-0.4344539940357208,-0.6250039935112,72.30000305175781,-167.70001220703125,-30.30000114440918
194409,-0.10946016013622284,-0.9528417587280273,-0.02691643312573433,1.5396440029144287,-0.7850660085678101,-0.25152599811553955,72.30000305175781,-172.5,-27.900001525878906
194432,-0.11723602563142776,-0.5562729835510254,0.05502915382385254,1.0975680351257324,-1.189031958580017,0.5945159792900085,72.30000305175781,-167.70001220703125,-29.100000381469727
194453,0.12082488089799881,-0.1943964660167694,0.30804362893104553,-0.060975998640060425,-1.3033620119094849,0.8231759667396545,72.30000305175781,-165.3000030517578,-27.900001525878906
194473,0.09450659155845642,-0.6591535806655884,0.36307278275489807,-1.3186060190200806,-0.8993960022926331,1.0747020244598389,77.10000610351562,-165.3000030517578,-29.700000762939453
194493,0.12381559610366821,-0.8457741737365723,0.44382208585739136,-1.6615959405899048,-0.6097599864006042,1.7759259939193726,72.30000305175781,-162.90000915527344,-29.100000381469727
194514,0.6872662901878357,1.3111294507980347,-0.04665515199303627,-1.013725996017456,0.3048799932003021,3.445143938064575,69.9000015258789,-165.3000030517578,-29.700000762939453
194534,2.0289008617401123,5.584860801696777,-0.9456640481948853,-0.7469559907913208,0.967993974685669,6.166197776794434,67.5,-167.70001220703125,-29.100000381469727
194554,2.7831592559814453,10.737264633178711,-1.4893759489059448,-0.8689079880714417,2.3170878887176514,7.881147861480713,53.10000228881836,-170.10000610351562,-30.900001525878906
194598,10.993867874145508,19.532358169555664,-6.938458442687988,-3.1326420307159424,5.830830097198486,10.518360137939453,31.500001907348633,-167.70001220703125,-29.700000762939453
194660,13.82846736907959,19.599349975585938,-6.145320892333984,-0.9603719711303711,-1.8445239067077637,-2.5533699989318848,29.100000381469727,-162.90000915527344,-31.500001907348633
194680,9.120484352111816,19.599349975585938,-4.823424816131592,-0.41158798336982727,-1.9969639778137207,-4.115880012512207,33.900001525878906,-174.90000915527344,-30.900001525878906
194700,5.225377082824707,16.549419403076172,-4.162477016448975,-1.0061039924621582,-2.492393970489502,-5.8689398765563965,36.30000305175781,-162.90000915527344,-29.700000762939453
194720,2.1060614585876465,9.581053733825684,-1.84347665309906,0.7850660085678101,-5.838451862335205,-13.193681716918945,43.5,-167.70001220703125,-31.500001907348633
194780,0.1309933066368103,-0.602928102016449,1.0880221128463745,-1.9969639778137207,-1.067080020904541,-2.4695279598236084,77.10000610351562,-165.3000030517578,-29.100000381469727
194801,0.724949300289154,0.707004964351654,0.9259253144264221,-0.2896359860897064,0.5182960033416748,-1.806414008140564,77.10000610351562,-160.5,-31.500001907348633
194821,0.8595314621925354,0.7171733975410461,0.5610581040382385,0.426831990480423,0.7012239694595337,-0.7621999979019165,84.30000305175781,-170.10000610351562,-30.30000114440918
194842,0.5221788287162781,-0.38460594415664673,0.5807968378067017,0.8384199738502502,0.9070180058479309,-0.9756159782409668,81.9000015258789,-165.3000030517578,-30.30000114440918
194864,0.4240833520889282,-1.1597992181777954,0.4079335033893585,1.2728739976882935,0.8765299916267395,-0.5259180068969727,77.10000610351562,-170.10000610351562,-30.30000114440918
194884,0.3325674831867218,-0.9654027819633484,0.13218960165977478,1.1661659479141235,0.6707359552383423,0.48018598556518555,79.5,-165.3000030517578,-28.500001907348633
194905,0.2691643238067627,-0.32479164004325867,-0.17705032229423523,0.7774440050125122,0.16768398880958557,0.9908599853515625,79.5,-165.3000030517578,-29.100000381469727
194925,0.11005830764770508,-0.6830793023109436,-0.0957028716802597,0.02286599949002266,-0.5640279650688171,0.8155539631843567,79.5,-160.5,-27.30000114440918
194945,0.1250118762254715,-0.7865580320358276,0.20815375447273254,-0.6402480006217957,-1.1280559301376343,1.2347639799118042,77.10000610351562,-172.5,-29.700000762939453
194965,0.49645867943763733,1.5473958253860474,-0.14534874260425568,-0.6478700041770935,0.007621999830007553,2.797273874282837,84.30000305175781,-167.70001220703125,-29.100000381469727
194988,2.515191078186035,9.46022891998291,-2.339337110519409,0.6097599864006042,3.048799991607666,9.085423469543457,65.10000610351562,-162.90000915527344,-29.700000762939453
195008,3.2706458568573,16.39031410217285,-3.8945088386535645,-0.7012239694595337,5.182960033416748,7.9497456550598145,62.70000076293945,-165.3000030517578,-29.700000762939453
195028,6.482673645019531,19.599349975585938,-7.411589622497559,-1.3262280225753784,4.977165699005127,8.582371711730957,50.70000076293945,-165.3000030517578,-31.500001907348633
195048,4.183412075042725,14.356029510498047,-3.1408486366271973,0.23628199100494385,-8.094563484191895,-4.794238090515137,48.30000305175781,-167.70001220703125,-30.30000114440918
195068,3.8400778770446777,17.918569564819336,-2.8956100940704346,2.2180018424987793,1.8978779315948486,3.1707520484924316,45.900001525878906,-167.70001220703125,-30.30000114440918
195088,8.884217262268066,19.581405639648438,-7.205230236053467,-2.7591638565063477,7.614377975463867,9.710428237915039,45.900001525878906,-167.70001220703125,-28.500001907348633
195111,3.8550314903259277,17.372465133666992,-4.135560512542725,1.753059983253479,-2.2561118602752686,-11.524463653564453,50.70000076293945,-167.70001220703125,-30.900001525878906
195151,1.3123257160186768,10.538681030273438,-3.076847553253174,0.2743920087814331,-0.2134159952402115,-4.46649169921875,62.70000076293945,-167.70001220703125,-28.500001907348633
195196,0.12202116847038269,5.546579837799072,-1.345821738243103,-0.48018598556518555,-1.242385983467102,-2.8277618885040283,69.9000015258789,-167.70001220703125,-27.30000114440918
195265,0.9576268792152405,4.666113376617432,-0.35828763246536255,-2.332331895828247,-0.38109999895095825,-0.8765299916267395,72.30000305175781,-165.3000030517578,-29.100000381469727
195286,1.2166228294372559,4.189991474151611,-0.23507018387317657,-2.439039945602417,-0.08384199440479279,-1.0594580173492432,74.70000457763672,-167.70001220703125,-30.30000114440918
195328,2.1796329021453857,5.547177791595459,-0.34213778376579285,-2.28659987449646,1.14329993724823,0.3048799932003021,77.10000610351562,-170.10000610351562,-29.700000762939453
195369,2.578594446182251,6.2846879959106445,-0.8828590512275696,-2.14178204536438,2.3094658851623535,2.240867853164673,67.5,-167.70001220703125,-29.700000762939453
195504,5.020214080810547,12.561002731323242,-3.735402822494507,1.5548880100250244,-2.903981924057007,-2.599102020263672,67.5,-158.10000610351562,-29.700000762939453
195567,2.4990413188934326,6.921112537384033,-2.4481992721557617,0.9908599853515625,-2.5152599811553955,-3.094532012939453,72.30000305175781,-170.10000610351562,-30.900001525878906
195742,3.439321994781494,10.455538749694824,-1.6670244932174683,0.1295740008354187,-1.6082419157028198,-0.9298839569091797,86.70000457763672,-167.70001220703125,-29.100000381469727
195762,2.8088793754577637,8.046817779541016,-1.6598467826843262,0.6554920077323914,-1.1661659479141235,-2.530503988265991,89.10000610351562,-162.90000915527344,-29.700000762939453
195825,0.32718420028686523,11.911418914794922,-2.772392749786377,0.07621999830007553,-2.3094658851623535,0.9832379817962646,91.5,-160.5,-28.500001907348633
195887,-2.759831666946411,10.372397422790527,-3.8969013690948486,0.3887220025062561,-1.425313949584961,0.02286599949002266,91.5,-158.10000610351562,-28.500001907348633
195986,-1.5491902828216553,10.151083946228027,-3.0445477962493896,1.196653962135315,-0.4878079891204834,-4.878079891204834,105.9000015258789,-158.10000610351562,-27.30000114440918
196007,-1.3757288455963135,9.088184356689453,-2.9877240657806396,1.7911700010299683,-0.8917739987373352,-4.763750076293945,110.70000457763672,-162.90000915527344,-28.500001907348633
196049,-0.8015115857124329,8.248990058898926,-1.9409739971160889,0.6097599864006042,-0.10670799762010574,-1.9512319564819336,117.9000015258789,-155.70001220703125,-26.700000762939453
196070,-0.617881715297699,8.38058090209961,-1.9559274911880493,0.2439039945602417,0.28201398253440857,-1.2118979692459106,113.10000610351562,-155.70001220703125,-28.500001907348633
196090,-0.62147057056427,7.948123931884766,-1.845271110534668,0.1295740008354187,0.28201398253440857,-1.5015339851379395,125.10000610351562,-160.5,-26.100000381469727
196112,-0.01914057508111,8.460732460021973,-1.924225926399231,0.2896359860897064,-0.18292799592018127,-1.4024479389190674,113.10000610351562,-153.3000030517578,-26.100000381469727
196132,0.4533923864364624,8.277700424194336,-1.7651199102401733,0.12195199728012085,-0.5564059615135193,-1.753059983253479,129.90000915527344,-153.3000030517578,-26.100000381469727
196152,0.7237529754638672,7.926590442657471,-1.7705031633377075,0.2134159952402115,-0.6478700041770935,-1.6692179441452026,122.70000457763672,-158.10000610351562,-25.500001907348633
196172,0.6759015321731567,8.299832344055176,-2.244232416152954,0.4878079891204834,-0.5792719721794128,-1.1128119230270386,125.10000610351562,-158.10000610351562,-26.100000381469727
196192,0.6447980999946594,8.781336784362793,-2.5002377033233643,0.22103799879550934,-0.8689079880714417,-0.8841519951820374,125.10000610351562,-155.70001220703125,-26.100000381469727
196212,1.003085732460022,9.409985542297363,-2.6402029991149902,-0.09146399796009064,-0.9451279640197754,-1.2652519941329956,122.70000457763672,-150.90000915527344,-25.500001907348633
196233,1.2411466836929321,9.47518253326416,-3.2688512802124023,-0.2896359860897064,0.1448179930448532,-1.653973937034607,127.50000762939453,-158.10000610351562,-27.30000114440918
196295,1.8620190620422363,11.234919548034668,-3.8113670349121094,0.02286599949002266,0.6783579587936401,-1.371959924697876,132.3000030517578,-150.90000915527344,-27.30000114440918
196343,1.3811120986938477,9.179101943969727,-3.6881494522094727,0.8460419774055481,0.015243999660015106,-1.8597679138183594,129.90000915527344,-146.10000610351562,-23.700000762939453
196363,1.2889981269836426,8.992481231689453,-3.42795729637146,0.44969800114631653,-0.2743920087814331,-0.7545779943466187,132.3000030517578,-150.90000915527344,-26.100000381469727
196406,1.2166228294372559,7.408598899841309,-2.6695120334625244,-0.3277460038661957,-0.7545779943466187,0.09146399796009064,139.5,-146.10000610351562,-24.30000114440918
196428,1.738203525543213,7.537797927856445,-2.6031181812286377,-0.20579399168491364,-0.17530599236488342,0.9451279640197754,134.70001220703125,-155.70001220703125,-26.100000381469727
196448,2.056415557861328,8.728102684020996,-2.9883222579956055,0.02286599949002266,-0.04573199898004532,1.425313949584961,137.10000610351562,-148.5,-25.500001907348633
196469,2.4158995151519775,8.322561264038086,-2.7251393795013428,-0.38109999895095825,-0.3582339882850647,0.8079319596290588,134.70001220703125,-146.10000610351562,-24.30000114440918
196510,2.5289485454559326,7.087396144866943,-3.797011613845825,-1.0594580173492432,2.8811159133911133,-1.5472660064697266,132.3000030517578,-148.5,-25.500001907348633
196530,2.2549989223480225,7.17771577835083,-5.4030256271362305,0.5564059615135193,3.5975840091705322,-1.3948259353637695,137.10000610351562,-150.90000915527344,-24.30000114440918
196552,2.5971367359161377,9.387255668640137,-6.501215934753418,0.4420759975910187,1.4100699424743652,-0.8384199738502502,134.70001220703125,-146.10000610351562,-24.900001525878906
196572,2.9757611751556396,9.451855659484863,-6.657331466674805,-0.5030519962310791,1.6768399477005005,-3.0792880058288574,137.10000610351562,-150.90000915527344,-24.30000114440918
196614,2.721550464630127,8.685035705566406,-6.4491777420043945,-0.9298839569091797,5.304912090301514,-6.440589904785156,141.90000915527344,-141.3000030517578,-24.900001525878906
196644,1.2955776453018188,7.3583550453186035,-6.441401481628418,-1.6768399477005005,9.329327583312988,-8.247003555297852,149.10000610351562,-138.90000915527344,-23.700000762939453
196664,0.20935003459453583,6.645368576049805,-5.9126434326171875,-1.4939119815826416,9.984819412231445,-8.574749946594238,156.3000030517578,-134.10000610351562,-21.30000114440918
196704,-0.924130916595459,5.594431400299072,-3.3615634441375732,-2.3475759029388428,10.152503967285156,-9.74853801727295,168.3000030517578,-129.3000030517578,-21.30000114440918
196726,-1.2572965621948242,4.50162410736084,-2.489470958709717,-2.942091941833496,11.836965560913086,-10.525981903076172,177.90000915527344,-134.10000610351562,-21.900001525878906
196747,-1.2417447566986084,5.062084197998047,-1.7968214750289917,-3.513741970062256,12.78209400177002,-9.352193832397461,177.90000915527344,-129.3000030517578,-18.900001525878906
196767,-2.2035586833953857,6.140535831451416,-1.4618613719940186,-4.237832069396973,14.489421844482422,-9.542743682861328,187.5,-119.70000457763672,-18.900001525878906
196788,-2.1293890476226807,7.56411600112915,-0.9420751929283142,-5.510705947875977,14.20740795135498,-9.405548095703125,189.90000915527344,-122.10000610351562,-18.30000114440918
196808,-2.9883222579956055,9.406994819641113,0.9002051949501038,-7.60675573348999,14.977230072021484,-9.519877433776855,194.70001220703125,-114.9000015258789,-17.700000762939453
196829,-4.75164794921875,7.837467193603516,-1.8985058069229126,-4.603687763214111,15.800405502319336,-8.376577377319336,197.10000610351562,-112.50000762939453,-17.100000381469727
196849,-6.152498722076416,9.860386848449707,-1.4540855884552002,-2.6143460273742676,13.864418029785156,-7.347607612609863,199.50001525878906,-107.70000457763672,-14.700000762939453
196869,-7.1998467445373535,11.625506401062012,-1.7908400297164917,-2.187514066696167,10.045795440673828,-6.478699684143066,201.90000915527344,-110.10000610351562,-15.90000057220459
196889,-7.185491561889648,13.537171363830566,-1.3649622201919556,-1.6234859228134155,7.1951680183410645,-4.900945663452148,204.3000030517578,-102.9000015258789,-14.100000381469727
196909,-7.7579145431518555,11.762481689453125,-1.62336003780365,-1.1280559301376343,4.032037734985352,-3.871975898742676,209.10000610351562,-110.10000610351562,-15.300000190734863
196929,-7.904459476470947,12.83435344696045,-1.7836623191833496,-0.15243999660015106,0.6402480006217957,-1.0289700031280518,206.70001220703125,-105.30000305175781,-15.300000190734863
196949,-7.3553643226623535,14.61622142791748,-1.746577501296997,-0.5640279650688171,-2.8734939098358154,0.914639949798584,206.70001220703125,-100.50000762939453,-15.90000057220459
196969,-6.7291083335876465,14.92605972290039,-1.4576743841171265,-0.9222619533538818,-4.977165699005127,1.6692179441452026,204.3000030517578,-100.50000762939453,-15.90000057220459
196989,-7.116106986999512,13.75669002532959,-2.0516304969787598,-0.5182960033416748,-6.402479648590088,2.7058098316192627,201.90000915527344,-107.70000457763672,-15.90000057220459
197012,-6.664508819580078,12.926467895507812,-1.9894235134124756,-0.2591480016708374,-9.306461334228516,4.67990779876709,211.50001525878906,-107.70000457763672,-16.5
197032,-6.008346080780029,12.390531539916992,-1.8470654487609863,-0.2134159952402115,-10.868971824645996,6.730226039886475,206.70001220703125,-110.10000610351562,-17.700000762939453
197054,-5.675180435180664,10.940632820129395,-1.6777909994125366,-0.19817200303077698,-12.865935325622559,8.361333847045898,204.3000030517578,-117.30000305175781,-20.100000381469727
197074,-4.347901344299316,10.222861289978027,-1.539620041847229,0.19054999947547913,-14.108322143554688,9.82475757598877,199.50001525878906,-122.10000610351562,-21.900001525878906
197094,-3.5075104236602783,8.987696647644043,-1.530647873878479,0.9222619533538818,-14.077834129333496,9.840002059936523,189.90000915527344,-119.70000457763672,-22.5
197114,-2.4272642135620117,8.487051010131836,-1.7489700317382812,2.027451992034912,-13.864418029785156,10.007685661315918,182.70001220703125,-131.70001220703125,-24.30000114440918
197134,-1.618574857711792,8.2202787399292,-1.521675705909729,2.240867853164673,-13.544293403625488,9.664695739746094,182.70001220703125,-131.70001220703125,-26.100000381469727
197154,-1.205856204032898,7.897879600524902,-1.7914382219314575,2.339953899383545,-11.913186073303223,8.757678031921387,175.5,-131.70001220703125,-24.900001525878906
197175,-1.2566983699798584,7.214202404022217,-2.1479313373565674,2.385685920715332,-10.762263298034668,7.263765811920166,165.90000915527344,-141.3000030517578,-25.500001907348633
197195,-0.9719823002815247,7.3553643226623535,-2.772392749786377,2.4619059562683105,-10.083906173706055,6.333881855010986,163.5,-136.5,-26.100000381469727
197215,-0.7931375503540039,7.000665187835693,-2.7412891387939453,2.088428020477295,-10.137259483337402,5.243936061859131,165.90000915527344,-141.3000030517578,-27.900001525878906
197235,-0.15970417857170105,7.538993835449219,-2.7203543186187744,2.0503180027008057,-10.358297348022461,4.992409706115723,156.3000030517578,-146.10000610351562,-26.700000762939453
197258,0.25122004747390747,6.679462432861328,-2.244232416152954,2.2103798389434814,-9.878111839294434,4.1387457847595215,151.5,-143.70001220703125,-28.500001907348633
197278,0.3122306168079376,6.641181468963623,-2.133575916290283,2.0122079849243164,-7.484803676605225,2.8125178813934326,151.5,-148.5,-28.500001907348633
197300,0.5227769613265991,6.814044952392578,-2.706596851348877,2.850627899169922,-6.158576011657715,2.9268479347229004,149.10000610351562,-143.70001220703125,-26.700000762939453
197362,0.8708961606025696,6.959393501281738,-3.2144203186035156,1.875011920928955,-2.1646480560302734,1.2576299905776978,144.3000030517578,-150.90000915527344,-27.900001525878906
197422,1.0054783821105957,9.364526748657227,-4.495044231414795,2.6753220558166504,-1.3414719104766846,0.2591480016708374,144.3000030517578,-150.90000915527344,-24.900001525878906
197442,1.3476160764694214,9.869956970214844,-4.465137481689453,2.492393970489502,-1.2347639799118042,0.22103799879550934,141.90000915527344,-148.5,-27.30000114440918
197462,0.9839451909065247,9.487743377685547,-3.8771626949310303,1.2881180047988892,-0.7317119836807251,-0.8841519951820374,146.70001220703125,-141.3000030517578,-24.30000114440918
197482,0.40972793102264404,8.926685333251953,-4.298853397369385,0.35061198472976685,1.6692179441452026,-1.478667974472046,146.70001220703125,-146.10000610351562,-24.900001525878906
197502,0.16090045869350433,8.80406665802002,-4.64996337890625,0.7545779943466187,2.134160041809082,-1.4558019638061523,146.70001220703125,-148.5,-24.30000114440918
197524,-0.19619089365005493,8.798683166503906,-4.813854694366455,1.6692179441452026,1.5701320171356201,-0.8612859845161438,139.5,-148.5,-24.30000114440918
197584,0.5054308176040649,8.867469787597656,-4.096681118011475,0.853663980960846,0.02286599949002266,1.1509219408035278,144.3000030517578,-155.70001220703125,-25.500001907348633
197606,0.8870460391044617,8.84294605255127,-3.881349802017212,0.3048799932003021,0.6478700041770935,0.8993960022926331,141.90000915527344,-146.10000610351562,-25.500001907348633
197626,0.8589333295822144,9.294543266296387,-4.108046054840088,0.3201240003108978,1.0518360137939453,0.35061198472976685,139.5,-148.5,-23.100000381469727
197669,0.706406831741333,8.76698112487793,-3.6672146320343018,-0.22103799879550934,1.5396440029144287,-0.7621999979019165,141.90000915527344,-141.3000030517578,-23.100000381469727
197710,0.17047074437141418,8.462526321411133,-3.6408963203430176,-0.7621999979019165,1.8673899173736572,-0.685979962348938,146.70001220703125,-148.5,-24.30000114440918
197730,0.14175988733768463,8.385964393615723,-3.5374176502227783,-0.6250039935112,1.5015339851379395,-0.36585599184036255,146.70001220703125,-148.5,-23.100000381469727
197750,0.23327575623989105,8.553444862365723,-3.451284885406494,-0.4725639820098877,1.1051899194717407,-0.16768398880958557,141.90000915527344,-143.70001220703125,-22.5
197790,0.5730209946632385,8.598304748535156,-3.549380302429199,-0.5564059615135193,0.5868939757347107,-0.2439039945602417,141.90000915527344,-146.10000610351562,-21.900001525878906
197810,0.8224465847015381,8.519948959350586,-3.624746322631836,-0.571649968624115,0.5259180068969727,-0.2972579896450043,139.5,-141.3000030517578,-24.30000114440918
197830,1.2303800582885742,8.716139793395996,-3.7330102920532227,-0.5564059615135193,0.5868939757347107,-0.4420759975910187,139.5,-141.3000030517578,-24.30000114440918
197853,1.4798057079315186,8.79808521270752,-3.9417622089385986,-1.2347639799118042,1.2271419763565063,-1.0289700031280518,139.5,-146.10000610351562,-22.5
197913,1.3512049913406372,6.796100616455078,-5.697909832000732,-0.9908599853515625,3.155508041381836,-2.5000159740448,149.10000610351562,-146.10000610351562,-21.900001525878906
197933,1.630537748336792,8.588136672973633,-6.570002555847168,-0.4192099869251251,2.3170878887176514,-0.44969800114631653,139.5,-141.3000030517578,-23.100000381469727
197953,1.3864953517913818,8.739466667175293,-6.494038105010986,-1.0442140102386475,2.690565824508667,-2.5228819847106934,144.3000030517578,-143.70001220703125,-23.700000762939453
197973,1.2387540340423584,7.989993572235107,-6.67168664932251,-0.6250039935112,3.551851987838745,-4.184477806091309,153.90000915527344,-138.90000915527344,-24.30000114440918
197993,1.1448456048965454,8.40151596069336,-5.859408378601074,-0.6097599864006042,3.2698378562927246,-4.496979713439941,156.3000030517578,-134.10000610351562,-22.5
198013,0.5873764157295227,8.595314025878906,-4.969969749450684,-2.0503180027008057,5.228692054748535,-5.823207855224609,156.3000030517578,-138.90000915527344,-22.5
198036,0.1369747370481491,7.568303108215332,-4.441211700439453,-3.2317278385162354,7.67535400390625,-7.515291690826416,158.70001220703125,-138.90000915527344,-23.100000381469727
198056,-0.6334334015846252,6.518562316894531,-3.6325223445892334,-3.5975840091705322,8.940606117248535,-8.772921562194824,168.3000030517578,-138.90000915527344,-22.5
198076,-1.2513151168823242,5.626730918884277,-2.5259578227996826,-3.3384358882904053,10.03817367553711,-9.32170581817627,173.10000610351562,-131.70001220703125,-22.5
198096,-1.3045498132705688,6.345698833465576,-1.7370071411132812,-3.246971845626831,11.280559539794922,-8.582371711730957,175.5,-131.70001220703125,-20.700000762939453
198119,-1.0760592222213745,7.1968560218811035,-1.3607752323150635,-4.565577983856201,13.635757446289062,-9.123534202575684,182.70001220703125,-124.50000762939453,-18.900001525878906
198139,-0.9456640481948853,6.525739669799805,-1.2866054773330688,-4.847591876983643,15.17540168762207,-10.061039924621582,185.10000610351562,-122.10000610351562,-22.5
198159,-1.3930749893188477,5.865389823913574,-0.8852515816688538,-4.969543933868408,16.143396377563477,-10.03055191040039,192.3000030517578,-117.30000305175781,-20.100000381469727
198183,-2.4069273471832275,7.6801557540893555,-1.4923666715621948,-4.207344055175781,17.484867095947266,-9.634207725524902,197.10000610351562,-117.30000305175781,-18.30000114440918
198203,-2.8070850372314453,7.640079975128174,-1.8297193050384521,-3.513741970062256,16.646448135375977,-9.809514045715332,199.50001525878906,-107.70000457763672,-14.700000762939453
198223,-4.191187858581543,9.519445419311523,-1.9660959243774414,-2.278977870941162,15.167779922485352,-8.864385604858398,204.3000030517578,-110.10000610351562,-15.300000190734863
198243,-5.179319858551025,9.618139266967773,-2.349505662918091,-1.8521459102630615,12.362883567810059,-8.78054428100586,209.10000610351562,-100.50000762939453,-14.700000762939453
198263,-5.633908748626709,11.529804229736328,-1.8081861734390259,-1.4100699424743652,9.458901405334473,-6.562541961669922,206.70001220703125,-102.9000015258789,-14.700000762939453
198346,-6.807465076446533,14.019274711608887,-0.6884625554084778,-1.600619912147522,-1.1051899194717407,-1.7759259939193726,218.70001220703125,-93.30000305175781,-12.300000190734863
198567,-1.2644742727279663,7.51626443862915,-2.5092098712921143,2.903981924057007,-12.926911354064941,9.474145889282227,177.90000915527344,-134.10000610351562,-25.500001907348633
198588,-0.9354956150054932,6.84096097946167,-2.7311208248138428,2.743919849395752,-11.882698059082031,7.8506598472595215,175.5,-136.5,-24.30000114440918
198631,-0.20336860418319702,7.402019500732422,-2.858525276184082,2.3170878887176514,-9.405548095703125,5.655523777008057,165.90000915527344,-141.3000030517578,-26.100000381469727
198651,0.19499461352825165,7.080218315124512,-2.828618049621582,1.5396440029144287,-9.710428237915039,6.257661819458008,163.5,-136.5,-27.30000114440918
198671,0.6519758105278015,7.550358772277832,-2.26875638961792,0.426831990480423,-7.469559669494629,4.618931770324707,161.10000610351562,-143.70001220703125,-27.30000114440918
198691,0.6477888226509094,6.543684005737305,-2.6748952865600586,-0.22103799879550934,-5.0000319480896,3.3689239025115967,156.3000030517578,-148.5,-27.30000114440918
198736,0.8553444743156433,7.015618801116943,-3.43094801902771,1.829279899597168,-4.405515670776367,4.062525749206543,144.3000030517578,-148.5,-29.700000762939453
198756,1.3392421007156372,8.948219299316406,-3.520669460296631,2.6295900344848633,-3.8795979022979736,3.208861827850342,146.70001220703125,-155.70001220703125,-27.900001525878906
198776,1.4576743841171265,9.321459770202637,-3.827516794204712,2.3170878887176514,-2.7667858600616455,0.48018598556518555,141.90000915527344,-146.10000610351562,-26.100000381469727
198796,1.1885100603103638,8.763392448425293,-3.9339864253997803,1.9512319564819336,-2.195136070251465,-0.9451279640197754,149.10000610351562,-146.10000610351562,-27.30000114440918
198818,0.2326776087284088,7.728605270385742,-4.7127685546875,1.707327961921692,-0.4344539940357208,-0.426831990480423,146.70001220703125,-153.3000030517578,-26.700000762939453
198879,-0.0065795728005468845,8.608473777770996,-4.869482040405273,1.646351933479309,0.8155539631843567,-1.1128119230270386,151.5,-150.90000915527344,-24.900001525878906
198925,0.3828114867210388,8.930274963378906,-4.808471202850342,2.5228819847106934,0.05335399881005287,-0.8460419774055481,151.5,-143.70001220703125,-24.900001525878906
198945,0.6543684005737305,8.94941520690918,-4.44480037689209,1.92836594581604,0.3277460038661957,-0.914639949798584,153.90000915527344,-143.70001220703125,-23.700000762939453
198987,0.8810645937919617,8.61385726928711,-4.581775188446045,0.35061198472976685,1.9893419742584229,-1.0975680351257324,156.3000030517578,-141.3000030517578,-23.100000381469727
199007,1.2082488536834717,9.520641326904297,-4.46872615814209,1.2195199728012085,1.4024479389190674,-0.35061198472976685,151.5,-141.3000030517578,-21.900001525878906
199027,1.2698575258255005,8.39673137664795,-3.711477041244507,0.08384199440479279,1.5167779922485352,-0.967993974685669,153.90000915527344,-141.3000030517578,-22.5
199049,1.3374476432800293,8.27710247039795,-3.326871156692505,0.030487999320030212,1.699705958366394,-0.7698220014572144,153.90000915527344,-138.90000915527344,-22.5
199069,0.8966163396835327,8.45235824584961,-3.603811502456665,-0.46494197845458984,2.5152599811553955,-0.6478700041770935,156.3000030517578,-138.90000915527344,-23.100000381469727
199089,0.5365342497825623,9.109119415283203,-4.060194492340088,0.09146399796009064,2.2561118602752686,-0.49542999267578125,153.90000915527344,-138.90000915527344,-23.100000381469727
199109,0.41690564155578613,9.604381561279297,-3.969874858856201,0.5487840175628662,1.4405579566955566,-0.6554920077323914,146.70001220703125,-136.5,-22.5
199133,0.014953574165701866,9.848423957824707,-3.743178606033325,0.1295740008354187,1.1356779336929321,-0.6783579587936401,151.5,-134.10000610351562,-21.30000114440918
199153,-0.6495832800865173,10.510568618774414,-3.761122941970825,-0.19817200303077698,1.4024479389190674,-0.4878079891204834,149.10000610351562,-143.70001220703125,-21.30000114440918
199173,-1.452889323234558,10.936446189880371,-4.151710510253906,-0.7317119836807251,1.753059983253479,-1.1814099550247192,153.90000915527344,-136.5,-21.900001525878906
199237,-1.6508746147155762,7.669389247894287,-2.941667079925537,0.20579399168491364,-1.2271419763565063,1.577754020690918,158.70001220703125,-138.90000915527344,-22.5
199287,-1.4343467950820923,6.54428243637085,-2.4224791526794434,-1.0442140102386475,0.39634400606155396,-0.030487999320030212,153.90000915527344,-134.10000610351562,-20.700000762939453
199329,-2.3297669887542725,6.366633892059326,-3.2658605575561523,-0.36585599184036255,0.7012239694595337,-0.2972579896450043,158.70001220703125,-141.3000030517578,-21.30000114440918
199408,0.5730209946632385,11.498700141906738,-4.138551235198975,0.015243999660015106,0.853663980960846,0.8612859845161438,141.90000915527344,-143.70001220703125,-22.5
199448,0.3887929320335388,10.02906322479248,-4.163673400878906,0.060975998640060425,-0.3277460038661957,-2.3170878887176514,153.90000915527344,-141.3000030517578,-22.5
199468,0.1752558946609497,8.816627502441406,-4.25459098815918,0.02286599949002266,-0.9832379817962646,-1.7149499654769897,158.70001220703125,-150.90000915527344,-22.5
199492,0.2895011901855469,9.106128692626953,-4.194178581237793,-0.18292799592018127,-1.295740008354187,-0.3125019967556,158.70001220703125,-136.5,-20.700000762939453
199532,0.8469704389572144,8.218484878540039,-4.157691955566406,-1.9512319564819336,-0.3887220025062561,-1.189031958580017,156.3000030517578,-143.70001220703125,-20.100000381469727
199574,1.430757999420166,7.234539031982422,-5.169749736785889,-2.9116039276123047,2.2637338638305664,-2.179892063140869,153.90000915527344,-136.5,-21.900001525878906
199650,1.4373375177383423,7.592228889465332,-7.613163948059082,0.5030519962310791,3.460387945175171,-4.771371841430664,156.3000030517578,-136.5,-23.700000762939453
199670,1.9308055639266968,7.829691410064697,-6.406111240386963,0.7088459730148315,3.0183119773864746,-5.2058258056640625,168.3000030517578,-129.3000030517578,-23.100000381469727
199710,0.500645637512207,6.583759784698486,-5.4592509269714355,-1.829279899597168,9.161643981933594,-6.486321926116943,170.70001220703125,-131.70001220703125,-20.700000762939453
199750,-0.5598618388175964,5.498728275299072,-3.2652623653411865,-2.6219680309295654,10.343053817749023,-7.888769626617432,180.3000030517578,-124.50000762939453,-20.700000762939453
199770,-1.117929220199585,4.661328315734863,-1.82553231716156,-3.5442299842834473,11.859831809997559,-9.024447441101074,185.10000610351562,-119.70000457763672,-18.900001525878906
199814,-1.007272720336914,4.811461925506592,-0.3606802225112915,-4.10825777053833,17.301939010620117,-8.826275825500488,197.10000610351562,-114.9000015258789,-16.5
199834,-2.5791923999786377,7.815934181213379,-1.5940510034561157,-4.2988080978393555,19.57329559326172,-7.6982197761535645,192.3000030517578,-110.10000610351562,-14.100000381469727
199854,-3.2945713996887207,9.44527530670166,-1.4977500438690186,-4.230209827423096,17.804990768432617,-9.489389419555664,197.10000610351562,-112.50000762939453,-14.100000381469727
199874,-4.113429069519043,7.902665138244629,-0.9295141696929932,-3.4222779273986816,17.61444091796875,-11.707391738891602,199.50001525878906,-110.10000610351562,-12.90000057220459
199895,-5.520261287689209,10.457931518554688,-2.012152910232544,-2.39330792427063,18.483348846435547,-9.024447441101074,204.3000030517578,-100.50000762939453,-11.100000381469727
199915,-6.870270252227783,13.86016845703125,-3.771291494369507,-3.0640439987182617,15.960467338562012,-7.35522985458374,206.70001220703125,-102.9000015258789,-9.300000190734863
199935,-6.651947975158691,12.126152038574219,-2.330963134765625,-3.9786839485168457,7.995477676391602,-8.376577377319336,201.90000915527344,-98.10000610351562,-8.100000381469727
199956,-7.003057956695557,11.955681800842285,-1.622761845588684,-3.307947874069214,6.951263904571533,-5.373509883880615,211.50001525878906,-95.70000457763672,-8.100000381469727
199976,-6.592133522033691,14.85547924041748,-2.071967363357544,-4.032037734985352,2.4237959384918213,-2.8734939098358154,204.3000030517578,-98.10000610351562,-8.100000381469727
199998,-7.36194372177124,13.667567253112793,-0.7662211656570435,-4.123501777648926,-0.4725639820098877,-3.5899620056152344,209.10000610351562,-88.5,-9.300000190734863
200018,-8.300430297851562,14.122754096984863,-1.7716994285583496,-1.7759259939193726,-2.0122079849243164,-1.4100699424743652,216.3000030517578,-93.30000305175781,-9.90000057220459
200038,-8.87883472442627,14.39730167388916,-2.750859498977661,-0.17530599236488342,-7.873525619506836,1.8597679138183594,218.70001220703125,-93.30000305175781,-10.5
200058,-8.571389198303223,13.52580738067627,-2.5983331203460693,0.17530599236488342,-10.350675582885742,3.1402640342712402,216.3000030517578,-98.10000610351562,-11.100000381469727
200102,-5.550766944885254,11.444269180297852,-2.143744468688965,1.3795819282531738,-16.516874313354492,9.82475757598877,211.50001525878906,-102.9000015258789,-15.90000057220459
200128,-4.849743366241455,10.19534683227539,-2.193390369415283,1.5548880100250244,-17.423891067504883,9.931466102600098,204.3000030517578,-107.70000457763672,-17.700000762939453
200148,-4.073951721191406,8.440993309020996,-2.164679527282715,2.179892063140869,-18.399507522583008,8.887251853942871,209.10000610351562,-114.9000015258789,-19.5
200188,-2.0498359203338623,7.40082311630249,-0.8978126049041748,4.557955741882324,-16.905595779418945,8.89487361907959,201.90000915527344,-119.70000457763672,-21.900001525878906
200208,-1.8566358089447021,7.655632019042969,-1.528853416442871,4.57319974899292,-14.054967880249023,8.132674217224121,197.10000610351562,-126.9000015258789,-22.5
200231,-1.906281590461731,6.363044738769531,-2.6180717945098877,3.818621873855591,-11.455865859985352,7.4390716552734375,187.5,-124.50000762939453,-25.500001907348633
200251,-2.2095401287078857,6.3361287117004395,-3.0630900859832764,2.9344699382781982,-10.82323932647705,7.263765811920166,187.5,-131.70001220703125,-23.100000381469727
200271,-1.627547025680542,5.848641872406006,-3.261075496673584,2.3018438816070557,-10.266833305358887,6.5244317054748535,180.3000030517578,-129.3000030517578,-26.100000381469727
200291,-0.7231548428535461,6.2882771492004395,-2.792729616165161,2.3170878887176514,-10.663177490234375,6.89028787612915,180.3000030517578,-134.10000610351562,-25.500001907348633
200314,0.011364716105163097,6.774567127227783,-2.4368345737457275,1.6387299299240112,-8.841519355773926,5.853695869445801,165.90000915527344,-129.3000030517578,-24.900001525878906
200334,0.0897214487195015,6.034066200256348,-2.6611380577087402,1.9054999351501465,-6.615895748138428,4.1921000480651855,173.10000610351562,-138.90000915527344,-26.100000381469727
200354,0.4354480803012848,5.993392467498779,-2.6569511890411377,2.8201398849487305,-5.586925983428955,4.53508996963501,168.3000030517578,-134.10000610351562,-27.30000114440918
200374,0.19379831850528717,6.378596782684326,-3.4207797050476074,2.5533699989318848,-2.843005895614624,4.4436259269714355,161.10000610351562,-134.10000610351562,-26.700000762939453
200418,0.37144678831100464,8.378188133239746,-3.862807273864746,3.9405739307403564,-3.193617820739746,5.0533857345581055,151.5,-141.3000030517578,-24.30000114440918
200438,0.5245713591575623,9.360339164733887,-4.291077613830566,2.3475759029388428,-1.2195199728012085,3.163130044937134,153.90000915527344,-143.70001220703125,-24.900001525878906
