time,sensor_accX,sensor_accY,sensor_accZ,sensor_gyroX,sensor_gyroY,sensor_gyroZ,sensor_magX,sensor_magY,sensor_magZ,label_Boxing_slip_left,label_Boxing_slip_right,label_Boxing_pullback,label_Boxing_roll_left,label_Boxing_roll_right,label_Boxing_recording_cut
114847,1.6245563,8.546267,-3.3430212,-0.015244,2.2180018,-1.33385,101.100006,-160.5,-12.3,,,,,,
115013,1.907478,8.984706,-3.8568258,-0.106708,-3.041178,-2.980202,98.700005,-162.90001,-17.7,,,,,,
115033,1.6598468,8.266934,-3.192887,-0.777444,-3.2622159,-2.7896519,110.700005,-155.70001,-11.700001,,,,,,
115114,1.7728958,8.9894905,-2.903984,-0.40396598,-0.525918,-1.280496,105.9,-155.70001,-22.5,,,,,,
115134,1.740596,9.109119,-2.8680956,-0.46494198,-0.67073596,-1.707328,115.50001,-162.90001,-20.1,,,,,,
115198,1.7268387,8.658718,-2.6330254,-0.106708,0.045732,-1.463424,127.50001,-153.3,-8.1,,,,,,
115218,1.6783892,8.948219,-2.8525438,-0.053354,0.144818,-1.051836,110.700005,-158.1,-21.300001,,,,,,
115238,1.7854568,9.655822,-3.0272017,0.274392,0.327746,-0.47256398,110.700005,-153.3,-9.900001,,,,,,
115282,1.117331,8.57438,-3.108549,0.091464,-0.251526,-1.56251,120.3,-155.70001,-17.1,,,,,,
115312,1.0288059,9.372302,-3.1653726,0.884152,-0.373478,0.17530599,129.90001,-162.90001,-18.900002,,,,,,
115332,1.1789398,10.709152,-3.8227317,0.94512796,-0.47256398,0.365856,125.100006,-148.5,-20.1,,,,,,
115372,-0.23148133,8.170633,-3.179728,1.036592,-1.204276,-0.312502,120.3,-162.90001,-15.900001,,,,,,
115415,-0.748875,9.7993765,-3.5422027,-0.15244,-1.21952,-0.121952,141.90001,-146.1,-14.700001,,,,,,
115435,-0.91934574,9.00265,-3.0194256,-0.365856,-1.554888,-0.34298998,120.3,-150.90001,-17.1,,,,,,
115455,-0.9719823,9.927379,-3.0397625,-0.358234,-0.92988396,0.663114,127.50001,-146.1,-12.900001,,,,,,
115495,-1.9547312,8.626418,-2.5779963,-1.3719599,-0.64787,-2.195136,129.90001,-146.1,-13.500001,,,,,,
115539,-2.5863702,8.689223,-3.1863077,0.503052,-0.449698,-0.655492,137.1,-146.1,-14.1,,,,,,
115559,-2.2699525,9.653429,-3.343619,1.265252,-0.830798,-0.243904,117.9,-150.90001,-18.900002,,,,,,
115599,-2.263971,8.38417,-2.8214405,0.541162,-0.41158798,-1.303362,125.100006,-146.1,-18.300001,,,,,,
115641,-1.832112,8.500808,-2.6802785,-0.434454,0.899396,-0.92988396,134.70001,-153.3,-11.700001,,,,,,
115691,-1.3224941,9.00265,-2.4003477,-2.012208,2.01983,-1.8902559,129.90001,-153.3,-11.1,,,,,,
115736,-0.8631203,8.5360985,-2.4990413,-0.82317597,0.746956,-0.26677,139.5,-146.1,-18.300001,,,,,,
115776,-0.68846256,9.095961,-2.932097,-0.144818,0.45731997,0.518296,129.90001,-158.1,-18.900002,,,,,,
115796,-0.4246815,9.441687,-3.1904945,-0.022866,0.388722,-0.23628199,122.700005,-143.70001,-19.5,,,,,,
115816,-0.50842154,9.595409,-3.451285,0.46494198,0.243904,-0.541162,137.1,-150.90001,-16.5,,,,,,
115856,-0.20635933,9.185681,-3.3519933,-0.34298998,-0.160062,-1.471046,139.5,-153.3,-18.900002,,,,,,
115878,-0.31522134,8.747243,-3.5948393,0.091464,0.327746,-0.64787,139.5,-148.5,-18.900002,,,,,,
115918,-0.12919888,8.602492,-3.376517,0.030488,0.221038,0.106708,122.700005,-158.1,-14.1,,,,,,
116034,0.22609805,8.956593,-3.3944614,-0.602138,-0.099086,0.137196,139.5,-150.90001,-17.1,,,,,,
116055,0.040075578,9.034949,-3.4596589,-0.82317597,0.022866,-0.045732,146.70001,-143.70001,-15.3,,,,,,
116095,-0.12860073,9.057081,-3.1438394,-0.998482,0.106708,-0.365856,122.700005,-153.3,-11.1,,,,,,
116117,-0.2548089,8.590529,-3.2437294,-0.365856,0.586894,-0.297258,141.90001,-153.3,-23.7,,,,,,
116137,-0.39477435,9.019996,-3.070866,-0.16768399,0.388722,0.525918,132.3,-155.70001,-14.1,,,,,,
116157,-0.31641763,8.99966,-3.0696697,-0.16768399,0.56402797,0.289636,129.90001,-148.5,-15.900001,,,,,,
116197,-0.23088318,9.15099,-3.091801,-0.160062,0.93750596,0.30488,122.700005,-146.1,-20.1,,,,,,
116217,-0.40613908,9.147999,-3.2407386,-0.274392,1.036592,0.007622,132.3,-155.70001,-18.300001,,,,,,
116278,-0.4719348,8.804665,-3.30474,0.213416,0.022866,-0.068598,139.5,-160.5,-12.3,,,,,,
116320,-0.3588858,9.132447,-3.4022372,0.243904,-0.388722,0.518296,129.90001,-148.5,-15.3,,,,,,
116360,-0.06579573,9.045716,-3.3914707,-0.274392,-0.510674,0.121952,132.3,-153.3,-12.3,,,,,,
116456,1.037778,9.006837,-2.9362838,-1.989342,1.4024479,-1.3643379,127.50001,-141.3,-12.900001,x,,,,,
116498,1.0629001,8.146708,-3.861013,-2.073184,3.7652678,-2.492394,134.70001,-153.3,-18.300001,x,,,,,
116576,2.4111142,8.799281,-6.0400476,-1.417692,4.11588,-5.52595,134.70001,-131.70001,-11.1,x,,,,,
116617,2.3046448,7.328448,-5.7200413,-3.056422,1.554888,-4.30643,151.5,-146.1,-17.7,x,,,,,
116637,2.601922,8.854909,-5.4676247,-4.76375,3.140264,-3.2850819,149.1,-148.5,-12.3,x,,,,,
116657,2.3716369,8.357254,-5.3898664,-5.480218,4.314052,-5.884184,151.5,-138.90001,-17.7,x,,,,,
116700,-0.1824336,5.049523,-3.5780911,-4.565578,5.44973,-6.0976,161.1,-138.90001,-18.900002,x,,,,,
116740,-0.99172103,6.180013,-2.8788621,-4.336918,7.820172,-4.87808,175.5,-122.100006,-14.1,x,,,,,
116760,-1.9654979,5.8468475,-2.3483093,-4.34454,9.41317,-6.5701637,182.70001,-138.90001,-18.900002,x,,,,,
116780,-2.4966488,6.266744,-2.1999698,-3.155508,10.312566,-6.280528,189.90001,-136.5,-18.900002,x,,,,,
116801,-3.1653726,6.1201987,-1.4277673,-4.237832,10.495494,-7.4390717,185.1,-126.9,-17.1,x,,,,,
116821,-3.648074,6.4880567,-0.51320666,-4.070148,10.602201,-6.8598,197.1,-122.100006,-10.5,x,,,,,
116841,-4.895202,8.46133,-0.5108141,-4.9009457,13.193682,-6.676872,185.1,-107.700005,-16.5,x,,,,,
116861,-5.805576,9.938146,-0.8667092,-4.695152,13.460452,-7.3933396,199.50002,-129.3,-16.5,x,,,,,
116881,-5.489158,10.571579,-0.8834572,-3.7957559,12.00465,-7.5305357,213.90001,-122.100006,-15.900001,x,,,,,
116901,-5.049523,9.98181,0.24942562,-3.8262439,10.541225,-6.4482117,204.3,-122.100006,-10.5,x,,,,,
116922,-5.713462,11.675153,-0.11962859,-4.26832,11.021412,-4.214966,199.50002,-102.9,-12.900001,x,,,,,
116942,-5.965878,11.48913,-0.093310304,-3.8033779,8.399444,-4.390272,204.3,-119.700005,-9.900001,x,,,,,
116962,-6.2266684,11.736761,0.54371196,-2.423796,5.8613176,-3.612828,206.70001,-98.100006,-15.3,x,,,,,
116982,-6.635798,12.3797655,0.16807817,-1.158544,3.910086,-1.8292799,225.90001,-110.100006,-0.90000004,x,,,,,
117002,-6.9312806,12.901346,0.08972145,-0.449698,1.4024479,-0.67835796,209.1,-102.9,-15.900001,x,,,,,
117022,-6.962384,14.188549,-0.67709786,1.189032,-1.8597679,0.846042,213.90001,-102.9,-15.3,x,,,,,
117042,-6.9689636,13.857179,-0.2673699,1.242386,-3.3155699,0.55640596,201.90001,-110.100006,-12.3,x,,,,,
117062,-8.009732,11.954486,-0.7733989,1.692084,-3.871976,1.006104,211.50002,-102.9,-10.5,x,,,,,
117082,-7.745353,12.604667,-1.1442475,2.195136,-6.547298,3.6890478,209.1,-102.9,-12.900001,x,,,,,
117105,-6.9976745,12.328923,-0.878672,1.79117,-9.024447,5.343022,209.1,-105.3,-9.3,x,,,,,
117127,-6.145919,10.950203,-0.5568711,2.332332,-10.876594,7.1265697,204.3,-124.50001,-9.3,x,,,,,
117147,-5.237938,10.213291,-0.5544785,3.025934,-11.58544,8.353712,216.3,-124.50001,-15.900001,x,,,,,
117167,-5.3139024,9.120484,-0.7919413,3.528986,-11.577818,8.323224,199.50002,-119.700005,-18.300001,x,,,,,
117187,-4.877856,8.350674,-1.8303175,4.908568,-11.39489,9.497012,192.3,-129.3,-18.900002,x,,,,,
117207,-3.225785,8.897975,-1.4744225,4.80186,-13.68149,11.01379,194.70001,-131.70001,-17.7,x,,,,,
117227,-2.9171433,8.713747,-1.5055258,4.375028,-11.814099,10.411652,185.1,-126.9,-18.300001,x,,,,,
117247,-2.5558648,8.548061,-2.7670095,4.26832,-10.015307,9.885734,168.3,-124.50001,-26.1,x,,,,,
117267,-1.5874715,8.070744,-2.5181818,3.1936178,-11.425378,9.047314,158.70001,-141.3,-21.900002,x,,,,,
117287,-1.4289635,7.7202315,-2.3650572,2.43904,-9.626586,7.705842,161.1,-143.70001,-15.3,x,,,,,
117307,-1.2052581,7.608977,-3.1073527,2.637212,-8.003099,6.5549197,156.3,-155.70001,-18.900002,x,,,,,
117327,-0.66034985,7.3619437,-2.8728807,2.17227,-8.87963,5.434486,139.5,-148.5,-14.1,x,,,,,
117347,-0.20994818,7.13764,-2.6581473,1.8521459,-7.820172,4.634176,134.70001,-146.1,-24.900002,x,,,,,
117367,-0.15790975,6.3899612,-2.7819629,1.9131219,-6.410102,3.16313,144.3,-150.90001,-22.5,x,,,,,
117389,-0.0059814295,5.6416845,-2.6928396,1.996964,-6.311016,3.612828,134.70001,-143.70001,-20.1,x,,,,,
117409,0.556273,6.5939283,-2.7167654,1.3872039,-5.045764,4.870458,122.700005,-146.1,-15.900001,x,,,,,
117431,0.5843857,6.6926217,-3.1438394,1.3490939,-3.16313,3.445144,129.90001,-138.90001,-22.5,x,,,,,
117451,1.0527316,6.823615,-3.493155,2.545748,-2.47715,3.368924,137.1,-158.1,-24.300001,x,,,,,
117471,1.6873614,8.120987,-3.4698274,0.92226195,-1.272874,3.521364,137.1,-158.1,-21.300001,x,,,,,
117491,1.6574541,8.360843,-3.9884174,1.1128119,0.769822,2.2789779,125.100006,-167.70001,-20.7,x,,,,,
117512,1.6664263,8.336319,-4.2773204,1.463424,1.4024479,1.478668,125.100006,-150.90001,-14.700001,x,,,,,
117532,1.6293415,8.355459,-4.8072753,2.141782,2.141782,0.975616,122.700005,-160.5,-18.300001,x,,,,,
117555,1.6084064,9.320862,-5.251097,1.432936,1.48629,0.80793196,103.50001,-143.70001,-18.900002,x,,,,,
117575,1.6604449,9.228748,-5.0507193,1.29574,1.440558,0.030488,120.3,-158.1,-18.300001,x,,,,,
117596,1.4002527,8.6324,-5.0238028,0.899396,1.920744,-0.785066,120.3,-150.90001,-20.1,x,,,,,
117616,1.1071626,8.05579,-5.0010734,0.769822,1.692084,-0.518296,129.90001,-136.5,-18.900002,x,,,,,
117636,1.3248867,8.778346,-4.6703005,0.49543,1.173788,0.388722,108.3,-162.90001,-19.5,,,,,,
117660,1.300961,8.932069,-4.2653575,0.251526,0.95274997,0.07622,120.3,-148.5,-12.3,,,,,,
117681,1.275839,8.682045,-3.9357808,-0.274392,1.242386,-0.221038,117.9,-155.70001,-9.3,,,,,,
117701,1.1992767,8.502005,-3.7461693,-0.365856,1.18141,-0.221038,115.50001,-155.70001,-17.1,,,,,,
117722,1.0467502,8.397927,-3.5009308,-0.243904,1.006104,0.23628199,127.50001,-158.1,-15.900001,,,,,,
117742,0.94087887,8.798085,-3.2867956,-0.07622,0.716468,0.82317597,110.700005,-158.1,-15.900001,,,,,,
117762,0.99710435,9.32146,-2.9542282,-0.274392,0.396344,0.67073596,115.50001,-153.3,-15.3,,,,,,
117782,0.9145606,9.191663,-2.7771778,-0.518296,0.998482,-0.17530599,127.50001,-162.90001,-15.900001,,,,,,
117802,0.6364241,9.194056,-3.1241007,-0.297258,1.44818,-0.274392,120.3,-155.70001,-15.900001,,,,,,
117822,0.19020946,8.478677,-3.0571086,0.015244,0.442076,-0.548784,122.700005,-153.3,-24.900002,,,,,,
117842,0.06998273,8.5468645,-3.007463,0.34298998,0.198172,-0.17530599,117.9,-153.3,-20.1,,,,,,
117902,0.28830492,9.357946,-3.2311683,-0.251526,-0.19055,-0.007622,113.100006,-155.70001,-17.7,,,,,,
117925,0.32897863,9.603784,-3.0002851,-2.035074,0.34298998,0.68597996,120.3,-150.90001,-11.700001,,,,,,
117945,0.3020622,9.387256,-3.467435,-3.2622159,1.3948259,0.07622,110.700005,-160.5,-15.3,,,,,,
117966,-0.38460594,8.576772,-3.5152862,-1.996964,0.785066,-0.388722,110.700005,-150.90001,-17.1,,,,,,
117986,-0.11962859,9.068445,-3.3663487,-1.493912,-0.769822,1.036592,113.100006,-150.90001,-14.1,,,,,,
118006,0.28890306,9.024183,-2.7185597,-1.3719599,-1.8673899,1.044214,108.3,-155.70001,-22.5,,,,,,
118090,0.5610581,8.533108,-2.781365,0.785066,0.45731997,-0.907018,113.100006,-148.5,-18.900002,,,,,,
118148,0.53653425,9.022388,-3.3980503,0.198172,1.532022,-1.707328,108.3,-165.3,-26.7,,,,,,
118192,0.9863378,8.606081,-3.477005,-0.891774,0.907018,-2.2789779,108.3,-150.90001,-19.5,,,,,,
118213,1.4427209,8.5899315,-3.6719997,-0.868908,1.3643379,-2.027452,108.3,-170.1,-17.1,,,,,,
118253,1.9320018,9.020595,-5.150011,-0.891774,2.865872,-2.637212,115.50001,-158.1,-22.5,,,,,,
118276,2.5540705,9.025379,-5.400035,-1.3567159,1.775926,-2.7058098,117.9,-158.1,-20.7,,,,,,
118296,2.996098,8.44219,-4.8240232,-2.583858,2.004586,-3.2545938,122.700005,-150.90001,-17.1,,,,,,
118316,3.116923,7.8458414,-4.7725825,-2.538126,3.597584,-2.888738,134.70001,-148.5,-20.1,x,,,,,
118336,2.9859297,7.799186,-4.5524664,-2.926848,5.586926,-2.347576,125.100006,-150.90001,-9.900001,x,,,,,
118357,2.7101858,7.7626996,-4.5674195,-3.2927039,6.760714,-3.003068,134.70001,-150.90001,-17.7,x,,,,,
118377,2.2837098,7.6430707,-5.120104,-2.995446,8.948228,-4.0320377,117.9,-143.70001,-17.7,x,,,,,
118397,0.9953099,6.568806,-5.081823,-3.003068,9.336949,-5.274424,125.100006,-155.70001,-15.3,x,,,,,
118417,0.6172835,6.1931725,-4.5698123,-3.346058,8.704324,-5.3811316,134.70001,-143.70001,-14.700001,x,,,,,
118437,0.5790024,6.3157916,-4.0338764,-3.7805119,8.68908,-5.3658876,146.70001,-155.70001,-18.300001,x,,,,,
118457,0.48629025,6.104049,-3.6402981,-4.260698,8.3842,-5.75461,146.70001,-143.70001,-20.7,x,,,,,
118478,-0.30385664,5.5573463,-2.7101858,-5.4573517,8.788166,-5.693634,139.5,-148.5,-17.1,x,,,,,
118498,-0.5873764,5.919821,-2.1521184,-5.274424,11.654037,-5.617414,151.5,-148.5,-11.700001,x,,,,,
118518,-1.7507645,5.937167,-2.3740294,-4.222588,13.841552,-7.01224,141.90001,-146.1,-23.7,x,,,,,
118540,-2.4129088,7.159173,-1.878767,-2.82014,11.89032,-7.522914,161.1,-141.3,-18.300001,x,,,,,
118560,-3.8388815,9.180298,-0.3618765,-2.469528,11.01379,-8.978716,170.70001,-131.70001,-17.1,x,,,,,
118580,-5.355174,9.373499,-1.0210301,-2.393308,14.611374,-12.058003,170.70001,-136.5,-3.9,x,,,,,
118600,-4.947839,9.979418,-1.1095552,-2.103672,10.7241535,-10.6708,173.1,-119.700005,-5.1000004,x,,,,,
118620,-5.1643662,10.354453,1.071274,-3.1936178,8.673836,-9.100668,185.1,-122.100006,-17.1,x,,,,,
118640,-5.983224,11.06086,-0.4456165,-2.43904,12.484836,-7.294254,180.3,-117.3,-11.700001,x,,,,,
118660,-5.9527187,10.840743,-0.7757914,-1.059458,8.30798,-6.501566,194.70001,-122.100006,-18.900002,x,,,,,
118680,-5.8923063,11.00284,0.26138848,-0.45731997,4.9161897,-4.199722,199.50002,-112.50001,-10.5,x,,,,,
118700,-6.0944786,13.552724,-0.33017492,-1.097568,4.413138,-1.516778,194.70001,-117.3,-5.1000004,x,,,,,
118720,-5.345604,14.864451,0.10706759,-1.920744,0.632626,-1.98172,204.3,-110.100006,-11.700001,x,,,,,
118740,-6.1148157,12.516142,0.8487649,-1.8673899,-0.259148,-3.140264,201.90001,-117.3,-16.5,x,,,,,
118760,-6.4324293,13.223744,-0.3355582,-0.373478,-1.158544,-0.480186,204.3,-107.700005,-13.500001,x,,,,,
118780,-5.510093,14.026453,0.6794904,-0.907018,-4.9009457,0.663114,182.70001,-112.50001,-16.5,x,,,,,
118800,-7.510283,12.231425,0.26497734,-0.221038,-4.596066,1.082324,192.3,-110.100006,-12.3,x,,,,,
118820,-6.9964786,12.87443,-0.87508315,1.1280559,-7.3628516,4.0015497,197.1,-114.9,-12.3,x,,,,,
118842,-5.565122,12.080693,0.26796806,1.6234859,-10.564092,5.853696,209.1,-114.9,-12.900001,x,,,,,
118862,-6.043637,10.9765215,-0.38221335,1.56251,-10.282078,7.599134,189.90001,-126.9,-13.500001,x,,,,,
118886,-5.392259,10.319162,-1.6119953,2.7058098,-11.920808,9.5275,189.90001,-112.50001,-15.3,x,,,,,
118906,-3.9004903,10.190562,-1.2734464,3.521364,-15.007718,10.983302,187.5,-117.3,-24.300001,x,,,,,
118926,-2.9213302,9.69829,-1.2435392,2.942092,-14.718081,10.876594,165.90001,-124.50001,-14.700001,x,,,,,
118946,-2.4069273,8.217288,-1.7011186,3.3003259,-13.856795,9.37506,170.70001,-138.90001,-17.1,x,,,,,
118966,-2.121613,8.001957,-1.91645,3.50612,-13.475696,9.504634,153.90001,-141.3,-23.1,x,,,,,
118986,-1.3721399,8.349478,-2.5032284,3.0488,-11.836966,9.199754,149.1,-153.3,-15.900001,x,,,,,
119007,-1.3643641,7.929581,-2.8633103,2.7439198,-10.6708,8.003099,141.90001,-148.5,-17.1,x,,,,,
119027,-0.7476787,7.7321944,-3.2150185,2.62959,-10.510737,7.8582816,137.1,-150.90001,-17.1,x,,,,,
119049,-0.3050529,7.7609053,-2.9087694,1.6082419,-10.617446,7.385718,151.5,-146.1,-18.900002,x,,,,,
119069,0.07775859,7.015021,-3.03737,1.8750119,-8.993959,6.150954,120.3,-167.70001,-20.1,x,,,,,
119091,0.39776507,6.887018,-3.3501987,2.080806,-8.5899935,6.112844,125.100006,-158.1,-16.5,x,,,,,
119111,0.93190676,7.4534597,-3.3292637,1.67684,-7.8430376,5.4116197,110.700005,-155.70001,-23.7,x,,,,,
119131,1.2447355,7.6251264,-3.142045,1.783548,-7.3780956,4.15399,113.100006,-160.5,-17.7,,,,,,
119153,1.2040617,6.9193177,-2.7903368,1.3643379,-5.884184,2.088428,115.50001,-155.70001,-22.5,,,,,,
119173,1.0126561,5.824716,-2.982939,2.05794,-4.291186,1.059458,105.9,-155.70001,-21.300001,,,,,,
119254,1.5306479,8.568398,-3.6785793,2.637212,-2.454284,0.49543,113.100006,-155.70001,-18.900002,,,,,,
119274,1.7214555,9.133045,-3.560745,1.684462,-1.920744,-0.449698,113.100006,-158.1,-25.500002,,,,,,
119294,1.7382035,9.002051,-3.6301296,1.1128119,-0.739334,-1.173788,117.9,-170.1,-15.3,,,,,,
119334,1.1328828,8.472097,-3.6630275,-0.07622,1.242386,-2.118916,113.100006,-150.90001,-11.700001,,,,,,
119374,0.67590153,8.842946,-3.9226215,0.297258,2.157026,-1.554888,117.9,-160.5,-22.5,,,,,,
119394,0.46834594,8.350076,-3.7216456,0.16768399,2.2103798,-1.768304,115.50001,-165.3,-23.1,,,,,,
119414,0.4791125,8.583352,-3.65585,0.655492,2.2256238,-0.94512796,120.3,-153.3,-12.900001,,,,,,
119454,0.3062492,8.993678,-3.4799957,0.579272,2.118916,0.091464,122.700005,-155.70001,-19.5,,,,,,
119474,0.36247465,9.179102,-3.2479162,0.525918,1.6539739,0.40396598,113.100006,-155.70001,-14.1,,,,,,
119498,0.54789895,9.574474,-3.0188277,0.137196,1.585376,0.3811,129.90001,-155.70001,-15.900001,,,,,,
119518,0.4605701,9.122876,-3.1342692,-0.442076,1.966476,-0.46494198,125.100006,-148.5,-14.1,,,,,,
119560,0.36127836,8.891396,-3.1528115,0.19055,1.1280559,-0.015244,120.3,-150.90001,-16.5,,,,,,
119580,0.43903694,9.243702,-3.1982706,0.243904,0.998482,0.3811,122.700005,-150.90001,-18.300001,,,,,,
119623,0.37204492,8.995472,-3.1408486,-0.35061198,0.960372,-0.053354,115.50001,-165.3,-20.1,,,,,,
119643,0.2673699,8.842946,-3.2287757,-0.312502,0.846042,0.144818,115.50001,-162.90001,-18.900002,,,,,,
119663,0.19020946,8.729897,-3.1779337,-0.289636,0.548784,0.655492,127.50001,-153.3,-11.700001,,,,,,
119683,0.34153965,9.229346,-3.125297,-0.03811,0.297258,1.036592,105.9,-167.70001,-18.300001,,,,,,
119703,0.4874865,9.455444,-3.0744548,-0.289636,0.23628199,0.746956,110.700005,-146.1,-18.300001,,,,,,
119726,0.51799184,9.106129,-3.100773,-0.548784,0.396344,0.320124,110.700005,-158.1,-12.900001,,,,,,
119746,0.52516955,8.96078,-3.020622,-0.426832,0.358234,0.47256398,110.700005,-153.3,-14.700001,,,,,,
119766,0.5090197,8.930275,-2.9314988,-0.434454,0.33536798,0.632626,113.100006,-148.5,-15.900001,,,,,,
119786,0.5467027,8.96078,-2.9093673,-0.45731997,0.30488,0.739334,103.50001,-150.90001,-19.5,,,,,,
119806,0.6262557,9.161158,-2.9183395,-0.297258,0.182928,0.60976,98.700005,-165.3,-18.900002,,,,,,
119828,0.6800886,9.029567,-2.7622242,-0.274392,0.015244,0.297258,105.9,-155.70001,-12.900001,,,,,,
119849,0.744688,9.030165,-2.6880546,-0.30488,0.03811,0.16768399,120.3,-165.3,-14.1,,,,,,
119869,0.64898515,8.852516,-2.8011036,-0.22865999,0.289636,0.022866,120.3,-150.90001,-14.1,,,,,,
119933,0.50842154,9.251477,-3.0433514,0.259148,0.365856,-0.091464,110.700005,-150.90001,-13.500001,,,,,,
119995,0.48090696,9.240711,-3.2120278,-0.213416,0.20579399,0.099086,115.50001,-162.90001,-11.700001,,,,,,
120109,0.5233751,8.959583,-3.1241007,-0.510674,0.137196,-0.137196,108.3,-158.1,-15.3,,,,,,
120169,0.535338,8.903358,-2.928508,-0.251526,0.11432999,-0.015244,101.100006,-155.70001,-18.900002,,,,,,
120189,0.6477888,9.039735,-2.907573,-0.091464,0.060976,0.030488,103.50001,-160.5,-17.1,,,,,,
120211,0.5467027,8.862086,-3.0451458,-0.121952,0.053354,-0.121952,101.100006,-148.5,-12.900001,,,,,,
120231,0.6262557,9.02837,-3.0403607,0.160062,-0.045732,0.045732,96.3,-158.1,-17.7,,,,,,
120251,0.8649147,9.11211,-3.1013713,-0.007622,-0.007622,-0.07622,103.50001,-158.1,-17.1,,,,,,
120273,1.0389743,9.1294565,-3.213224,-0.297258,0.33536798,-0.20579399,117.9,-158.1,-12.900001,,,,,,
120293,1.300961,9.185681,-3.3286657,-0.708846,0.632626,-0.365856,105.9,-165.3,-15.3,,,,,,
120313,1.7316239,9.266431,-3.6851587,-1.463424,1.326228,-0.708846,108.3,-150.90001,-20.7,,,,,,
120333,1.7675124,8.622829,-4.115822,-2.2180018,2.40093,-1.6158639,115.50001,-158.1,-15.900001,x,,,,,
120353,1.999592,7.8966837,-4.735498,-1.8445239,3.01069,-2.05794,108.3,-167.70001,-17.7,x,,,,,
120373,2.78615,7.6358933,-5.4161844,-0.81555396,3.117398,-1.1051899,108.3,-160.5,-11.1,x,,,,,
120393,3.2329628,8.17482,-5.522056,-2.09605,1.98172,-0.586894,113.100006,-155.70001,-17.7,x,,,,,
120413,3.4357333,7.7800455,-5.1643662,-2.7515419,2.2332458,-1.417692,115.50001,-155.70001,-15.900001,x,,,,,
120476,3.3298619,8.726308,-5.4287457,-3.2927039,8.3842,-4.83997,108.3,-162.90001,-16.5,x,,,,,
120531,0.78715616,6.3935504,-3.5756986,-2.995446,9.6418295,-8.971094,129.90001,-143.70001,-17.1,x,,,,,
120551,0.53414166,6.7087717,-2.9966962,-2.545748,11.448244,-8.750056,132.3,-146.1,-18.900002,x,,,,,
120593,-1.0760592,4.1523085,-2.3524964,-3.071666,15.038206,-12.362884,161.1,-143.70001,-15.3,x,,,,,
120633,-3.982436,6.112423,-2.8884325,0.91463995,13.56716,-6.394858,151.5,-126.9,-8.700001,x,,,,,
120711,-4.7026,9.68872,-2.1347723,0.3811,14.237896,-5.4116197,180.3,-134.1,-3.9,x,,,,,
120731,-3.7048976,13.014395,-0.58976895,-0.975616,7.1265697,-3.460388,175.5,-129.3,-5.1000004,x,,,,,
120775,-5.4532695,11.691302,-1.4080286,-1.265252,7.4085836,-3.932952,175.5,-131.70001,-3.9,x,,,,,
120795,-4.938268,14.664073,-1.4469079,-0.56402797,1.3567159,-0.49543,165.90001,-124.50001,-4.5,x,,,,,
120815,-5.1404405,15.378854,-1.6640338,-1.1280559,0.30488,0.030488,185.1,-114.9,0.3,x,,,,,
120835,-5.8540254,15.6629715,-1.9660959,-1.272874,-3.35368,0.312502,185.1,-117.3,-6.3,x,,,,,
120855,-6.3648396,13.6005745,-1.0024877,-1.71495,-7.4085836,0.198172,185.1,-126.9,-8.700001,x,,,,,
120898,-5.8719697,13.24767,-1.5001426,0.746956,-15.068694,5.14485,182.70001,-122.100006,-8.1,x,,,,,
120918,-4.9938955,12.130938,-0.9893285,0.365856,-15.929979,6.36437,173.1,-119.700005,-7.5000005,x,,,,,
120938,-4.2725353,10.889193,-0.954038,0.442076,-15.388818,7.4695597,175.5,-129.3,-5.1000004,x,,,,,
120959,-4.1977673,9.5511465,-1.1597992,0.975616,-14.245518,8.368956,170.70001,-126.9,-14.1,x,,,,,
120979,-3.6420925,8.83517,-1.5467978,1.25763,-14.268384,9.237864,175.5,-131.70001,-12.3,x,,,,,
120999,-2.8357959,8.120987,-1.3978602,1.3490939,-13.98637,9.405548,163.5,-129.3,-14.1,x,,,,,
121020,-2.334552,7.9798255,-1.9672922,1.432936,-11.882698,9.100668,163.5,-138.90001,-15.900001,x,,,,,
121040,-1.9475535,7.552153,-2.7089896,1.94361,-11.150986,8.277492,151.5,-138.90001,-18.900002,x,,,,,
121060,-1.2662686,7.329046,-2.5439022,2.2561119,-12.141846,8.643348,139.5,-143.70001,-18.300001,x,,,,,
121081,-0.6208724,8.076725,-2.3417296,1.234764,-11.379645,8.742434,139.5,-150.90001,-22.5,x,,,,,
121123,-0.6723127,6.5377026,-3.505118,2.126538,-7.9192576,5.015276,117.9,-148.5,-23.7,x,,,,,
121143,-0.11424531,6.4599442,-3.1821206,1.974098,-9.710428,6.219552,125.100006,-155.70001,-18.900002,x,,,,,
121165,0.21832219,7.107135,-3.438724,0.46494198,-6.51681,5.815586,110.700005,-150.90001,-20.1,x,,,,,
121185,0.2033686,6.8092594,-3.727627,1.539644,-5.990892,4.756128,115.50001,-153.3,-18.900002,x,,,,,
121205,0.5652451,7.448674,-3.6791775,1.3643379,-5.746988,5.000032,103.50001,-162.90001,-19.5,x,,,,,
121225,0.9073829,8.247793,-3.590054,0.93750596,-4.702774,4.100636,108.3,-162.90001,-24.300001,x,,,,,
121245,0.91755134,7.738774,-3.6719997,0.731712,-3.7347798,2.309466,98.700005,-162.90001,-21.900002,x,,,,,
121265,1.0192356,7.6574264,-3.5703154,1.173788,-3.483254,2.149404,96.3,-165.3,-28.500002,x,,,,,
121285,1.4158044,8.349478,-3.279618,0.967994,-3.041178,2.2637339,98.700005,-167.70001,-23.7,x,,,,,
121305,2.0043771,9.320264,-3.2933753,0.68597996,-1.814036,1.79117,98.700005,-160.5,-26.1,x,,,,,
121327,2.4356382,9.933958,-3.4237704,0.80793196,-0.82317597,0.739334,110.700005,-165.3,-24.900002,,,,,,
121348,2.029499,9.001453,-3.1599894,0.388722,-0.602138,-0.92988396,93.9,-167.70001,-17.1,,,,,,
121368,2.2029605,8.415872,-3.0553143,0.586894,0.099086,-0.746956,91.5,-165.3,-20.1,,,,,,
121389,2.196979,8.0713415,-3.0852215,0.731712,0.899396,-0.754578,108.3,-170.1,-23.7,,,,,,
121409,1.9888253,7.717241,-3.3531895,1.013726,1.699706,-0.510674,89.100006,-158.1,-18.900002,,,,,,
121469,2.26756,9.457837,-3.6821682,1.051836,2.301844,-0.3811,103.50001,-160.5,-22.5,,,,,,
121496,2.0432563,9.0188,-3.4267612,0.28201398,2.7744079,-1.3567159,103.50001,-155.70001,-16.5,,,,,,
121537,1.0443577,8.699989,-3.769497,0.365856,2.7820299,-1.699706,84.3,-158.1,-16.5,,,,,,
121557,0.7686137,8.827992,-3.7180567,0.92226195,1.684462,-1.06708,96.3,-155.70001,-17.7,,,,,,
121619,0.9869359,9.367517,-3.2431312,0.15244,0.388722,-0.358234,101.100006,-158.1,-14.1,,,,,,
121639,0.98095447,8.910536,-3.0660808,-0.251526,0.625004,-0.602138,96.3,-155.70001,-15.900001,,,,,,
121699,0.9277198,8.981715,-3.0050702,-0.480186,1.196654,-0.510674,98.700005,-162.90001,-16.5,,,,,,
121736,0.8505593,8.92848,-2.8334033,-0.099086,0.60976,-0.358234,98.700005,-160.5,-18.900002,,,,,,
121757,0.97796375,9.08639,-2.8555346,-0.221038,0.602138,-0.11432999,105.9,-158.1,-18.300001,,,,,,
121777,0.8972145,9.003248,-2.9081712,-0.35061198,0.602138,-0.373478,103.50001,-167.70001,-15.3,,,,,,
121839,0.85654074,9.040333,-2.8758714,0.007622,0.07622,-0.312502,101.100006,-160.5,-18.900002,,,,,,
121859,0.849363,9.072035,-2.8280199,-0.16768399,0.320124,-0.46494198,98.700005,-167.70001,-19.5,,,,,,
121899,0.65496653,8.62582,-3.017033,-0.11432999,0.480186,-1.021348,105.9,-160.5,-20.7,,,,,,
121994,0.56464696,8.969153,-3.0822308,-0.121952,0.312502,-0.41921,96.3,-153.3,-17.1,,,,,,
122152,2.3961608,8.96078,-4.5925417,-1.928366,2.332332,-1.67684,98.700005,-158.1,-14.1,,,,,,
122172,2.7490652,8.444583,-5.3109117,-1.974098,2.8048959,-2.111294,93.9,-158.1,-14.1,,,,,,
122215,3.1863077,8.393142,-4.266554,-2.7362978,-0.03811,-0.960372,113.100006,-150.90001,-20.1,,,,,,
122236,3.1318767,8.37759,-4.096681,-3.2393498,1.318606,-1.98172,115.50001,-158.1,-20.1,x,,,,,
122298,1.3577845,7.8978796,-3.602017,-2.7591639,4.093014,-5.75461,113.100006,-162.90001,-15.900001,x,,,,,
122408,-0.6471907,7.7489424,-3.5882597,-1.951232,7.4390717,-7.218034,141.90001,-138.90001,-19.5,x,,,,,
122448,-1.0527316,6.2493978,-1.9086742,-2.7515419,12.134224,-8.628104,165.90001,-146.1,-16.5,x,,,,,
122472,-2.0510323,5.756528,-1.4780113,-2.93447,14.085456,-8.140296,153.90001,-143.70001,-14.700001,x,,,,,
122512,-3.13726,8.546267,-0.8511574,-2.332332,15.228756,-7.1265697,182.70001,-134.1,-11.700001,x,,,,,
122532,-4.03268,10.541074,-1.8680005,-3.628072,17.995543,-8.490908,175.5,-124.50001,-15.3,x,,,,,
122552,-4.3975472,10.145701,-2.4571714,-3.2545938,16.84462,-9.18451,177.90001,-124.50001,-7.5000005,x,,,,,
122572,-4.6027102,10.213889,-1.8554395,-3.414656,11.951296,-6.981752,182.70001,-129.3,-13.500001,x,,,,,
122592,-4.969372,12.300212,-0.13817103,-4.489358,8.544262,-4.87808,187.5,-112.50001,-9.3,x,,,,,
122616,-5.1159167,12.534684,0.002392572,-4.199722,6.295772,-5.3658876,177.90001,-119.700005,-12.3,x,,,,,
122636,-5.803183,11.564496,1.0999849,-2.903982,3.643316,-3.54423,180.3,-134.1,-5.1000004,x,,,,,
122656,-5.5501685,13.87273,-0.44322395,-1.9131219,2.393308,0.083841994,180.3,-114.9,-6.9,x,,,,,
122678,-3.7515528,15.000828,0.2266962,-2.355198,-2.141782,0.82317597,192.3,-119.700005,-9.3,x,,,,,
122701,-5.212218,12.415055,0.41152236,-0.57164997,-3.2012398,-0.07622,194.70001,-134.1,-12.900001,x,,,,,
122721,-6.0221033,12.4449625,-1.1400605,1.173788,-5.67839,2.36282,175.5,-110.100006,-11.700001,x,,,,,
122741,-4.71875,13.461805,-0.5724228,1.196654,-10.426896,4.428382,173.1,-112.50001,-12.900001,x,,,,,
122761,-4.289881,12.243987,-0.12022674,1.036592,-12.400993,4.817104,170.70001,-119.700005,-12.900001,x,,,,,
122781,-4.2767224,11.372492,-0.89661634,2.149404,-12.926911,6.4329677,187.5,-122.100006,-12.3,x,,,,,
122801,-3.4267612,11.862969,-1.1903045,2.309466,-14.504665,7.8125496,185.1,-129.3,-14.700001,x,,,,,
122821,-3.5786893,10.785714,-1.2692593,1.94361,-14.931498,7.263766,177.90001,-134.1,-21.300001,x,,,,,
122841,-3.7180567,9.927977,-2.9608078,3.498498,-14.565641,8.003099,175.5,-143.70001,-12.3,x,,,,,
122861,-3.0642865,9.841845,-2.883049,3.8262439,-16.372055,8.30798,170.70001,-143.70001,-23.1,x,,,,,
122881,-2.5474908,8.849525,-1.6562579,3.536608,-17.5306,8.285114,165.90001,-138.90001,-16.5,x,,,,,
122905,-1.6377155,7.8500285,-1.866206,2.850628,-13.64338,9.001582,149.1,-148.5,-14.1,x,,,,,
122925,-1.0981905,7.9636755,-1.8715893,1.9054999,-12.050382,9.100668,134.70001,-148.5,-18.900002,x,,,,,
122945,-0.8762795,7.4361134,-1.794429,1.059458,-10.327809,7.9345016,132.3,-155.70001,-16.5,x,,,,,
122967,-0.87747574,6.8511295,-2.0061715,0.769822,-8.529017,6.730226,144.3,-155.70001,-18.300001,x,,,,,
123028,0.38101706,7.4899464,-2.171857,1.006104,-6.9436417,3.50612,127.50001,-155.70001,-23.1,x,,,,,
123074,0.4067372,6.4031205,-3.4793978,3.628072,-5.03052,3.094532,120.3,-158.1,-23.7,x,,,,,
123113,0.83740014,8.408095,-3.2951696,1.920744,-2.881116,2.6981878,122.700005,-162.90001,-18.300001,,,,,,
123133,0.8092874,8.20712,-3.3077307,1.570132,-2.538126,2.050318,103.50001,-165.3,-17.7,,,,,,
123175,1.0168431,7.848832,-3.426163,1.471046,-1.547266,0.46494198,103.50001,-160.5,-21.900002,,,,,,
123196,1.0652926,8.562417,-3.4159944,1.539644,-1.41007,0.82317597,105.9,-160.5,-22.5,,,,,,
123216,1.284213,9.103138,-3.465042,0.975616,-0.45731997,0.388722,110.700005,-165.3,-18.300001,,,,,,
123236,1.9320018,10.474082,-4.041054,1.3795819,-0.045732,0.33536798,103.50001,-153.3,-18.900002,,,,,,
123258,1.5749104,9.773058,-3.7928245,0.68597996,-0.41158798,-1.722572,105.9,-158.1,-18.900002,,,,,,
123279,0.8858497,8.217886,-3.6402981,0.7622,0.083841994,-2.179892,96.3,-162.90001,-20.1,,,,,,
123299,0.84039086,8.492434,-3.794619,0.99086,0.243904,-1.173788,108.3,-158.1,-20.1,,,,,,
123319,0.6824811,8.650344,-3.777273,0.95274997,0.655492,-0.99086,113.100006,-167.70001,-23.1,,,,,,
123340,0.4007558,8.653335,-3.7521508,0.80793196,1.02897,-0.80793196,105.9,-155.70001,-15.3,,,,,,
123360,0.5580674,9.072633,-3.8334982,0.69360197,1.3719599,-0.69360197,108.3,-165.3,-24.900002,,,,,,
123380,0.782371,9.212,-3.7120752,0.388722,1.768304,-0.82317597,101.100006,-170.1,-9.900001,,,,,,
123420,0.90140146,9.219776,-3.4136019,-0.053354,2.179892,-0.28201398,120.3,-165.3,-17.7,,,,,,
123440,1.0246189,9.904052,-3.091801,-0.28201398,2.469528,0.19055,110.700005,-155.70001,-13.500001,,,,,,
123460,0.9845433,9.740758,-3.0218184,-0.60976,2.62959,-0.160062,115.50001,-160.5,-14.700001,,,,,,
123480,0.61309654,8.650344,-2.8764696,-0.792688,2.8048959,-0.518296,117.9,-162.90001,-17.1,,,,,,
123525,0.28770676,8.671877,-2.705999,0.160062,2.355198,0.297258,105.9,-167.70001,-18.900002,,,,,,
123548,0.2727532,8.95121,-3.125297,0.72409,1.8369019,0.53354,108.3,-160.5,-24.300001,,,,,,
123568,0.38400778,8.93805,-3.250907,0.81555396,1.272874,0.49543,108.3,-165.3,-17.1,,,,,,
123588,0.7225567,9.131848,-3.2198036,0.586894,0.907018,0.68597996,117.9,-160.5,-12.3,,,,,,
123611,0.66034985,9.16056,-3.2975621,-0.182928,1.211898,0.746956,105.9,-165.3,-18.900002,,,,,,
123653,0.68547183,9.181495,-3.255094,-0.899396,1.006104,0.525918,98.700005,-162.90001,-18.300001,,,,,,
123673,0.7548564,8.877638,-3.0224164,-0.83842,0.72409,0.56402797,101.100006,-155.70001,-14.1,,,,,,
123714,0.7387066,9.049305,-2.8728807,-0.503052,0.7622,0.67073596,103.50001,-162.90001,-21.900002,,,,,,
123734,0.76083785,9.06067,-2.7867482,-0.358234,0.594516,0.327746,101.100006,-150.90001,-16.5,,,,,,
123794,0.39357808,8.890797,-3.0906048,-0.23628199,0.739334,0.060976,91.5,-158.1,-17.7,,,,,,
123852,0.66334057,9.323853,-3.0732586,0.060976,0.11432999,0.297258,81.9,-165.3,-18.900002,,,,,,
123893,0.660948,8.957789,-3.0439496,-0.312502,-0.045732,-0.015244,105.9,-160.5,-14.700001,,,,,,
123913,0.62745196,8.805263,-2.9733686,-0.33536798,-0.144818,-0.045732,101.100006,-155.70001,-17.1,,,,,,
123953,0.66453683,9.436902,-3.2180092,-0.297258,-0.80793196,0.70122397,103.50001,-150.90001,-17.7,,,,,,
123976,1.0910128,9.146204,-2.6390069,-1.044214,-1.272874,0.30488,103.50001,-165.3,-20.7,,,,,,
123996,0.9677953,8.603688,-2.652166,-0.99086,-0.47256398,0.144818,101.100006,-165.3,-18.300001,,,,,,
124036,0.8487649,9.201832,-3.2712438,0.396344,-0.312502,0.442076,115.50001,-160.5,-15.3,,,,,,
124091,1.5306479,8.853114,-2.7783742,-0.388722,-0.16768399,-0.129574,98.700005,-160.5,-21.900002,,,,,,
124131,1.6801836,9.166541,-2.9955,0.007622,0.87653,0.251526,98.700005,-150.90001,-15.3,,,,,,
124151,2.0031807,9.441687,-3.3274693,-0.548784,1.1356779,-0.41921,96.3,-162.90001,-15.900001,,,,,,
124194,1.8488599,7.6831465,-4.2198987,-1.56251,2.522882,-1.56251,98.700005,-155.70001,-17.1,,,,,,
124234,3.3155065,8.5037985,-5.2487044,-1.310984,0.769822,-0.358234,96.3,-155.70001,-25.500002,,,,,,
124254,3.5577543,8.088089,-5.504112,-1.8902559,2.32471,-2.332332,103.50001,-155.70001,-18.300001,,,,,,
124274,3.3573766,6.9097476,-5.886325,-0.92988396,3.8033779,-3.384168,105.9,-165.3,-13.500001,x,,,,,
124314,3.1815224,7.250091,-5.9551115,-2.2027578,4.15399,-5.266802,117.9,-162.90001,-19.5,x,,,,,
124334,2.827422,6.59991,-5.3653426,-2.2484899,4.939056,-6.5091877,108.3,-153.3,-12.3,x,,,,,
124357,2.346515,6.3815875,-3.9770527,-3.445144,7.5000477,-7.4390717,113.100006,-155.70001,-15.900001,x,,,,,
124377,1.5677327,6.300838,-3.4734163,-4.161612,10.6708,-8.399444,132.3,-155.70001,-21.900002,x,,,,,
124397,0.9396826,6.8535223,-2.761626,-4.939056,12.965022,-8.742434,129.90001,-160.5,-14.700001,x,,,,,
124420,0.09450659,7.738774,-2.3620665,-5.807964,16.608337,-10.815618,129.90001,-150.90001,-16.5,x,,,,,
124440,-2.647979,6.0358605,-2.5391169,-6.189064,20.609888,-15.586989,151.5,-143.70001,-16.5,x,,,,,
124461,-2.6049128,6.6076856,-3.0648847,-3.58234,19.59616,-12.804959,163.5,-138.90001,-11.1,x,,,,,
124482,-4.122401,7.9965734,-0.53832865,-5.5640597,15.884248,-12.972644,168.3,-138.90001,-19.5,x,,,,,
124502,-6.857111,7.417571,-0.57182467,-3.84911,21.30349,-14.077834,177.90001,-131.70001,-11.700001,x,,,,,
124522,-6.4150834,8.472097,-1.9971994,-1.166166,18.719631,-10.495494,185.1,-131.70001,-12.900001,x,,,,,
124545,-4.841369,10.115196,0.6495833,-2.644834,13.91015,-8.315601,180.3,-122.100006,-5.1000004,x,,,,,
124566,-5.8803434,9.584044,-1.4654503,-0.243904,16.707424,-7.2409,182.70001,-122.100006,-7.5000005,x,,,,,
124586,-5.108141,12.390532,-1.2728482,-0.3811,11.029034,-2.903982,187.5,-119.700005,-8.700001,x,,,,,
124608,-4.6242433,13.3086815,-0.6310408,-1.692084,8.635726,-4.260698,180.3,-107.700005,-6.9,x,,,,,
124628,-6.5251417,10.797677,-1.535433,0.23628199,7.35523,-5.327778,185.1,-107.700005,-4.5,x,,,,,
124669,-4.297657,14.8166,-0.8978126,-1.303362,-1.8673899,1.280496,194.70001,-119.700005,-3.3000002,x,,,,,
124689,-5.254686,13.387636,-0.66334057,-1.21952,-3.2469718,0.007622,194.70001,-105.3,-5.7000003,x,,,,,
124712,-5.648264,12.809232,-1.6137897,0.099086,-5.708878,1.8673899,182.70001,-112.50001,-8.1,x,,,,,
124732,-5.746958,12.663883,-1.7842605,0.60976,-10.480249,4.0777698,175.5,-117.3,-3.3000002,x,,,,,
124752,-5.936569,12.352849,-1.9768625,0.739334,-12.309529,5.3811316,177.90001,-105.3,-9.3,x,,,,,
124772,-5.0357656,12.297221,-1.7800735,0.64787,-16.280592,7.9649897,187.5,-112.50001,-9.3,x,,,,,
124794,-3.188102,11.273201,-1.1735566,0.03811,-18.917803,8.993959,182.70001,-124.50001,-14.700001,x,,,,,
124815,-2.9602096,9.7916,-1.6149861,1.013726,-18.353775,8.597616,180.3,-129.3,-12.900001,x,,,,,
124856,-2.0181344,9.0540905,-1.9804513,1.768304,-18.75012,9.618964,153.90001,-138.90001,-9.900001,x,,,,,
124878,-1.8793652,8.040836,-1.9463573,1.8445239,-17.705906,8.788166,161.1,-129.3,-20.1,x,,,,,
124898,-1.6813799,7.250689,-2.05821,2.2103798,-17.30956,8.91774,153.90001,-141.3,-21.900002,x,,,,,
124918,-1.5988362,7.6526413,-1.1735566,1.958854,-17.629686,9.748538,149.1,-155.70001,-18.300001,x,,,,,
124938,-0.8714943,8.840553,-0.82902616,0.53354,-14.923876,8.948228,149.1,-148.5,-21.300001,x,,,,,
124958,-0.78835243,7.815934,-1.0455539,-0.548784,-11.806478,5.5183277,151.5,-162.90001,-21.300001,x,,,,,
125000,-1.2363615,6.7003975,-2.288495,3.1936178,-8.582372,5.350644,125.100006,-162.90001,-32.100002,x,,,,,
125050,-0.24464047,7.6747723,-2.2538028,1.814036,-4.76375,4.30643,125.100006,-158.1,-27.300001,,,,,,
125213,2.2388492,9.197046,-3.9764545,2.195136,-0.243904,0.60976,101.100006,-162.90001,-17.1,,,,,,
125233,2.07436,9.10254,-4.1361585,1.547266,0.030488,-0.312502,105.9,-155.70001,-20.7,,,,,,
125276,1.3990564,8.322561,-4.3401256,1.75306,0.015244,-0.221038,108.3,-167.70001,-23.7,,,,,,
125300,1.518685,8.951808,-3.9435565,1.501534,-0.083841994,-0.525918,103.50001,-165.3,-20.1,,,,,,
125320,1.3254849,8.690419,-3.9016867,1.074702,0.655492,-1.097568,98.700005,-160.5,-12.3,,,,,,
125340,1.3045498,8.832777,-3.8023949,1.044214,0.907018,-1.074702,101.100006,-155.70001,-17.1,,,,,,
125364,1.2961758,9.13783,-3.6893458,0.769822,1.6463519,-0.891774,108.3,-155.70001,-18.300001,,,,,,
125384,1.2662686,9.203626,-3.4411166,0.487808,1.821658,-0.92226195,117.9,-160.5,-19.5,,,,,,
125404,1.0898165,9.093568,-3.167167,0.091464,2.393308,-0.7622,105.9,-153.3,-23.1,,,,,,
125424,0.9845433,9.194056,-3.1839151,-0.289636,3.079288,-0.594516,105.9,-153.3,-17.1,,,,,,
125464,0.757249,9.180897,-3.1857095,-0.030488,3.117398,-0.121952,117.9,-160.5,-12.900001,,,,,,
125487,0.8092874,9.283179,-3.0696697,-0.03811,2.461906,-0.106708,108.3,-153.3,-21.900002,,,,,,
125507,0.83560574,9.024781,-2.9380782,-0.396344,2.2103798,-0.243904,108.3,-160.5,-20.1,,,,,,
125527,0.83321315,9.041529,-2.9925094,-0.23628199,1.920744,0.0,103.50001,-160.5,-14.700001,,,,,,
125547,1.0192356,9.063063,-3.0128462,-0.19055,1.493912,-0.160062,105.9,-162.90001,-20.1,,,,,,
125610,1.8171583,9.482361,-2.9775558,-0.998482,1.8292799,-0.884152,98.700005,-155.70001,-9.3,,,,,,
125630,1.5545735,8.886012,-3.104362,-1.044214,1.6463519,-1.280496,113.100006,-158.1,-17.7,,,,,,
125650,1.5330404,8.42604,-2.987126,-0.640248,1.1356779,-1.1128119,96.3,-158.1,-18.300001,,,,,,
125690,2.0175362,8.963172,-2.7717946,-0.853664,1.166166,-0.251526,105.9,-160.5,-13.500001,,,,,,
125773,1.5725179,9.107325,-3.1438394,0.16768399,0.327746,-0.121952,101.100006,-158.1,-18.900002,,,,,,
125873,0.0723753,10.320957,-3.585269,0.846042,0.16768399,0.67073596,110.700005,-158.1,-21.900002,,,,,,
125893,-0.23566833,10.191758,-3.460257,0.57164997,-0.487808,-0.17530599,105.9,-155.70001,-15.3,,,,,,
125933,-0.75665087,9.333423,-3.008061,-0.182928,0.34298998,0.129574,120.3,-155.70001,-14.700001,,,,,,
125954,-0.9588232,9.04751,-2.9632003,-0.487808,0.510674,0.0,113.100006,-162.90001,-14.1,,,,,,
125974,-1.0880221,8.846535,-2.9291062,-0.320124,0.93750596,0.55640596,105.9,-162.90001,-14.700001,,,,,,
125995,-1.0204319,9.25387,-2.9769576,-0.068598,0.93750596,0.617382,113.100006,-150.90001,-14.700001,,,,,,
126057,-0.8062967,8.708364,-2.9805465,0.060976,-0.099086,0.830798,110.700005,-165.3,-11.1,,,,,,
126077,-1.2172209,7.9511147,-3.0732586,-0.106708,-0.022866,0.22865999,101.100006,-150.90001,-14.700001,,,,,,
126097,-0.7853617,8.385964,-3.2897863,0.182928,-0.297258,0.907018,98.700005,-165.3,-15.3,,,,,,
126117,-0.62984455,8.696999,-2.9972944,0.015244,-0.373478,0.67073596,105.9,-155.70001,-13.500001,,,,,,
126137,-0.43903694,9.056482,-3.020622,-0.640248,-0.060976,0.46494198,91.5,-155.70001,-18.300001,,,,,,
126158,-0.28890306,8.696999,-2.7018118,-1.18141,0.15244,0.053354,89.100006,-158.1,-16.5,,,,,,
126178,-0.24942562,8.749636,-2.5235653,-1.577754,0.853664,0.213416,98.700005,-160.5,-18.900002,,,,,,
126238,-0.15073203,8.591127,-2.2526064,-2.179892,1.699706,-0.579272,98.700005,-155.70001,-18.300001,,,,,,
126280,0.47372922,9.399219,-2.6073053,-1.013726,1.516778,-0.487808,98.700005,-170.1,-18.900002,,,,,,
126355,0.85414815,9.2592535,-2.848955,-0.64787,0.983238,-0.487808,93.9,-167.70001,-18.300001,,,,,,
126396,0.8421853,9.344788,-2.9069748,-1.006104,0.708846,-1.074702,98.700005,-158.1,-19.5,,,,,,
126416,0.8397927,9.03794,-2.9925094,-0.7622,0.47256398,-0.967994,93.9,-158.1,-16.5,,,,,,
126436,0.74229544,8.88661,-2.9919112,-0.510674,0.060976,-0.60976,108.3,-158.1,-14.700001,,,,,,
126480,0.9863378,9.20243,-3.083427,-0.17530599,-0.602138,0.41158798,91.5,-158.1,-17.1,,,,,,
126501,1.0282078,9.148597,-3.171354,-0.35061198,-0.80793196,0.396344,103.50001,-170.1,-19.5,,,,,,
126521,1.1370698,8.877638,-3.0732586,-0.358234,-1.051836,0.33536798,91.5,-165.3,-17.1,,,,,,
126541,1.2531096,8.759804,-3.154008,-0.41158798,-1.044214,0.396344,108.3,-162.90001,-14.700001,,,,,,
126584,1.4941611,9.320264,-2.987126,-0.251526,-0.30488,0.45731997,103.50001,-162.90001,-17.7,,,,,,
126604,1.430758,9.225758,-2.9691818,-0.541162,0.35061198,-0.129574,93.9,-162.90001,-21.900002,,,,,,
126624,1.2261931,8.756813,-2.8214405,-0.792688,0.83842,-0.33536798,103.50001,-148.5,-14.700001,,,,,,
126644,1.0234226,8.768178,-2.8399827,-0.769822,1.250008,-0.053354,108.3,-160.5,-21.900002,,,,,,
126664,1.0497409,9.136036,-2.8387866,-0.548784,1.227142,0.053354,96.3,-172.5,-19.5,,,,,,
126687,1.1280977,9.173718,-2.807683,-0.442076,1.059458,-0.068598,96.3,-160.5,-18.300001,,,,,,
126708,1.2525114,9.27002,-2.6760917,-0.30488,0.80793196,-0.03811,101.100006,-153.3,-21.300001,,,,,,
126728,1.3254849,9.100745,-2.5456965,-0.41158798,0.891774,-0.099086,98.700005,-160.5,-15.3,,,,,,
126748,1.3111295,9.0756235,-2.610296,-0.46494198,0.93750596,-0.106708,103.50001,-158.1,-15.900001,,,,,,
126768,1.150827,8.926685,-2.6587455,-0.3811,0.846042,-0.30488,93.9,-162.90001,-20.7,,,,,,
126790,1.1143403,8.994276,-2.6043146,-0.327746,0.70122397,-0.30488,110.700005,-165.3,-16.5,,,,,,
126810,1.1107515,9.031361,-2.615081,-0.274392,0.640248,-0.442076,96.3,-162.90001,-18.300001,,,,,,
126830,1.121518,9.088782,-2.661138,-0.23628199,0.655492,-0.45731997,110.700005,-165.3,-20.1,,,,,,
126850,1.0521334,9.174915,-2.6796806,-0.106708,0.60976,-0.525918,81.9,-158.1,-23.1,,,,,,
126871,1.0395725,9.124073,-2.6701102,-0.045732,0.541162,-0.541162,103.50001,-155.70001,-14.1,,,,,,
126891,0.9636083,9.142017,-2.7562428,-0.030488,0.41158798,-0.41921,110.700005,-167.70001,-17.1,,,,,,
126911,0.99052477,9.083399,-2.740093,-0.068598,0.34298998,-0.373478,103.50001,-158.1,-17.1,,,,,,
126931,0.9881322,9.057679,-2.7849536,-0.045732,0.22865999,-0.23628199,101.100006,-153.3,-19.5,,,,,,
126951,1.0138524,9.0977545,-2.8292162,-0.198172,0.17530599,-0.26677,96.3,-160.5,-14.1,,,,,,
126971,1.2596891,9.141419,-2.8621142,-0.487808,0.144818,-0.365856,93.9,-158.1,-12.900001,,,,,,
126991,1.4564781,9.118092,-3.0660808,-0.983238,0.434454,-0.663114,96.3,-153.3,-17.7,,,,,,
127011,1.5653402,8.97693,-3.4285555,-1.3490939,0.853664,-0.82317597,101.100006,-167.70001,-18.300001,,,,,,
127031,2.012751,8.66111,-3.831704,-1.730194,0.92988396,-0.92988396,101.100006,-162.90001,-18.900002,,,,,,
127051,2.5092099,8.075528,-4.337733,-1.745438,2.40093,-0.94512796,91.5,-158.1,-12.900001,x,,,,,
127111,3.2987585,8.450563,-5.431138,-2.2561119,1.3643379,-2.43904,103.50001,-150.90001,-20.7,x,,,,,
127151,2.866301,7.594023,-5.143431,-3.559474,5.64028,-3.08691,117.9,-158.1,-18.300001,x,,,,,
127190,2.2490175,8.970948,-4.7378902,-3.2469718,5.9527817,-5.312534,105.9,-165.3,-21.300001,x,,,,,
127210,1.8859448,8.317776,-3.6223538,-3.940574,4.72564,-7.3323636,120.3,-160.5,-18.900002,x,,,,,
127254,0.7225567,5.1637683,-0.52516955,-3.064044,8.673836,-8.26987,149.1,-155.70001,-27.300001,x,,,,,
127316,-2.6324272,6.154293,-0.77040815,0.068598,14.359848,-7.4390717,149.1,-146.1,-17.7,x,,,,,
127337,-3.3872836,8.573781,0.6669294,-0.846042,12.934534,-6.737848,170.70001,-141.3,-18.300001,x,,,,,
127358,-3.6056058,10.455539,-0.092712164,-1.21952,17.065659,-7.759196,163.5,-150.90001,-17.1,x,,,,,
127378,-4.694824,11.912616,0.066992015,-2.408552,14.413201,-8.025966,161.1,-136.5,-15.900001,x,,,,,
127398,-4.606299,10.933455,0.6166854,-2.309466,13.285146,-9.283596,177.90001,-129.3,-6.9,x,,,,,
127440,-4.6469727,15.10969,-0.7500713,-0.960372,9.7028055,-3.7652678,182.70001,-126.9,-10.5,x,,,,,
127460,-5.1476183,13.009609,-0.085534446,-0.83842,5.929916,-4.0320377,177.90001,-134.1,-12.900001,x,,,,,
127480,-7.1884823,13.372683,-1.5719197,1.75306,4.664664,-2.179892,165.90001,-129.3,-12.900001,x,,,,,
127503,-6.7309027,15.483529,-2.0223215,1.06708,-1.3490939,0.830798,192.3,-126.9,-2.7,x,,,,,
127523,-7.055096,14.61981,-1.8117751,0.480186,-6.303394,1.211898,175.5,-134.1,-11.1,x,,,,,
127543,-7.964872,12.257146,-2.0725653,0.586894,-9.817136,2.454284,170.70001,-126.9,-8.700001,x,,,,,
127567,-6.4910474,12.043011,-2.2831118,0.861286,-14.047346,5.884184,177.90001,-138.90001,-9.900001,x,,,,,
127587,-4.677478,11.545356,-1.4343468,0.746956,-16.821754,8.6204815,180.3,-136.5,-13.500001,x,,,,,
127610,-3.8586204,9.671373,-1.2106414,0.81555396,-15.861382,10.335432,168.3,-126.9,-12.900001,x,,,,,
127671,-0.7129864,8.696401,-1.0246189,2.01983,-17.37816,13.651002,137.1,-158.1,-14.700001,x,,,,,
127691,-0.023925718,8.378188,-1.2447355,1.730194,-15.16778,12.103736,141.90001,-150.90001,-25.500002,x,,,,,
127711,0.23746276,8.164652,-1.1765472,1.059458,-14.13881,10.381164,127.50001,-165.3,-9.900001,x,,,,,
127731,0.36367092,8.398525,-1.1077608,0.358234,-12.743983,8.72719,120.3,-153.3,-19.5,x,,,,,
127751,0.4067372,8.312991,-1.1909027,-0.358234,-11.24245,6.204308,108.3,-162.90001,-17.7,x,,,,,
127773,0.28770676,7.3368216,-1.7513626,-0.46494198,-9.199754,3.4299,115.50001,-165.3,-21.900002,x,,,,,
127835,1.1047701,6.012533,-2.765813,1.5929979,-8.064075,3.39179,93.9,-165.3,-20.7,x,,,,,
127855,1.5743123,7.028778,-3.166569,2.7744079,-7.66011,5.03052,101.100006,-162.90001,-16.5,x,,,,,
127878,2.2484195,8.742457,-2.8393848,1.8673899,-6.8598,6.242418,101.100006,-167.70001,-21.900002,x,,,,,
127919,2.3835998,9.287366,-3.602615,0.015244,-1.8902559,1.532022,77.100006,-165.3,-25.500002,x,,,,,
127961,2.216718,8.07493,-4.5147834,2.461906,-1.9054999,1.6082419,72.3,-170.1,-18.900002,x,,,,,
128031,1.7890456,8.49363,-4.35807,0.56402797,2.2180018,-2.2332458,89.100006,-177.3,-21.900002,,,,,,
128051,1.3691492,7.7112594,-4.5153813,1.440558,1.8597679,-2.82014,67.5,-170.1,-23.1,,,,,,
128091,1.748372,9.208411,-4.270741,1.074702,1.234764,-1.044214,77.100006,-170.1,-21.300001,,,,,,
128112,1.5844808,8.689223,-4.145729,0.708846,1.570132,-1.737816,77.100006,-170.1,-13.500001,,,,,,
128132,1.6113971,8.704775,-3.756936,0.480186,1.814036,-1.21952,89.100006,-160.5,-18.900002,,,,,,
128152,1.3918787,8.618642,-3.8640037,0.182928,3.079288,-0.99086,96.3,-167.70001,-23.1,,,,,,
128174,1.0808444,8.728103,-3.7844505,0.17530599,3.551852,-0.487808,91.5,-165.3,-19.5,,,,,,
128194,0.86132586,9.232337,-3.9710712,0.213416,3.6814258,-0.243904,86.700005,-167.70001,-19.5,,,,,,
128214,0.85355,9.060072,-3.6791775,0.20579399,3.071666,-0.55640596,96.3,-158.1,-20.1,,,,,,
128236,0.8649147,9.085194,-3.1707559,0.022866,2.469528,-0.617382,81.9,-160.5,-18.900002,,,,,,
128256,0.9139625,9.033753,-2.9440596,-0.274392,2.393308,-0.739334,89.100006,-167.70001,-15.900001,,,,,,
128299,0.7548564,8.915321,-2.9978926,-0.899396,2.545748,-1.082324,86.700005,-160.5,-23.1,,,,,,
128330,0.76622117,8.790907,-2.7933276,-0.510674,1.928366,-0.594516,105.9,-160.5,-18.900002,,,,,,
128350,0.8906349,8.938648,-2.6719046,-0.548784,1.920744,-0.35061198,77.100006,-162.90001,-15.900001,,,,,,
128393,0.9378882,8.906349,-2.8022997,-0.67835796,2.164648,-0.33536798,93.9,-170.1,-21.300001,,,,,,
128413,0.9755712,9.110315,-2.878264,-0.3811,1.974098,-0.160062,89.100006,-158.1,-11.700001,,,,,,
128433,1.0222263,8.955397,-2.8334033,-0.289636,1.577754,-0.297258,91.5,-153.3,-14.700001,,,,,,
128455,1.0048802,8.790907,-2.8208423,-0.34298998,1.158544,-0.030488,96.3,-158.1,-18.300001,,,,,,
128476,1.0646945,9.016407,-2.882451,-0.129574,0.846042,0.022866,91.5,-177.3,-19.5,,,,,,
128496,1.192697,8.936854,-2.8160572,-0.312502,0.60976,-0.297258,91.5,-162.90001,-13.500001,,,,,,
128516,1.0341892,9.038538,-2.907573,-0.41158798,0.510674,-0.068598,91.5,-172.5,-13.500001,,,,,,
128538,0.8667092,9.093568,-2.9392745,-0.716468,0.327746,0.015244,91.5,-165.3,-20.7,,,,,,
128558,0.93609375,9.104334,-2.9195359,-0.68597996,0.0,0.083841994,105.9,-172.5,-12.3,,,,,,
128578,1.1358736,9.174915,-2.8800583,-0.525918,-0.327746,0.160062,86.700005,-160.5,-24.300001,,,,,,
128598,1.2279875,9.046314,-2.8166552,-0.487808,-0.57164997,0.373478,96.3,-160.5,-8.700001,,,,,,
128619,1.2656705,9.094166,-2.7490652,-0.434454,-0.754578,0.56402797,89.100006,-162.90001,-17.1,,,,,,
128639,1.3147182,8.99607,-2.6952322,-0.487808,-0.884152,0.487808,86.700005,-165.3,-15.3,,,,,,
128663,1.4253747,9.134241,-2.8399827,-0.594516,-0.907018,0.068598,93.9,-158.1,-11.700001,,,,,,
128683,1.3864954,8.6551285,-2.9309006,-0.655492,-0.960372,-0.15244,79.5,-174.90001,-18.300001,,,,,,
128723,1.7830642,8.880031,-2.7801685,-0.41158798,-0.92226195,-0.289636,79.5,-162.90001,-17.7,,,,,,
128749,1.8039992,8.836965,-2.81187,-0.503052,-0.67073596,-0.312502,74.700005,-172.5,-18.900002,,,,,,
128769,1.7693069,8.50021,-2.7711964,-0.594516,-0.663114,-0.56402797,89.100006,-167.70001,-16.5,,,,,,
128812,2.3417296,8.375197,-2.8997972,-0.960372,-0.144818,-0.708846,89.100006,-162.90001,-19.5,,,,,,
128833,2.3405335,7.561723,-3.0343792,-0.907018,0.53354,-1.150922,101.100006,-162.90001,-28.500002,,,,,,
128853,2.469134,7.6879315,-3.4901643,-0.388722,0.960372,-0.67835796,91.5,-162.90001,-14.1,,,,,,
128873,2.8639085,8.173025,-4.3431163,0.22865999,2.7667859,-0.87653,103.50001,-165.3,-21.300001,,,,,,
128940,3.8813498,9.331629,-5.584263,-0.144818,3.948196,-3.056422,89.100006,-172.5,-15.3,x,,,,,
128961,3.9058735,8.884217,-6.180611,-0.213416,7.987856,-6.189064,93.9,-158.1,-19.5,x,,,,,
128981,3.104362,8.2011385,-6.2105184,0.03811,8.391822,-8.1555395,110.700005,-170.1,-17.7,x,,,,,
129001,1.9469553,7.1807065,-5.333641,-0.57164997,8.056454,-9.230242,108.3,-160.5,-18.300001,x,,,,,
129021,1.1777436,5.8091645,-4.4352303,-1.1432999,8.872007,-9.817136,127.50001,-158.1,-17.1,x,,,,,
129041,0.028710863,5.0339713,-3.8753684,-1.036592,10.381164,-9.840002,132.3,-153.3,-17.7,x,,,,,
129061,-1.4911704,4.803088,-3.9961932,-0.34298998,11.692148,-10.1372595,127.50001,-148.5,-8.700001,x,,,,,
129124,-2.116828,7.4821706,-1.4744225,-0.289636,6.654006,-8.170784,144.3,-146.1,-14.1,x,,,,,
129175,-3.175541,8.912331,0.6890607,-6.8598,18.719631,-10.274456,168.3,-134.1,-8.1,x,,,,,
129196,-5.0770373,10.113401,-2.740093,-3.902464,18.818718,-8.6204815,165.90001,-138.90001,-12.3,x,,,,,
129216,-5.216405,10.581747,-1.5342367,-3.384168,10.800374,-8.071698,165.90001,-131.70001,-3.9,x,,,,,
129237,-4.258778,12.481449,-0.5849838,-2.7896519,9.26073,-5.37351,173.1,-126.9,-1.5,x,,,,,
129297,-5.3378277,14.244177,-1.6963334,-1.166166,2.378064,-1.242386,173.1,-124.50001,-7.5000005,x,,,,,
129317,-5.1069446,15.122251,-1.4552819,-1.8521459,0.297258,-0.716468,185.1,-117.3,-5.7000003,x,,,,,
129381,-5.3115096,13.583827,-1.1711639,-0.144818,-12.332396,5.800342,177.90001,-119.700005,-12.3,x,,,,,
129410,-4.8886223,11.091963,-0.71657526,-0.907018,-12.713495,7.751574,170.70001,-136.5,-18.300001,x,,,,,
129472,-2.1269965,9.174915,-1.1418549,0.655492,-14.054968,10.000064,163.5,-138.90001,-12.900001,x,,,,,
129492,-1.987031,8.333926,-1.6102009,0.625004,-13.7196,9.79427,144.3,-150.90001,-13.500001,x,,,,,
129512,-1.1556122,8.20712,-1.945759,0.49543,-14.32936,9.893355,146.70001,-160.5,-16.5,x,,,,,
129532,-0.9211402,8.182596,-1.8345045,0.365856,-14.291249,9.123534,122.700005,-150.90001,-21.900002,x,,,,,
129552,-0.5819931,8.204727,-2.0629952,0.35061198,-13.765331,8.048832,120.3,-165.3,-17.7,x,,,,,
129575,-0.15970418,7.5700974,-1.757344,0.487808,-13.399476,6.196686,137.1,-150.90001,-14.700001,x,,,,,
129595,0.19200389,7.747746,-2.0055733,1.1356779,-12.355262,5.5335717,117.9,-155.70001,-26.1,x,,,,,
129617,0.35589507,7.627519,-1.8075881,1.06708,-11.867454,4.146368,129.90001,-150.90001,-21.300001,x,,,,,
129637,0.4067372,6.5329175,-1.7005205,1.6234859,-9.29884,3.01069,117.9,-174.90001,-23.1,x,,,,,
129657,0.018542431,6.3397174,-2.9057786,2.2484899,-6.654006,3.08691,115.50001,-162.90001,-15.3,x,,,,,
129677,0.004187001,6.919916,-3.204252,2.7286758,-8.239382,4.0777698,110.700005,-170.1,-21.900002,x,,,,,
129697,0.9845433,8.02349,-2.4481993,2.347576,-8.468041,4.679908,103.50001,-167.70001,-23.7,x,,,,,
129717,0.98992664,7.802177,-2.8208423,1.158544,-4.359784,2.7286758,98.700005,-162.90001,-23.7,x,,,,,
129737,0.71179014,7.83986,-3.8305075,2.339954,-1.8750119,2.2332458,108.3,-162.90001,-23.1,x,,,,,
129779,1.6783892,9.959081,-4.4113045,2.942092,-1.958854,2.7896519,93.9,-153.3,-18.300001,x,,,,,
129799,1.3715419,9.283777,-4.2892833,1.79117,-0.907018,1.242386,98.700005,-150.90001,-24.900002,x,,,,,
129819,1.1717621,8.449368,-4.183412,1.234764,-0.40396598,0.40396598,84.3,-153.3,-20.1,x,,,,,
129843,1.2830167,8.112015,-4.1642714,1.211898,0.548784,0.365856,93.9,-172.5,-16.5,x,,,,,
129885,1.5485922,8.432021,-3.9064717,0.487808,2.05794,0.26677,72.3,-153.3,-20.1,,,,,,
129948,1.577303,8.650344,-3.9399679,0.426832,3.2317278,-0.92988396,91.5,-160.5,-18.900002,,,,,,
129968,1.7262406,8.797487,-3.560147,0.525918,2.637212,-0.26677,91.5,-167.70001,-15.900001,,,,,,
130008,1.953535,9.299329,-2.7442799,-0.259148,2.85825,0.289636,84.3,-155.70001,-14.1,,,,,,
130071,1.1813323,8.774757,-3.1282878,0.259148,3.140264,-0.663114,91.5,-155.70001,-21.900002,,,,,,
130111,0.96241206,8.594716,-3.250309,0.26677,2.111294,-0.068598,101.100006,-158.1,-12.3,,,,,,
130131,1.1280977,8.618642,-3.0439496,0.525918,1.41007,0.55640596,93.9,-167.70001,-23.1,,,,,,
130151,1.4929649,9.233533,-2.9673872,0.20579399,1.4024479,0.785066,96.3,-165.3,-21.300001,,,,,,
130194,1.158603,8.717934,-3.217411,-0.213416,0.975616,1.1356779,89.100006,-160.5,-11.700001,,,,,,
130236,1.3529994,8.955397,-2.9213302,-1.234764,0.41921,0.853664,84.3,-167.70001,-20.1,,,,,,
130315,1.1382661,9.008033,-2.7311208,-0.221038,0.68597996,-0.434454,91.5,-170.1,-20.1,,,,,,
130335,0.89841074,8.775355,-2.9739668,-0.091464,1.097568,-0.967994,81.9,-170.1,-15.900001,,,,,,
130375,0.8517556,9.347778,-3.3089268,0.358234,0.525918,-0.91463995,74.700005,-153.3,-16.5,,,,,,
130418,0.7476787,9.134839,-3.317899,-0.053354,0.045732,-0.41158798,79.5,-162.90001,-12.900001,,,,,,
130512,1.1597992,8.871058,-2.8633103,-0.80030996,0.40396598,0.144818,89.100006,-162.90001,-20.7,,,,,,
130552,1.3464198,9.081007,-2.6742973,-0.617382,0.099086,-0.03811,86.700005,-165.3,-14.700001,,,,,,
130615,1.1328828,8.683242,-2.7347097,-0.655492,0.015244,-0.579272,74.700005,-158.1,-18.900002,,,,,,
130695,1.1897063,9.074427,-2.664727,-0.594516,-0.792688,0.586894,69.9,-167.70001,-17.7,,,,,,
130733,1.4170007,9.099549,-2.7544484,-1.242386,-0.594516,-0.015244,79.5,-165.3,-13.500001,,,,,,
130753,1.2333708,8.933266,-2.932097,-0.746956,-0.56402797,-0.22865999,77.100006,-170.1,-21.900002,,,,,,
130793,1.4062341,8.948817,-2.7538502,0.068598,-0.891774,-0.708846,91.5,-167.70001,-10.5,,,,,,
130836,1.4068322,8.691615,-2.9943037,0.19055,-0.487808,-1.1204339,89.100006,-162.90001,-20.7,,,,,,
131034,2.7125783,8.164053,-5.4616437,-1.1051899,2.179892,-2.378064,96.3,-155.70001,-21.900002,,,,,,
131054,3.1061563,8.50021,-5.091991,-1.798792,1.432936,-2.027452,96.3,-167.70001,-22.5,,,,,,
131094,3.3101232,8.080314,-5.1488147,-1.585376,4.771372,-2.873494,98.700005,-158.1,-23.7,x,,,,,
131137,2.1604924,7.2794,-5.133263,-2.2332458,10.09915,-5.777476,105.9,-158.1,-20.7,x,,,,,
131157,1.7639236,7.2423153,-4.787536,-1.989342,11.349157,-7.0351057,108.3,-155.70001,-21.300001,x,,,,,
131177,1.527059,6.9294863,-3.9728656,-2.408552,12.225688,-8.856764,117.9,-146.1,-26.7,x,,,,,
131221,0.878672,5.9862146,-2.590557,-2.850628,16.189127,-12.469592,127.50001,-155.70001,-20.1,x,,,,,
131241,-0.23925719,5.049523,-1.8034011,-4.070148,18.879694,-14.336982,149.1,-138.90001,-12.900001,x,,,,,
131261,-1.5515828,5.794211,-2.3824034,-3.2622159,22.4849,-13.178437,146.70001,-146.1,-9.3,x,,,,,
131281,-3.2580848,7.6430707,-2.6503716,-3.1783738,22.751669,-12.812582,153.90001,-143.70001,-14.700001,x,,,,,
131301,-4.0895033,9.72401,-1.7184647,-1.692084,18.742498,-11.135742,168.3,-143.70001,-12.3,x,,,,,
131364,-6.865485,8.975135,-3.7826562,1.75306,20.678486,-7.92688,194.70001,-117.3,-6.9,x,,,,,
131414,-7.606584,11.920989,-2.012153,0.121952,10.632689,-5.75461,180.3,-114.9,2.7,x,,,,,
131451,-6.7309027,14.535472,-0.09570287,-2.560992,-1.303362,-1.684462,180.3,-95.700005,-9.3,x,,,,,
131471,-7.2357354,12.773343,-0.13996546,-1.6311079,-2.6905658,-0.243904,180.3,-117.3,-6.9,x,,,,,
131512,-8.332729,12.845718,-1.7124833,-0.72409,-9.253108,5.190582,177.90001,-112.50001,-2.1000001,x,,,,,
131532,-6.856513,12.899551,-2.3734312,0.19055,-16.333946,9.093046,187.5,-126.9,-9.3,x,,,,,
131556,-4.6583376,12.4234295,-1.0778537,-0.11432999,-22.362947,11.288181,175.5,-131.70001,-12.3,x,,,,,
131576,-3.099577,11.807343,-1.3733363,0.388722,-23.437649,12.439104,173.1,-129.3,-14.1,x,,,,,
131596,-1.9218334,11.03514,-1.3236904,0.663114,-25.015404,12.42386,168.3,-134.1,-3.9,x,,,,,
131616,-1.0258152,9.110315,-0.48509395,0.480186,-24.230337,10.89946,156.3,-136.5,-15.900001,x,,,,,
131639,-1.3440273,7.5694995,-1.1161348,0.853664,-21.3416,10.304944,151.5,-141.3,-16.5,x,,,,,
131659,-0.5090197,8.010929,-1.0987886,1.547266,-21.776054,11.082388,141.90001,-160.5,-17.1,x,,,,,
131721,-1.1065645,5.6285253,-2.6324272,3.1783738,-13.894906,6.280528,127.50001,-160.5,-22.5,x,,,,,
131812,0.4019521,7.5623217,-2.7729907,1.745438,-4.9466777,4.03966,108.3,-155.70001,-21.300001,x,,,,,
131832,0.5209825,7.3978324,-3.5481842,3.132642,-3.3003259,3.2012398,113.100006,-170.1,-21.300001,x,,,,,
131872,1.4983481,8.528322,-4.242628,3.2012398,-1.3643379,1.737816,96.3,-160.5,-20.1,x,,,,,
131930,1.5168905,7.309307,-4.78634,3.422278,-2.103672,-0.068598,96.3,-160.5,-24.900002,x,,,,,
131950,1.7035112,7.943339,-4.7546387,2.660078,-1.67684,0.72409,113.100006,-160.5,-26.7,x,,,,,
131992,2.1850162,8.52892,-4.3873787,2.073184,-0.46494198,1.303362,91.5,-170.1,-21.300001,,,,,,
132033,2.2011662,8.864479,-3.8293114,0.777444,1.006104,0.69360197,101.100006,-162.90001,-17.7,,,,,,
132112,1.3398403,9.101942,-3.217411,0.129574,2.881116,-0.060976,89.100006,-165.3,-14.1,,,,,,
132155,0.87328875,8.7843275,-3.200065,0.030488,2.6829438,-0.853664,86.700005,-170.1,-14.700001,,,,,,
132352,0.70042545,9.084596,-2.8674974,-0.45731997,1.1280559,-0.92226195,91.5,-162.90001,-20.1,,,,,,
132372,0.6597517,8.90934,-2.8800583,-0.480186,1.059458,-0.967994,96.3,-155.70001,-17.7,,,,,,
132415,0.677696,9.010426,-2.97935,0.17530599,0.632626,-0.045732,101.100006,-160.5,-18.300001,,,,,,
132435,0.93429935,9.26344,-2.8429735,0.121952,0.41921,0.068598,93.9,-158.1,-18.300001,,,,,,
132475,0.96958977,8.894984,-2.9249191,-0.312502,1.089946,-0.251526,96.3,-167.70001,-23.7,,,,,,
132732,0.94805664,9.19286,-2.8208423,-0.091464,0.121952,0.373478,86.700005,-167.70001,-14.1,,,,,,
132789,0.9241309,8.97035,-2.886638,-0.327746,0.045732,0.121952,93.9,-153.3,-15.900001,,,,,,
132854,0.9755712,9.133643,-2.8525438,-0.22865999,-0.121952,-0.17530599,89.100006,-179.70001,-21.300001,,,,,,
133132,1.1562104,8.901564,-2.5235653,-0.11432999,-0.053354,-0.129574,98.700005,-155.70001,-12.3,,,,,,
133152,1.3709437,9.030763,-2.5791924,-0.17530599,0.099086,-0.23628199,86.700005,-172.5,-14.700001,,,,,,
133192,1.594051,8.841151,-3.0092573,-0.46494198,0.46494198,-0.64787,86.700005,-167.70001,-15.900001,,,,,,
133233,2.32558,8.551052,-4.037465,-1.440558,2.103672,-1.6463519,86.700005,-160.5,-17.7,,,,,,
133372,3.2281775,8.141324,-5.3701277,-0.625004,8.7653,-8.399444,105.9,-155.70001,-20.7,x,,,,,
133392,3.359171,8.37759,-5.487962,-1.4024479,10.78513,-10.015307,115.50001,-158.1,-13.500001,x,,,,,
133435,0.8876442,5.5734963,-4.363453,-3.147886,14.801924,-12.477214,122.700005,-158.1,-19.5,x,,,,,
133455,0.0681883,5.693125,-4.134364,-3.338436,15.381196,-10.731775,144.3,-146.1,-10.5,x,,,,,
133497,-1.4068322,4.2749276,-1.7124833,-3.147886,17.027548,-10.472628,173.1,-148.5,-13.500001,x,,,,,
133539,-4.01653,7.9134316,-2.8932176,-2.17227,16.173883,-8.186028,153.90001,-143.70001,-6.3,x,,,,,
133559,-4.4794927,8.878236,-1.2746427,-2.888738,12.263798,-9.054935,185.1,-126.9,-10.5,x,,,,,
133582,-4.129579,9.868761,-0.3576895,-2.423796,12.073248,-8.91774,165.90001,-117.3,-7.5000005,x,,,,,
133602,-5.3473983,9.557727,-0.66034985,-2.55337,13.590026,-9.466524,168.3,-122.100006,-8.700001,x,,,,,
133622,-5.5208597,11.568684,-0.9941136,-1.692084,10.800374,-6.0899777,189.90001,-119.700005,-1.5,x,,,,,
133664,-5.878549,15.426107,-0.10048802,-3.46801,8.414688,-4.748506,170.70001,-117.3,-9.900001,x,,,,,
133684,-7.2494926,14.729869,-0.42527965,-3.2088618,6.0976,-4.1921,177.90001,-129.3,-6.3,x,,,,,
133708,-7.6879315,14.948191,-1.0012913,-0.960372,0.525918,-1.951232,192.3,-112.50001,-6.3,x,,,,,
133728,-8.220279,14.566576,-1.5306479,0.548784,-3.041178,-0.426832,187.5,-110.100006,-8.700001,x,,,,,
133750,-7.995975,14.169409,-1.640108,0.884152,-7.0046177,2.2408679,194.70001,-114.9,-11.700001,x,,,,,
133771,-6.873261,13.355336,-1.3541957,0.373478,-9.984819,4.9314337,185.1,-110.100006,-13.500001,x,,,,,
133792,-6.388167,11.272602,-1.6472857,0.297258,-10.960436,6.4024796,187.5,-110.100006,-14.1,x,,,,,
133812,-5.4771953,9.764086,-2.3273742,1.8826339,-12.065626,8.429932,177.90001,-129.3,-5.1000004,x,,,,,
133834,-3.66542,9.549951,-2.584576,1.417692,-16.135773,11.364402,182.70001,-119.700005,-18.900002,x,,,,,
133855,-2.284308,8.464321,-2.2041569,1.18141,-17.576332,11.1586075,180.3,-131.70001,-15.3,x,,,,,
133875,-1.8045974,7.0861998,-1.6682208,0.868908,-18.63579,10.327809,165.90001,-136.5,-16.5,x,,,,,
133895,-1.5575643,6.3576617,-1.3129238,0.57164997,-18.620546,10.411652,149.1,-146.1,-12.3,x,,,,,
133915,-0.44621465,7.065863,-1.602425,0.830798,-18.02603,10.777508,161.1,-136.5,-14.700001,x,,,,,
133935,-0.21892032,7.0885925,-1.7047075,1.211898,-17.355293,8.833898,146.70001,-153.3,-20.7,x,,,,,
133955,-0.50363636,6.6352,-1.9248241,2.2484899,-16.394922,7.4085836,144.3,-158.1,-15.900001,x,,,,,
133977,0.2697625,6.915729,-2.2203066,2.599102,-16.021444,7.477182,137.1,-148.5,-22.5,x,,,,,
134017,-0.03229972,6.757819,-2.0217233,1.951232,-11.059522,5.724122,127.50001,-160.5,-20.7,x,,,,,
134037,0.1489376,6.8792424,-2.6114922,2.583858,-9.75616,5.5945477,120.3,-160.5,-19.5,x,,,,,
134059,0.8254373,7.455852,-2.958415,3.338436,-8.72719,5.79272,113.100006,-167.70001,-23.7,x,,,,,
134079,1.1562104,7.969059,-2.957219,3.628072,-7.629622,6.17382,113.100006,-155.70001,-27.900002,x,,,,,
134099,1.8470654,8.994276,-2.7508595,2.980202,-6.0137577,5.777476,105.9,-165.3,-27.300001,x,,,,,
134119,2.1305852,8.969153,-2.9763594,2.050318,-3.490876,3.7119138,96.3,-170.1,-23.7,x,,,,,
134139,1.953535,8.68384,-3.200065,1.516778,-1.173788,2.2256238,98.700005,-170.1,-22.5,x,,,,,
134161,1.836897,9.083998,-3.953725,1.737816,0.0,1.41007,108.3,-165.3,-20.7,x,,,,,
134182,1.5910603,8.219681,-3.9585102,1.303362,-0.34298998,-0.297258,101.100006,-165.3,-23.1,x,,,,,
134202,1.518685,8.202932,-4.094289,0.68597996,0.144818,-0.510674,103.50001,-165.3,-23.7,x,,,,,
134224,1.493563,8.031265,-3.965688,0.525918,0.137196,-0.846042,103.50001,-170.1,-26.7,x,,,,,
134244,1.5461996,8.359048,-3.9483418,0.884152,0.56402797,-0.640248,101.100006,-170.1,-23.1,,,,,,
134264,1.4528893,8.684438,-3.9016867,0.80030996,0.891774,-0.663114,89.100006,-162.90001,-26.1,,,,,,
134284,1.5079185,8.836965,-3.7180567,0.708846,1.059458,-0.663114,93.9,-172.5,-11.1,,,,,,
134304,1.481002,8.630007,-3.4046297,0.480186,1.3948259,-0.769822,91.5,-165.3,-18.300001,,,,,,
134344,1.2435392,8.979322,-3.4865754,0.92988396,2.599102,-0.33536798,105.9,-158.1,-14.700001,,,,,,
134388,1.1807343,9.164148,-3.4183872,1.3490939,1.94361,0.15244,105.9,-177.3,-23.1,,,,,,
134408,1.2525114,9.246094,-3.1354654,0.785066,1.8445239,0.221038,93.9,-160.5,-12.3,,,,,,
134428,1.31412,9.474585,-3.1892984,0.16768399,2.32471,0.259148,101.100006,-162.90001,-18.900002,,,,,,
134491,0.86611104,8.827992,-3.0977824,-0.426832,1.821658,-0.586894,93.9,-155.70001,-11.1,,,,,,
134531,0.8487649,8.957191,-2.7999072,-0.480186,1.234764,-0.19055,108.3,-160.5,-15.900001,,,,,,
134573,0.7751933,9.059473,-3.040959,-0.72409,1.326228,-0.602138,91.5,-162.90001,-19.5,,,,,,
134636,0.89900887,9.083998,-2.9739668,-0.297258,0.57164997,-0.182928,101.100006,-172.5,-14.1,,,,,,
134656,0.7692119,8.977528,-2.9984908,-0.55640596,0.94512796,-0.251526,101.100006,-146.1,-18.300001,,,,,,
134676,0.6447981,9.243702,-3.2730384,-0.480186,0.967994,-0.137196,101.100006,-162.90001,-6.9,,,,,,
134696,0.5467027,9.094764,-3.2766273,-0.449698,0.625004,-0.19055,108.3,-167.70001,-12.3,,,,,,
134720,0.7339214,9.093568,-3.0116498,-0.60976,0.41158798,0.03811,98.700005,-165.3,-16.5,,,,,,
134740,0.719566,9.034351,-2.9966962,-0.861286,0.655492,0.144818,98.700005,-158.1,-20.1,,,,,,
134762,0.7099957,9.157569,-3.0044723,-0.80793196,0.739334,0.221038,103.50001,-158.1,-19.5,,,,,,
134802,0.67291087,9.070838,-2.9470503,-1.006104,0.617382,-0.091464,105.9,-162.90001,-17.1,,,,,,
134823,0.66214424,8.924891,-2.8340013,-0.754578,0.47256398,-0.022866,105.9,-160.5,-16.5,,,,,,
134843,0.73272514,8.915919,-2.7622242,-0.70122397,0.56402797,0.213416,98.700005,-167.70001,-11.700001,,,,,,
134864,0.79373574,9.069642,-2.7682056,-0.67073596,0.57164997,0.22865999,98.700005,-155.70001,-15.3,,,,,,
134885,0.8212503,8.990088,-2.7203543,-0.69360197,0.41158798,0.137196,103.50001,-155.70001,-20.1,,,,,,
134925,1.0222263,9.146204,-2.5331354,-0.64787,0.312502,-0.160062,84.3,-162.90001,-15.3,,,,,,
134945,1.0078709,9.113306,-2.5319393,-0.655492,0.3811,-0.274392,86.700005,-160.5,-14.700001,,,,,,
134965,0.97796375,9.168336,-2.5439022,-0.57164997,0.46494198,-0.358234,96.3,-155.70001,-17.7,,,,,,
135029,0.83141875,8.97693,-2.6623344,-0.289636,0.33536798,-0.083841994,105.9,-162.90001,-18.300001,,,,,,
135049,0.78177285,8.950013,-2.7197561,-0.33536798,0.312502,0.083841994,98.700005,-162.90001,-14.1,,,,,,
135071,0.9085792,9.082203,-2.744878,-0.23628199,0.121952,0.17530599,89.100006,-172.5,-12.900001,,,,,,
135111,1.0216281,9.240711,-2.7688038,-0.297258,-0.053354,-0.099086,84.3,-165.3,-17.1,,,,,,
135196,1.1472383,9.267029,-2.6294365,-0.327746,-0.137196,-0.160062,105.9,-153.3,-11.700001,,,,,,
135352,2.9955,8.14252,-5.0309806,-1.18141,1.150922,-1.4024479,93.9,-153.3,-24.300001,,,,,,
135372,3.371732,7.160968,-4.7414794,-1.196654,1.6387299,-1.951232,86.700005,-158.1,-17.1,x,,,,,
135417,2.9237227,7.1908746,-4.530335,-1.94361,7.896392,-3.338436,108.3,-153.3,-25.500002,x,,,,,
135437,3.1241007,9.035547,-4.825219,-0.830798,9.1768875,-3.513742,96.3,-162.90001,-26.7,x,,,,,
135457,3.7264307,10.424436,-4.410706,-2.378064,10.358297,-6.25004,110.700005,-158.1,-17.7,x,,,,,
135477,3.6241484,8.925489,-3.7635155,-4.64942,13.574781,-11.1890955,105.9,-153.3,-15.3,x,,,,,
135497,3.6911402,7.5820603,-3.3364415,-6.25004,16.42541,-13.368988,132.3,-158.1,-15.3,x,,,,,
135517,2.9925094,6.199154,-3.05352,-8.750056,20.739462,-15.899491,129.90001,-158.1,-13.500001,x,,,,,
135539,1.5198812,4.575196,-3.354984,-9.275973,24.54284,-17.34005,144.3,-150.90001,-14.1,x,,,,,
135600,-6.464131,4.765405,-3.045744,-2.492394,20.38885,-11.882698,170.70001,-141.3,-12.900001,x,,,,,
135620,-4.9179316,9.32146,0.34213778,-5.0228977,11.875075,-7.309498,189.90001,-136.5,-17.1,x,,,,,
135640,-6.234444,9.365125,2.2938783,-3.422278,18.262312,-10.78513,185.1,-124.50001,-10.5,x,,,,,
135662,-6.983917,9.0540905,-1.1436493,-0.769822,20.724218,-9.1159115,189.90001,-122.100006,-9.3,x,,,,,
135682,-6.895392,12.078301,-0.4342518,-0.46494198,13.368988,-4.83997,180.3,-124.50001,-13.500001,x,,,,,
135702,-7.180108,13.461207,0.49885124,-0.72409,11.173852,-4.618932,189.90001,-117.3,-6.9,x,,,,,
135722,-7.4492726,13.777625,-0.42767224,-0.19055,8.445176,-4.131124,185.1,-122.100006,-4.5,x,,,,,
135742,-6.849933,14.744225,-0.49645868,-0.53354,4.4817357,-2.812518,185.1,-114.9,-9.3,x,,,,,
135762,-7.5509567,13.512648,-0.81227815,-0.221038,-0.80793196,-3.041178,197.1,-100.50001,-9.3,x,,,,,
135784,-7.70767,13.721998,-0.96121573,0.259148,-4.862836,-0.92988396,187.5,-112.50001,2.7,x,,,,,
135804,-7.0395446,12.889981,-0.42408335,-0.243904,-8.6509695,1.1051899,197.1,-100.50001,-5.1000004,x,,,,,
135825,-7.045526,11.478962,0.059216153,-0.11432999,-11.097631,3.2774599,194.70001,-114.9,-6.9,x,,,,,
135845,-6.2398276,11.367707,-0.76323044,0.45731997,-12.660142,6.5549197,209.1,-119.700005,-5.7000003,x,,,,,
135865,-5.9880095,10.288657,-1.0168431,0.891774,-15.47266,8.064075,185.1,-124.50001,-6.3,x,,,,,
135887,-4.7468624,9.92379,-1.3344569,2.195136,-19.382746,11.326292,197.1,-129.3,-11.1,x,,,,,
135909,-3.6133816,10.351462,-0.60472256,1.463424,-22.279106,13.03362,197.1,-126.9,-16.5,x,,,,,
135950,-2.753252,9.179102,-1.1005831,2.644834,-23.315697,11.859832,170.70001,-131.70001,-21.900002,x,,,,,
135973,-1.6706133,8.622829,-0.80510044,2.599102,-22.705938,11.250072,156.3,-143.70001,-18.900002,x,,,,,
135993,-1.3559902,7.6741743,-0.42348522,2.568614,-21.410198,10.655556,156.3,-148.5,-25.500002,x,,,,,
136055,-1.1011813,6.8349795,-1.9355906,4.8857017,-14.931498,8.170784,120.3,-153.3,-30.300001,x,,,,,
136075,-0.59515226,6.5711985,-2.1186223,5.236314,-14.146432,7.728708,122.700005,-167.70001,-26.1,x,,,,,
136095,0.08314187,7.4115896,-2.1640813,5.0533857,-12.888802,8.1250515,120.3,-165.3,-26.1,x,,,,,
136136,0.9492529,7.6053877,-2.6419976,3.8262439,-7.301876,3.978684,122.700005,-158.1,-31.500002,x,,,,,
136156,0.96958977,6.3744097,-3.5380156,5.015276,-4.131124,1.928366,115.50001,-148.5,-21.300001,x,,,,,
136176,1.3171108,6.062777,-4.396949,6.0137577,-4.207344,3.6814258,91.5,-165.3,-22.5,x,,,,,
136196,2.3249817,8.601295,-3.694131,4.207344,-5.266802,5.75461,86.700005,-165.3,-18.900002,x,,,,,
136260,2.3943663,8.347085,-4.7929196,2.827762,-0.442076,0.35061198,93.9,-162.90001,-20.1,,,,,,
136312,2.0271065,9.062464,-4.2067394,1.661596,-0.15244,-0.67835796,93.9,-172.5,-18.300001,,,,,,
136333,1.8249342,9.042128,-4.008156,1.730194,0.53354,-1.158544,98.700005,-158.1,-19.5,,,,,,
136375,1.1257051,8.757411,-4.1098404,1.455802,1.760682,-0.983238,93.9,-155.70001,-19.5,,,,,,
136419,0.8529519,8.610867,-4.262367,1.44818,1.425314,-0.83842,91.5,-170.1,-15.3,,,,,,
136459,1.2232023,9.134241,-3.7760766,0.129574,1.6311079,-0.525918,101.100006,-148.5,-12.3,,,,,,
136509,0.75665087,8.515163,-3.4237704,-0.99086,2.469528,-0.94512796,96.3,-165.3,-15.900001,,,,,,
136553,0.6824811,8.897975,-3.100773,-0.33536798,1.204276,0.221038,93.9,-165.3,-21.900002,,,,,,
136595,1.0150486,9.245496,-2.9171433,-0.320124,1.082324,-0.3811,98.700005,-160.5,-24.300001,,,,,,
136615,0.8972145,8.90575,-3.0654826,-0.47256398,1.509156,-0.785066,98.700005,-153.3,-24.300001,,,,,,
136635,0.8840553,8.988295,-3.179728,-0.068598,1.463424,-0.716468,103.50001,-165.3,-15.3,,,,,,
136675,0.88226086,9.357348,-3.246122,0.327746,1.318606,-0.503052,93.9,-160.5,-16.5,,,,,,
136733,0.8391946,8.868068,-3.1593912,-0.23628199,1.189032,-0.56402797,98.700005,-146.1,-13.500001,,,,,,
136752,0.94566405,8.783132,-3.07924,-0.16768399,0.884152,-0.35061198,108.3,-160.5,-22.5,,,,,,
136795,1.1669769,8.97035,-3.133671,-0.46494198,0.67835796,-0.03811,103.50001,-162.90001,-14.1,,,,,,
136837,1.3482143,8.9679575,-3.3735263,0.060976,-0.26677,-0.289636,89.100006,-165.3,-12.3,,,,,,
136857,1.6377155,9.101942,-3.30474,-0.030488,-0.503052,-0.213416,93.9,-146.1,-14.700001,,,,,,
136877,1.753157,9.111512,-3.3310583,-0.40396598,-0.480186,-0.15244,103.50001,-167.70001,-20.1,,,,,,
136917,1.7334183,8.826198,-3.1498208,-0.708846,-0.3811,0.213416,93.9,-170.1,-11.1,,,,,,
136960,1.594051,8.884217,-3.0086591,-0.69360197,-0.34298998,0.213416,93.9,-150.90001,-16.5,,,,,,
137034,1.3464198,9.462024,-2.9937055,-0.198172,-0.487808,0.663114,91.5,-160.5,-9.3,,,,,,
137054,1.1526215,9.327441,-2.8812547,-0.129574,-0.541162,0.449698,81.9,-170.1,-11.700001,,,,,,
137097,0.66513497,9.468005,-2.9943037,-0.045732,-0.28201398,-0.548784,89.100006,-167.70001,-19.5,,,,,,
137118,0.23088318,8.936256,-2.9757612,0.373478,-0.251526,-0.518296,91.5,-160.5,-23.7,,,,,,
137138,-0.07117901,9.340601,-3.0690715,0.602138,-0.20579399,-0.137196,84.3,-167.70001,-18.300001,,,,,,
137158,-0.27036062,8.990088,-3.071464,0.46494198,-0.23628199,-0.426832,103.50001,-155.70001,-20.7,,,,,,
137178,-0.3158195,8.923097,-3.070866,0.640248,-0.045732,-0.198172,96.3,-148.5,-19.5,,,,,,
137198,-0.32239905,8.955397,-2.9464524,0.434454,-0.083841994,-0.259148,98.700005,-165.3,-14.700001,,,,,,
137221,-0.26916432,9.009828,-2.96978,0.144818,0.358234,-0.144818,93.9,-155.70001,-15.900001,,,,,,
137242,-0.16209674,9.317273,-2.9099655,-0.07622,0.289636,-0.251526,93.9,-162.90001,-11.700001,,,,,,
137262,-0.35469878,8.606679,-2.7065969,-1.059458,0.480186,-0.891774,98.700005,-167.70001,-12.3,,,,,,
137322,-0.6005356,8.044425,-2.682073,-1.33385,0.655492,-0.449698,96.3,-170.1,-18.900002,,,,,,
137342,0.08134744,8.775953,-2.6431937,-0.92226195,0.67073596,0.068598,113.100006,-165.3,-17.1,,,,,,
137362,0.25241634,8.984706,-2.3686461,-1.3719599,0.95274997,-0.26677,103.50001,-160.5,-14.700001,,,,,,
137382,0.3283805,9.046314,-2.8657029,-1.516778,1.8673899,-0.663114,98.700005,-170.1,-14.1,,,,,,
137402,0.51141226,9.043921,-3.2323647,-1.013726,1.8902559,-1.227142,96.3,-162.90001,-16.5,,,,,,
137422,0.75605273,9.256263,-3.145634,-0.64787,1.554888,-0.93750596,98.700005,-160.5,-20.7,,,,,,
137442,1.0581149,9.823302,-3.1695597,-1.074702,1.775926,-0.60976,91.5,-165.3,-20.1,,,,,,
137462,1.363766,10.157065,-3.3753207,-1.6311079,2.09605,-0.739334,93.9,-160.5,-9.3,,,,,,
137505,1.7543533,9.777843,-3.4746125,-1.3490939,1.051836,-1.044214,101.100006,-158.1,-12.900001,,,,,,
137527,1.8452711,9.295142,-3.4500887,-0.708846,0.769822,-0.30488,110.700005,-165.3,-18.300001,,,,,,
137547,1.9553294,9.496716,-3.3920689,-0.23628199,0.297258,0.274392,93.9,-167.70001,-21.900002,,,,,,
137567,1.7549515,9.104334,-3.438724,-0.41158798,-0.022866,0.20579399,103.50001,-158.1,-23.1,,,,,,
137587,1.3278774,8.259158,-3.3017492,-0.28201398,-0.541162,-0.015244,93.9,-162.90001,-15.3,,,,,,
137607,0.9857396,7.669987,-3.0463421,-0.434454,-1.18141,-0.015244,91.5,-165.3,-16.5,,,,,,
137627,0.6920514,6.9258976,-2.7771778,-0.617382,-1.089946,-0.137196,98.700005,-160.5,-20.1,,,,,,
137647,1.7507645,8.941041,-3.2562904,0.3811,-0.82317597,2.050318,113.100006,-155.70001,-21.300001,,,,,,
137667,2.0881171,10.344285,-3.03737,0.060976,-1.501534,1.196654,91.5,-160.5,-7.5000005,,,,,,
137727,1.3835047,8.88661,-2.246625,-0.708846,-0.137196,0.503052,84.3,-162.90001,-13.500001,x,,,,,
137770,1.083835,8.953004,-2.9984908,-0.259148,0.28201398,-0.015244,101.100006,-160.5,-20.1,x,,,,,
137875,2.506817,9.169532,-5.7457614,-0.106708,2.2332458,-0.907018,93.9,-148.5,-25.500002,x,,,,,
137895,3.008061,9.439294,-5.857614,-0.541162,3.071666,-3.2317278,110.700005,-160.5,-19.5,x,,,,,
137936,2.5092099,8.533108,-5.9431486,0.182928,5.236314,-6.4482117,110.700005,-150.90001,-11.1,x,,,,,
137979,2.1246037,7.6963058,-4.396949,-1.585376,4.03966,-9.580853,110.700005,-153.3,-9.900001,x,,,,,
138073,-0.87747574,7.154388,-1.1974822,-3.422278,15.85376,-5.625036,149.1,-134.1,-17.1,x,,,,,
138113,-2.878264,10.005137,-0.4384388,-3.597584,14.855278,-6.4329677,151.5,-136.5,-6.3,x,,,,,
138133,-3.2168128,9.429126,0.17585403,-3.993928,16.455898,-8.7653,168.3,-141.3,-11.1,x,,,,,
138173,-5.9036713,12.035234,-2.0193307,-0.373478,13.254658,-3.7347798,177.90001,-143.70001,-5.7000003,x,,,,,
138193,-4.694824,15.142588,-1.8536451,-1.463424,6.5854077,-1.265252,173.1,-136.5,-14.700001,x,,,,,
138213,-5.392259,14.516332,0.3618765,-2.012208,2.637212,-3.2088618,161.1,-129.3,-9.900001,x,,,,,
138233,-6.4659257,13.8482065,-1.6454914,-0.95274997,1.48629,-0.92988396,177.90001,-129.3,-8.700001,x,,,,,
138257,-5.1117296,13.948096,-0.9366919,-1.8902559,-4.771372,1.051836,165.90001,-134.1,-8.1,x,,,,,
138277,-4.7666016,13.343971,-1.1867156,-0.47256398,-8.163162,2.157026,163.5,-122.100006,-7.5000005,x,,,,,
138297,-5.1398425,12.879214,-1.4403282,-0.16768399,-9.207376,2.080806,163.5,-129.3,-9.900001,x,,,,,
138360,-2.5379207,10.223459,-1.2064544,0.259148,-14.474177,6.349126,163.5,-141.3,-11.700001,x,,,,,
138384,-2.5325372,8.621633,-1.5641439,0.754578,-12.72874,6.654006,153.90001,-143.70001,-14.1,x,,,,,
138404,-1.7878493,8.228653,-1.8470654,1.204276,-13.048863,8.056454,149.1,-146.1,-16.5,x,,,,,
138424,-0.8206521,8.576174,-0.9564306,0.792688,-13.742466,8.483286,144.3,-143.70001,-21.900002,x,,,,,
138444,-0.39836323,8.753822,-0.82902616,0.060976,-11.288181,7.157058,144.3,-148.5,-20.1,x,,,,,
138510,-0.72136045,8.162259,-2.3040466,1.996964,-9.253108,5.18296,137.1,-158.1,-20.1,x,,,,,
138550,0.055627298,8.822609,-2.0923042,0.655492,-8.208894,4.336918,127.50001,-155.70001,-14.1,x,,,,,
138614,0.13398403,7.146612,-2.6366143,0.632626,-5.4725957,3.033556,105.9,-167.70001,-27.900002,,,,,,
138672,1.2064544,7.6424727,-3.5128937,1.989342,-3.056422,1.989342,113.100006,-162.90001,-25.500002,,,,,,
138716,1.8524488,8.894984,-3.9297993,1.806414,-0.99086,2.530504,103.50001,-167.70001,-27.300001,,,,,,
138736,1.8195509,9.019996,-4.0225115,1.684462,-0.46494198,1.455802,96.3,-172.5,-22.5,,,,,,
138756,2.0899115,9.30232,-3.9764545,1.493912,0.23628199,0.846042,93.9,-158.1,-23.7,,,,,,
138776,2.0510323,9.700683,-4.117018,1.06708,0.632626,0.213416,101.100006,-165.3,-18.900002,,,,,,
138796,1.8069899,8.955397,-3.9256122,0.746956,0.594516,-0.716468,98.700005,-174.90001,-17.1,,,,,,
138839,1.31412,8.68384,-3.7623193,0.503052,1.211898,-0.022866,108.3,-167.70001,-23.7,,,,,,
138861,1.1496308,8.649147,-3.6247463,1.432936,0.899396,-0.480186,98.700005,-162.90001,-23.1,,,,,,
138881,1.2967739,9.30232,-3.3490026,1.250008,0.739334,-0.259148,105.9,-160.5,-13.500001,,,,,,
138902,1.0581149,9.494922,-3.1366618,0.365856,1.532022,-0.785066,103.50001,-146.1,-21.300001,,,,,,
138922,0.4163075,9.415368,-3.14683,-0.26677,2.13416,-1.432936,103.50001,-162.90001,-20.7,,,,,,
138942,0.07177716,8.958387,-3.145634,-0.72409,2.05794,-1.6006199,110.700005,-172.5,-17.1,,,,,,
139024,0.9648046,8.841151,-2.041462,-0.442076,0.884152,0.518296,108.3,-155.70001,-18.300001,,,,,,
139074,0.8726906,8.945229,-2.4942563,0.442076,1.6387299,0.03811,93.9,-158.1,-15.3,,,,,,
139094,0.98514146,9.091773,-2.5445,0.53354,1.303362,0.19055,103.50001,-165.3,-14.700001,,,,,,
139137,0.71597713,8.929078,-3.083427,-0.121952,1.318606,-0.868908,105.9,-165.3,-14.700001,,,,,,
139177,0.7010236,9.315478,-2.895012,0.099086,0.548784,0.083841994,103.50001,-162.90001,-14.1,,,,,,
139254,0.6430037,9.166541,-2.8722825,-0.060976,0.70122397,-0.396344,98.700005,-158.1,-16.5,,,,,,
139274,0.5030382,8.9356575,-2.8896286,-0.007622,0.640248,-0.46494198,89.100006,-155.70001,-15.900001,,,,,,
139317,0.6962384,9.017005,-2.8304126,-0.259148,0.57164997,0.320124,93.9,-158.1,-22.5,,,,,,
139357,0.72734183,9.211402,-2.9554243,-0.213416,0.388722,0.213416,96.3,-153.3,-21.300001,,,,,,
139492,0.92233646,9.174317,-2.5947442,-0.49543,-0.007622,-0.137196,91.5,-148.5,-14.1,,,,,,
139512,0.88884044,9.081007,-2.5762017,-0.60976,0.17530599,-0.320124,96.3,-162.90001,-15.3,,,,,,
139555,0.7596416,9.017604,-2.6144829,-0.312502,0.259148,-0.068598,101.100006,-155.70001,-21.300001,,,,,,
139577,0.72315484,9.135438,-2.6079032,0.015244,0.045732,-0.053354,91.5,-167.70001,-19.5,,,,,,
139597,0.773997,9.012818,-2.5618463,-0.11432999,0.045732,-0.106708,91.5,-155.70001,-18.300001,,,,,,
139620,0.82842803,9.19286,-2.5887628,-0.007622,0.03811,-0.030488,98.700005,-158.1,-20.1,,,,,,
139660,0.7829692,9.005641,-2.8124683,-0.19055,0.17530599,-0.297258,93.9,-160.5,-18.900002,,,,,,
139680,0.7548564,8.7735615,-2.8417773,-0.03811,-0.060976,-0.19055,91.5,-167.70001,-15.900001,,,,,,
139720,1.3236904,9.362134,-2.8812547,-0.23628199,-0.144818,-0.23628199,93.9,-150.90001,-24.900002,x,,,,,
139740,1.3326626,8.682643,-2.9177413,-0.731712,0.106708,-0.87653,79.5,-167.70001,-14.700001,x,,,,,
139760,1.4247766,8.445779,-2.9386764,-0.792688,0.221038,-0.91463995,98.700005,-155.70001,-22.5,x,,,,,
139820,2.3782165,8.44219,-3.5673246,-0.716468,1.18141,-1.06708,108.3,-174.90001,-23.1,x,,,,,
139848,2.8142626,8.579762,-4.261769,-0.792688,2.43904,-1.8902559,101.100006,-150.90001,-21.900002,x,,,,,
139868,2.8441699,8.240018,-4.74447,-0.327746,3.041178,-2.7744079,103.50001,-158.1,-15.3,x,,,,,
139908,2.392572,7.274017,-5.1236925,-0.251526,3.58234,-3.407034,105.9,-170.1,-20.7,x,,,,,
139970,0.53115094,6.977936,-5.169152,1.67684,3.84911,-7.195168,117.9,-155.70001,-14.700001,x,,,,,
139992,0.65317214,7.748344,-4.1355605,0.57164997,2.881116,-7.0046177,120.3,-160.5,-19.5,x,,,,,
140012,0.73272514,7.1998467,-2.003779,-0.83842,3.8109999,-7.6067557,127.50001,-146.1,-13.500001,x,,,,,
140032,0.7249493,7.592229,-1.9260204,-2.103672,10.6936655,-8.277492,144.3,-148.5,-16.5,x,,,,,
140052,0.37922263,7.982218,-2.8471606,-2.7439198,15.221133,-9.45128,146.70001,-138.90001,-15.3,x,,,,,
140096,-1.62336,6.017916,-2.4799008,-3.7805119,17.888834,-13.247036,139.5,-138.90001,-12.900001,x,,,,,
140136,-0.45757937,9.640868,-0.03409415,-7.896392,17.240963,-8.658592,173.1,-129.3,-4.5,x,,,,,
140156,-4.2181044,8.19755,-1.0617038,-5.86894,22.18002,-12.324774,173.1,-129.3,-12.900001,x,,,,,
140176,-5.890512,9.326843,-3.3484044,-1.9131219,19.24555,-8.971094,168.3,-131.70001,-9.3,x,,,,,
140218,-5.229564,13.62151,-1.1944915,-1.6006199,8.80341,-5.67839,175.5,-124.50001,-8.1,x,,,,,
140240,-6.011337,13.215371,-1.2925869,-0.602138,3.902464,-3.986306,192.3,-124.50001,-0.90000004,x,,,,,
140260,-6.986908,13.028152,-1.6048176,-0.007622,1.6006199,-3.170752,187.5,-112.50001,-8.700001,x,,,,,
140282,-8.454751,13.29612,-3.0008833,1.242386,-2.370442,-1.692084,189.90001,-114.9,-3.9,x,,,,,
140303,-7.9684606,13.722596,-2.6055107,0.7622,-8.445176,0.40396598,199.50002,-105.3,-9.3,x,,,,,
140323,-6.4928417,12.730875,-1.405636,0.320124,-12.362884,2.55337,187.5,-112.50001,-9.3,x,,,,,
140406,-3.747964,8.941639,-1.786653,1.242386,-12.888802,9.733294,180.3,-122.100006,-16.5,x,,,,,
140452,-1.5904622,7.9935827,-2.0785468,0.884152,-16.112907,10.243968,175.5,-141.3,-14.1,x,,,,,
140472,-1.3870935,7.458245,-1.9385813,0.617382,-14.984852,9.1159115,153.90001,-143.70001,-20.7,x,,,,,
140514,-0.8756813,7.5629196,-2.5391169,0.80793196,-14.489422,7.835416,141.90001,-146.1,-18.900002,x,,,,,
140573,-0.5963485,6.0992637,-3.5164826,2.347576,-11.303426,4.26832,137.1,-165.3,-19.5,x,,,,,
140594,0.23447205,6.4503736,-3.4746125,3.16313,-11.989406,6.394858,129.90001,-146.1,-22.5,x,,,,,
140634,0.820054,7.65623,-3.2066445,2.111294,-6.737848,5.358266,125.100006,-172.5,-27.300001,x,,,,,
140654,1.1729584,8.079117,-3.5069122,2.339954,-5.343022,5.129606,105.9,-158.1,-21.300001,x,,,,,
140678,1.4134119,8.879433,-3.3723302,1.692084,-3.437522,3.6585598,110.700005,-172.5,-22.5,x,,,,,
140701,1.0539279,8.2454,-3.685757,1.303362,-1.059458,1.6006199,108.3,-155.70001,-21.900002,x,,,,,
140722,1.0383762,8.314785,-4.4023323,2.51526,-0.022866,1.501534,105.9,-158.1,-17.1,x,,,,,
140743,1.4845909,9.731786,-4.376612,2.560992,-0.663114,2.431418,105.9,-165.3,-22.5,x,,,,,
140763,1.53962,10.106224,-4.0314837,1.158544,-0.213416,1.044214,101.100006,-162.90001,-23.1,x,,,,,
140783,1.2555021,8.871058,-3.80718,0.541162,0.655492,-0.716468,91.5,-158.1,-18.900002,x,,,,,
140805,1.0455539,8.222074,-3.7922266,0.594516,1.33385,-0.769822,110.700005,-155.70001,-16.5,x,,,,,
140825,1.0569186,7.906852,-3.6797755,0.518296,1.821658,-0.144818,101.100006,-165.3,-21.300001,,,,,,
140847,1.4702355,9.19286,-3.509903,0.503052,2.423796,0.907018,113.100006,-162.90001,-11.700001,,,,,,
140867,1.2889981,9.112708,-3.4453034,0.19055,2.8048959,-0.045732,105.9,-162.90001,-27.300001,,,,,,
140947,1.150827,9.470996,-3.2162147,0.007622,3.071666,-0.289636,101.100006,-160.5,-17.7,,,,,,
141074,0.9115699,9.243702,-3.0361738,-0.19055,1.272874,0.053354,101.100006,-162.90001,-18.900002,,,,,,
141114,0.7919413,9.017604,-3.0762494,-0.655492,1.234764,-0.983238,110.700005,-162.90001,-24.300001,,,,,,
141134,0.68846256,8.8602915,-3.0098555,-0.198172,1.02897,-0.769822,105.9,-148.5,-13.500001,,,,,,
141174,0.66752756,8.743654,-3.099577,-0.23628199,0.67073596,-0.297258,98.700005,-150.90001,-16.5,,,,,,
141197,0.5849838,8.510977,-3.0224164,0.22865999,0.45731997,0.053354,105.9,-155.70001,-19.5,,,,,,
141257,0.6585554,9.006239,-3.1821206,0.068598,0.28201398,0.091464,101.100006,-165.3,-14.700001,,,,,,
141294,0.7034161,9.017005,-3.1151285,-0.16768399,0.099086,-0.060976,101.100006,-155.70001,-14.700001,,,,,,
141315,0.50423455,8.874049,-3.1522136,-0.56402797,0.106708,0.03811,89.100006,-160.5,-20.7,,,,,,
141355,0.6447981,9.292749,-3.0086591,-0.442076,-0.19055,-0.099086,98.700005,-158.1,-16.5,,,,,,
141395,0.47253296,9.066053,-2.883049,-0.45731997,0.083841994,-0.449698,108.3,-158.1,-16.5,,,,,,
141415,0.3714468,8.990088,-2.9374802,-0.503052,0.213416,-0.388722,91.5,-167.70001,-17.7,,,,,,
141435,0.3702505,9.078614,-3.008061,-0.34298998,0.15244,-0.19055,101.100006,-162.90001,-13.500001,,,,,,
141475,0.42946666,9.115101,-2.9608078,0.053354,0.0,-0.007622,115.50001,-162.90001,-21.300001,,,,,,
141515,0.44083136,9.091773,-3.109147,-0.365856,0.297258,-0.129574,105.9,-162.90001,-11.700001,,,,,,
141535,0.43365365,9.034351,-3.241935,-0.434454,0.320124,-0.121952,101.100006,-158.1,-11.700001,,,,,,
141555,0.4665515,9.02837,-3.1581948,-0.289636,0.030488,0.03811,105.9,-174.90001,-14.1,,,,,,
141595,0.7602397,9.054688,-2.9548264,-0.56402797,0.015244,-0.007622,101.100006,-155.70001,-9.900001,,,,,,
141615,0.8433816,9.082801,-2.9231248,-0.60976,0.16768399,0.07622,105.9,-153.3,-14.700001,,,,,,
141635,0.72734183,8.969752,-2.9955,-0.55640596,0.274392,-0.068598,96.3,-165.3,-15.900001,,,,,,
141655,0.7895487,9.005042,-2.8986008,-0.274392,0.15244,-0.007622,96.3,-153.3,-14.700001,,,,,,
141677,0.89661634,9.004444,-2.8058887,-0.33536798,0.22865999,-0.030488,101.100006,-162.90001,-23.1,,,,,,
141697,0.8768776,8.842347,-2.81187,-0.45731997,0.45731997,0.022866,103.50001,-155.70001,-17.1,,,,,,
141740,0.86371845,9.004444,-2.9464524,-0.259148,0.49543,0.0,101.100006,-158.1,-15.900001,,,,,,
141770,1.0646945,8.868666,-2.8914232,-0.19055,0.26677,-0.030488,96.3,-165.3,-15.900001,,,,,,
141791,1.2393522,9.139027,-3.0882123,-0.388722,0.426832,-0.243904,93.9,-153.3,-21.900002,,,,,,
141833,1.7711014,8.849525,-3.322086,-0.716468,0.617382,-0.442076,110.700005,-160.5,-16.5,,,,,,
141873,1.719661,8.216092,-4.0763445,-1.417692,2.545748,-2.17227,98.700005,-153.3,-8.1,x,,,,,
142011,2.7478688,7.104144,-4.685852,-2.111294,7.3780956,-3.7195358,108.3,-155.70001,-12.900001,x,,,,,
142031,2.2789247,7.480376,-4.6284304,-1.707328,8.673836,-4.108258,115.50001,-162.90001,-18.900002,x,,,,,
142073,1.3661586,7.7004924,-3.7072902,-0.983238,10.381164,-5.29729,129.90001,-150.90001,-14.700001,x,,,,,
142093,1.1227144,8.048612,-2.677886,-1.4024479,11.036655,-6.699738,132.3,-153.3,-14.700001,x,,,,,
142115,1.0611056,7.007245,-2.372235,-1.3567159,13.87204,-9.138778,129.90001,-146.1,-15.3,x,,,,,
142136,0.22071476,5.492747,-2.1431463,-1.234764,15.404061,-10.823239,139.5,-138.90001,-10.5,x,,,,,
142157,-1.2243986,5.515476,-2.2149234,0.47256398,17.583954,-10.6708,132.3,-150.90001,-12.900001,x,,,,,
142177,-1.7998122,7.4660206,-3.061894,1.48629,17.820236,-9.405548,153.90001,-141.3,-8.1,x,,,,,
142197,-2.707195,8.111417,-2.1281927,-0.03811,15.716563,-10.564092,158.70001,-141.3,-6.3,x,,,,,
142220,-5.656638,9.774254,-2.6509697,0.34298998,16.829376,-9.6418295,161.1,-141.3,-8.1,x,,,,,
142240,-3.915444,10.751021,-2.911162,0.487808,10.701288,-8.010722,165.90001,-126.9,-9.900001,x,,,,,
142263,-4.5913453,11.887493,-0.9522436,-0.60976,8.1250515,-6.4482117,168.3,-124.50001,-5.1000004,x,,,,,
142283,-5.654844,11.850409,-2.552874,-0.830798,8.963471,-5.266802,165.90001,-131.70001,-5.1000004,x,,,,,
142303,-4.514185,12.356438,-2.008564,-1.318606,3.3003259,-2.157026,173.1,-126.9,-2.1000001,x,,,,,
142325,-4.5094,14.225036,-1.522872,-2.2942219,2.01983,-0.289636,168.3,-119.700005,-0.3,x,,,,,
142345,-4.8676877,14.893162,-2.6043146,-2.7820299,-0.41921,-0.289636,161.1,-114.9,-4.5,x,,,,,
142365,-4.978344,13.509657,-1.183725,-2.8048959,-6.692116,-0.053354,168.3,-117.3,-7.5000005,x,,,,,
142386,-5.5657206,13.117275,-1.1466401,-2.560992,-7.5305357,0.480186,182.70001,-124.50001,-8.700001,x,,,,,
142406,-6.4707108,12.581938,-1.6544634,-1.737816,-9.961954,2.576236,168.3,-126.9,-2.7,x,,,,,
142426,-5.2247787,12.656107,-1.4313561,-1.21952,-13.605269,5.358266,177.90001,-119.700005,-6.9,x,,,,,
142446,-4.609888,11.357539,-1.0132542,-1.1432999,-15.404061,6.737848,177.90001,-129.3,-9.900001,x,,,,,
142468,-3.3657506,10.0260725,-1.8853467,0.602138,-16.410166,9.840002,161.1,-138.90001,-11.1,x,,,,,
142488,-1.9989938,10.286264,-1.5156943,0.830798,-17.705906,10.907082,161.1,-131.70001,-18.300001,x,,,,,
142550,-0.62565756,7.912833,-2.1437445,0.091464,-14.573264,8.048832,137.1,-158.1,-12.3,x,,,,,
142570,-0.5215807,6.9881043,-1.8105788,-0.099086,-13.750088,7.92688,129.90001,-150.90001,-14.700001,x,,,,,
142590,0.002392572,7.329644,-2.1323798,-0.579272,-12.614409,8.68908,125.100006,-158.1,-22.5,x,,,,,
142610,0.90379405,7.9385533,-1.8057936,-0.975616,-12.545812,7.461938,134.70001,-158.1,-24.900002,x,,,,,
142630,1.146042,7.1101255,-1.2644743,-0.70122397,-11.440621,5.0838737,125.100006,-155.70001,-24.300001,x,,,,,
142650,1.1304902,6.823615,-1.719661,-0.243904,-8.849142,4.4207597,110.700005,-167.70001,-29.7,x,,,,,
142670,0.870298,6.7638006,-1.912263,0.754578,-7.553402,3.399412,113.100006,-165.3,-22.5,x,,,,,
142690,0.8487649,6.9103456,-2.196979,1.928366,-5.6097918,2.812518,105.9,-167.70001,-21.900002,x,,,,,
142714,0.3618765,6.970758,-2.7975147,2.2408679,-3.16313,1.760682,110.700005,-167.70001,-19.5,x,,,,,
142734,-0.016748004,6.7590156,-3.430948,3.2622159,-1.44818,0.92988396,93.9,-148.5,-20.1,x,,,,,
142796,0.6011337,8.875844,-4.5315313,2.484772,-1.303362,-0.434454,117.9,-162.90001,-17.7,x,,,,,
142816,1.0090672,8.67068,-4.4160895,1.9131219,-1.211898,-0.07622,105.9,-158.1,-10.5,x,,,,,
142836,1.1992767,9.389648,-4.1355605,1.6539739,-0.99086,0.60976,110.700005,-172.5,-16.5,x,,,,,
142856,1.4379357,9.737767,-4.078737,1.150922,-0.320124,0.060976,105.9,-165.3,-15.3,x,,,,,
142921,0.5700303,8.365029,-3.9920063,0.769822,0.34298998,0.11432999,103.50001,-155.70001,-23.7,x,,,,,
142941,0.7315289,8.827992,-4.0488296,0.81555396,0.251526,0.198172,93.9,-153.3,-17.7,x,,,,,
142961,0.974973,9.057081,-3.785647,0.731712,0.198172,0.060976,101.100006,-155.70001,-16.5,x,,,,,
142985,1.1239107,9.171925,-3.6385038,0.144818,1.18141,-0.41921,110.700005,-162.90001,-13.500001,x,,,,,
143046,1.0569186,9.103736,-3.3125157,-0.15244,2.179892,0.426832,101.100006,-165.3,-15.900001,,,,,,
143211,1.2507169,8.833375,-2.836992,-0.091464,1.1432999,-0.708846,89.100006,-162.90001,-16.5,,,,,,
143231,1.1825286,8.758608,-2.8106737,-0.23628199,1.044214,-0.55640596,93.9,-155.70001,-17.1,,,,,,
143274,0.8296243,8.923695,-3.1241007,-0.121952,0.602138,-0.35061198,96.3,-153.3,-14.700001,,,,,,
143414,0.7297344,9.17013,-2.8800583,-0.327746,-0.548784,-0.20579399,105.9,-158.1,-15.900001,,,,,,
143454,0.5694321,9.007435,-2.9231248,-0.91463995,-0.045732,-0.121952,98.700005,-158.1,-16.5,,,,,,
143474,0.5664414,9.040931,-2.89561,-0.640248,-0.091464,-0.144818,103.50001,-158.1,-16.5,,,,,,
143514,0.6878644,8.821412,-2.7388966,-0.41158798,-0.274392,0.26677,98.700005,-158.1,-17.1,,,,,,
143574,0.6794904,9.222168,-3.1229045,-0.16768399,-0.053354,0.15244,96.3,-162.90001,-20.1,,,,,,
143594,0.76323044,9.061866,-2.9045823,0.07622,-0.510674,-0.16768399,96.3,-155.70001,-12.900001,,,,,,
143637,0.7733989,9.142017,-3.0433514,-0.160062,-0.243904,-0.106708,103.50001,-172.5,-12.900001,,,,,,
143677,0.69504213,8.990088,-3.0529218,-0.35061198,0.19055,-0.373478,103.50001,-158.1,-19.5,,,,,,
143755,0.6639387,8.868666,-2.9309006,-0.320124,0.144818,0.083841994,98.700005,-165.3,-15.900001,,,,,,
143775,0.77040815,9.025379,-3.0361738,-0.35061198,0.11432999,0.182928,93.9,-162.90001,-19.5,,,,,,
143815,0.88943857,9.037342,-3.0852215,0.0,-0.297258,0.327746,108.3,-155.70001,-18.300001,,,,,,
143952,1.4427209,8.045023,-3.756338,-1.6387299,2.309466,-2.012208,103.50001,-158.1,-15.900001,,,,,,
144172,2.2890933,6.46114,-2.8806565,-4.03966,15.861382,-9.87049,122.700005,-148.5,-13.500001,x,,,,,
144192,1.3314662,5.5579443,-2.4081235,-2.317088,17.80499,-10.205858,137.1,-150.90001,-18.900002,x,,,,,
144232,-0.21533147,6.2619586,-2.1006782,-1.951232,19.85531,-11.471109,141.90001,-141.3,-20.1,x,,,,,
144272,-3.028996,9.533801,-1.4457116,-1.150922,18.628168,-11.364402,156.3,-146.1,-6.9,x,,,,,
144292,-5.9431486,7.1759214,-1.0078709,-1.737816,21.173916,-16.27297,151.5,-126.9,-12.3,x,,,,,
144312,-5.170946,8.320766,-2.7604299,1.8673899,18.285177,-10.02293,158.70001,-122.100006,-5.1000004,x,,,,,
144353,-4.7917233,10.695992,-1.6090046,0.99086,14.641862,-7.0198617,168.3,-117.3,0.3,x,,,,,
144373,-4.9938955,11.181087,-2.710784,2.431418,11.66166,-4.34454,168.3,-129.3,-4.5,x,,,,,
144393,-4.5369143,12.511356,-2.18382,0.907018,7.35523,-2.446662,168.3,-119.700005,1.5,x,,,,,
144415,-5.379698,12.5095625,-2.8800583,0.861286,5.061008,-2.2637339,156.3,-119.700005,-2.7,x,,,,,
144435,-4.932885,14.270495,-3.3184972,0.091464,0.518296,-0.17530599,161.1,-117.3,2.1000001,x,,,,,
144455,-4.8294063,14.159241,-2.6617362,-1.1280559,-4.0320377,-0.792688,170.70001,-110.100006,-1.5,x,,,,,
144475,-6.773969,12.070525,-3.0026777,-0.525918,-6.272906,-0.015244,163.5,-100.50001,2.1000001,x,,,,,
144495,-6.4294386,13.169313,-3.1779337,-0.518296,-10.7241535,3.879598,170.70001,-105.3,1.5,x,,,,,
144515,-5.1817126,12.205706,-2.3213928,-1.966476,-15.426928,7.103704,170.70001,-124.50001,-0.3,x,,,,,
144535,-4.785144,11.973028,-2.238251,-2.149404,-16.372055,8.048832,168.3,-131.70001,-3.3000002,x,,,,,
144555,-3.9309957,10.11699,-2.112043,-2.2865999,-18.292799,9.26073,180.3,-134.1,-7.5000005,x,,,,,
144577,-3.3442173,8.974537,-2.1018744,-1.440558,-19.260794,10.053418,163.5,-141.3,-11.1,x,,,,,
144597,-2.2484195,8.648549,-2.5163875,-0.746956,-19.329391,11.1890955,158.70001,-136.5,-11.1,x,,,,,
144617,-1.6532671,8.030667,-2.6413994,-0.510674,-19.314148,11.20434,163.5,-148.5,-12.900001,x,,,,,
144637,-0.7482768,7.46303,-2.5630426,0.137196,-19.809578,11.783611,144.3,-153.3,-15.900001,x,,,,,
144657,0.46116823,8.233438,-1.7938308,-0.3811,-19.664759,12.408616,134.70001,-138.90001,-15.3,x,,,,,
144717,0.28172535,7.0897884,-2.996098,1.3490939,-13.544293,5.4268637,129.90001,-158.1,-20.7,x,,,,,
144789,0.45877567,7.451067,-3.0684733,0.82317597,-8.361334,2.431418,115.50001,-150.90001,-22.5,x,,,,,
144835,0.9366919,7.4080005,-2.6330254,1.432936,-6.532054,2.660078,89.100006,-153.3,-20.7,x,,,,,
144875,0.6059188,7.363738,-3.3029454,1.3414719,-2.408552,0.586894,96.3,-165.3,-21.300001,,,,,,
145394,1.1245087,9.042128,-2.994902,-0.182928,1.463424,-0.53354,113.100006,-158.1,-22.5,,,,,,
145429,1.0969942,9.373499,-2.8639085,-0.617382,1.272874,-0.548784,89.100006,-158.1,-15.900001,,,,,,
145489,0.62326497,9.214991,-3.2239907,0.144818,1.1280559,0.396344,101.100006,-160.5,-17.7,,,,,,
145512,0.6794904,9.255066,-3.145634,-0.11432999,0.861286,0.15244,110.700005,-172.5,-14.1,,,,,,
145532,0.67709786,9.073231,-3.071464,-0.19055,0.754578,-0.106708,105.9,-170.1,-13.500001,,,,,,
145552,0.62266684,8.77715,-3.0732586,-0.388722,0.716468,-0.22865999,103.50001,-158.1,-11.700001,,,,,,
145574,0.6615461,8.640774,-3.117521,-0.327746,0.55640596,-0.160062,96.3,-167.70001,-14.1,,,,,,
145594,0.9145606,8.682045,-3.104362,-0.17530599,0.487808,0.213416,101.100006,-155.70001,-17.1,,,,,,
145654,1.1221162,9.285571,-3.3585727,0.121952,0.731712,0.853664,105.9,-160.5,-15.900001,,,,,,
145674,0.9008033,9.056482,-3.3777134,-0.03811,0.663114,0.64787,96.3,-162.90001,-9.900001,,,,,,
145698,1.0060765,9.613354,-3.451883,0.388722,0.243904,1.1128119,103.50001,-165.3,-18.900002,,,,,,
145739,1.12092,9.9937725,-3.455472,0.358234,-0.274392,1.326228,91.5,-155.70001,-16.5,,,,,,
145781,0.98992664,10.20073,-3.1851113,0.388722,-0.426832,1.1204339,81.9,-162.90001,-11.700001,,,,,,
145821,0.26796806,8.837563,-2.96978,-0.312502,-0.129574,0.198172,81.9,-158.1,-12.3,,,,,,
145911,-0.38161522,8.945827,-2.9715743,-0.792688,-0.015244,-0.72409,86.700005,-162.90001,-12.900001,,,,,,
145971,-0.3911855,8.624025,-2.8226366,0.182928,-0.449698,0.22865999,91.5,-174.90001,-14.700001,,,,,,
146168,1.7184647,10.381968,-3.1342692,-0.49543,1.036592,-1.013726,96.3,-162.90001,-11.1,,,,,,
146269,0.59036714,9.109717,-3.1223063,-0.541162,0.640248,-1.585376,98.700005,-155.70001,-14.1,,,,,,
146289,0.36307278,8.512771,-3.192887,-0.640248,0.46494198,-1.3948259,79.5,-150.90001,-12.3,,,,,,
146329,0.8667092,8.711952,-2.8704882,-0.602138,-0.213416,0.251526,93.9,-160.5,-9.3,,,,,,
146391,1.2848111,8.743654,-2.7185597,-0.769822,0.022866,0.22865999,105.9,-172.5,-11.700001,,,,,,
146411,1.2285857,8.57438,-2.7137747,-0.449698,0.0,0.243904,103.50001,-162.90001,-23.7,,,,,,
146452,1.2477262,9.00923,-3.0433514,0.068598,0.007622,0.053354,101.100006,-170.1,-15.3,,,,,,
146472,1.280026,8.937452,-3.1486247,0.106708,-0.251526,-0.23628199,98.700005,-167.70001,-10.5,,,,,,
146492,1.4397302,8.904554,-3.1689615,0.19055,-0.358234,-0.358234,98.700005,-160.5,-16.5,,,,,,
146512,1.6598468,9.031361,-3.1910927,0.083841994,-0.182928,-0.41158798,93.9,-158.1,-19.5,,,,,,
146574,2.0665839,8.868666,-3.522464,-1.1204339,1.722572,-0.861286,91.5,-162.90001,-18.900002,,,,,,
146594,2.208942,8.5468645,-4.115822,-1.425314,2.7972739,-1.455802,98.700005,-160.5,-16.5,,,,,,
146614,2.4428158,8.061771,-4.4830813,-1.265252,2.7896519,-1.577754,103.50001,-162.90001,-9.900001,,,,,,
146634,2.3201966,7.9301796,-5.1021595,-1.173788,4.428382,-1.966476,101.100006,-165.3,-18.900002,x,,,,,
146657,2.7335134,8.312991,-6.352278,-0.396344,5.129606,-2.2561119,96.3,-165.3,-16.5,x,,,,,
146677,2.853142,7.6807537,-6.399532,-0.57164997,4.0625257,-3.094532,108.3,-160.5,-15.3,x,,,,,
146697,3.4536774,8.929078,-6.392354,-0.655492,3.8186219,-2.469528,103.50001,-158.1,-12.900001,x,,,,,
146717,3.7383935,9.34718,-6.010739,-1.669218,4.169234,-4.443626,110.700005,-160.5,-10.5,x,,,,,
146737,3.518277,7.9887977,-4.6248417,-2.492394,4.603688,-6.486322,115.50001,-155.70001,-14.700001,x,,,,,
146757,3.869387,7.9923863,-3.1910927,-3.346058,6.638762,-7.233278,113.100006,-158.1,-13.500001,x,,,,,
146778,2.7490652,6.112423,-2.22569,-4.61131,11.524464,-10.091528,125.100006,-153.3,-9.900001,x,,,,,
146798,1.6472857,3.757534,-1.7758865,-2.59148,16.646448,-9.359816,137.1,-146.1,-9.900001,x,,,,,
146818,1.5378256,4.2013564,-1.6538653,-1.8673899,17.660173,-8.475664,137.1,-146.1,-15.900001,x,,,,,
146879,-1.8010085,9.09297,-1.422384,-0.716468,20.38885,-6.59303,144.3,-148.5,-12.900001,x,,,,,
146899,-3.0230145,11.414362,0.53892684,-3.1783738,17.462002,-8.208894,146.70001,-143.70001,-15.3,x,,,,,
146919,-4.623047,12.374382,-1.493563,-0.16768399,18.52146,-9.131156,139.5,-136.5,-6.3,x,,,,,
146939,-5.9293914,11.585431,-1.9971994,0.87653,14.756191,-7.9954777,156.3,-146.1,-4.5,x,,,,,
146959,-5.543589,12.519731,-2.4260678,1.9131219,12.469592,-5.663146,156.3,-129.3,-9.3,x,,,,,
146979,-5.1535997,14.015686,-1.6263508,0.846042,7.324742,-4.0015497,149.1,-126.9,-3.3000002,x,,,,,
146999,-5.067467,13.27997,-2.0013864,0.846042,4.664664,-3.574718,168.3,-141.3,-6.9,x,,,,,
147019,-5.411998,13.6005745,-2.484686,1.059458,2.080806,-2.637212,158.70001,-126.9,-7.5000005,x,,,,,
147042,-7.7746625,12.730875,-3.3830967,1.211898,-4.321674,-1.493912,163.5,-114.9,-3.3000002,x,,,,,
147102,-4.527942,11.05428,-1.5994343,-0.83842,-12.69063,6.920776,173.1,-129.3,-0.90000004,x,,,,,
147123,-3.2521033,10.347874,-1.6640338,-1.036592,-13.590026,9.009204,168.3,-122.100006,-3.3000002,x,,,,,
147144,-2.4158995,9.481164,-1.8057936,-0.632626,-14.260761,10.2897,161.1,-138.90001,-10.5,x,,,,,
147164,-1.7298294,9.174915,-2.310028,0.327746,-14.55802,10.465006,146.70001,-146.1,-5.7000003,x,,,,,
147184,-1.267465,8.675466,-2.3542907,0.510674,-15.365952,10.114394,139.5,-141.3,-6.3,x,,,,,
147204,-0.50602895,8.856703,-2.3644593,0.327746,-15.724186,9.733294,137.1,-126.9,-13.500001,x,,,,,
147224,-0.33795077,7.8715615,-2.250812,0.07622,-15.05345,7.759196,129.90001,-134.1,-17.1,x,,,,,
147284,0.32419348,7.4355154,-2.4571714,0.739334,-12.622032,7.370474,132.3,-146.1,-15.3,x,,,,,
147304,0.14774132,7.960087,-2.8710864,1.044214,-11.730258,6.4634557,117.9,-170.1,-16.5,x,,,,,
147324,0.11424531,7.6873336,-2.8046925,0.625004,-11.615928,5.198204,120.3,-160.5,-12.900001,x,,,,,
147344,0.086132586,7.474395,-2.6725028,0.68597996,-10.792751,4.504602,115.50001,-153.3,-16.5,x,,,,,
147427,0.9019996,7.693315,-3.2431312,-0.40396598,-4.222588,1.94361,103.50001,-160.5,-26.1,,,,,,
147474,1.8530469,8.895582,-3.6660182,0.975616,-3.498498,2.85825,101.100006,-167.70001,-18.900002,,,,,,
147494,2.0988836,9.884911,-4.0386615,0.777444,-1.8978779,1.577754,101.100006,-172.5,-13.500001,,,,,,
147534,2.2370548,9.618737,-3.862209,0.617382,-1.798792,-0.41921,101.100006,-160.5,-19.5,,,,,,
147554,2.2268863,9.776647,-3.6319242,0.198172,-0.868908,-0.70122397,93.9,-174.90001,-18.900002,,,,,,
147574,1.7429886,8.973939,-3.6959255,-0.34298998,0.426832,-1.6387299,96.3,-172.5,-16.5,,,,,,
147594,1.2375578,8.49064,-3.9130514,0.92226195,0.967994,-1.288118,101.100006,-165.3,-11.700001,,,,,,
147614,1.0467502,8.445181,-3.9250143,0.72409,1.021348,-1.021348,105.9,-160.5,-17.1,,,,,,
147634,0.8134744,8.097659,-4.040456,1.288118,0.960372,-0.541162,101.100006,-158.1,-19.5,,,,,,
147654,0.9025977,8.717336,-3.7922266,1.6539739,0.28201398,0.442076,91.5,-158.1,-15.3,,,,,,
147674,1.2064544,9.616344,-3.7886376,1.21952,0.81555396,0.426832,89.100006,-165.3,-18.300001,,,,,,
147694,1.2746427,9.200635,-3.5858672,0.26677,1.463424,-0.579272,96.3,-158.1,-18.300001,,,,,,
147714,1.1717621,8.871656,-3.2269814,-0.510674,2.17227,-0.297258,98.700005,-165.3,-20.7,,,,,,
147734,1.0288059,8.795692,-3.23057,-0.80030996,2.522882,-0.221038,96.3,-160.5,-15.3,,,,,,
147776,0.65317214,8.777748,-3.192289,-0.92988396,2.157026,0.060976,105.9,-150.90001,-16.5,,,,,,
147796,0.83082056,9.062464,-3.1270914,-0.83842,1.501534,-0.091464,105.9,-162.90001,-15.900001,,,,,,
147817,1.074863,8.771169,-2.661138,-0.884152,0.67835796,-0.510674,115.50001,-153.3,-18.300001,,,,,,
147837,1.1197237,8.6437645,-2.4637508,-0.67073596,0.87653,-0.3811,98.700005,-167.70001,-20.7,,,,,,
147858,1.1741546,8.842946,-2.5241632,-0.480186,1.554888,-0.274392,101.100006,-150.90001,-20.1,,,,,,
147878,1.1717621,8.911134,-2.719158,-0.19055,1.9131219,-0.49543,108.3,-172.5,-20.7,,,,,,
147900,1.0545261,8.847133,-2.941667,0.22865999,1.8978779,-0.60976,103.50001,-146.1,-14.1,,,,,,
147920,0.9091773,8.971546,-3.0391645,0.579272,1.684462,-0.365856,103.50001,-155.70001,-23.7,,,,,,
147940,0.8391946,9.082203,-3.1109416,0.442076,1.3643379,-0.28201398,89.100006,-165.3,-22.5,,,,,,
147960,0.9396826,9.19286,-3.1462321,0.320124,1.059458,-0.15244,96.3,-165.3,-18.300001,,,,,,
147980,0.8517556,9.117494,-3.1952798,0.022866,0.868908,-0.365856,98.700005,-150.90001,-9.900001,,,,,,
148020,0.8547463,9.148597,-3.2317665,-0.121952,0.396344,-0.28201398,105.9,-167.70001,-15.3,,,,,,
148042,0.7997171,8.966163,-3.142045,-0.3811,0.198172,-0.23628199,91.5,-162.90001,-12.3,,,,,,
148063,0.912168,9.11211,-2.9691818,-0.426832,-0.007622,0.0,113.100006,-160.5,-15.900001,,,,,,
148083,0.8858497,9.1731205,-2.9350874,-0.731712,0.045732,-0.35061198,115.50001,-155.70001,-18.300001,,,,,,
148103,0.7339214,8.953602,-2.8974047,-0.632626,-0.22865999,-0.41158798,105.9,-160.5,-15.900001,,,,,,
148124,0.7686137,9.095961,-2.8896286,-0.525918,-0.365856,-0.373478,108.3,-170.1,-14.700001,,,,,,
148144,0.9187476,9.239514,-2.8513474,-0.373478,-0.49543,-0.47256398,108.3,-160.5,-18.300001,,,,,,
148186,0.7668193,9.075026,-2.8148608,-0.67835796,-0.099086,-0.426832,96.3,-162.90001,-13.500001,,,,,,
148207,0.5963485,8.923695,-2.8926194,-0.792688,0.091464,-0.251526,108.3,-155.70001,-15.900001,,,,,,
148227,0.57660985,9.031361,-2.996098,-0.56402797,0.137196,0.083841994,101.100006,-162.90001,-14.1,,,,,,
148247,0.5233751,8.994276,-2.948845,-0.434454,-0.068598,0.15244,103.50001,-162.90001,-18.300001,,,,,,
148309,0.8302224,9.030165,-2.8328052,-0.251526,-0.20579399,0.327746,103.50001,-158.1,-16.5,,,,,,
148329,0.84457785,9.073829,-2.836992,-0.129574,-0.160062,0.182928,108.3,-158.1,-15.900001,,,,,,
148349,0.89422375,9.08938,-2.8005054,-0.091464,-0.045732,0.274392,103.50001,-150.90001,-20.1,,,,,,
148371,0.732127,9.113306,-2.848955,-0.221038,0.060976,0.160062,96.3,-160.5,-14.700001,,,,,,
148392,0.7602397,9.105531,-2.8800583,-0.274392,0.007622,-0.022866,105.9,-158.1,-19.5,,,,,,
148412,0.7787821,8.938648,-2.874077,-0.251526,-0.053354,-0.17530599,89.100006,-141.3,-20.7,,,,,,
148434,0.8110819,9.097157,-2.8842454,-0.091464,-0.045732,0.022866,96.3,-170.1,-18.300001,,,,,,
148454,0.70760316,9.025977,-2.7849536,-0.26677,-0.03811,0.053354,101.100006,-165.3,-17.1,,,,,,
148474,0.736314,9.164746,-2.9649947,-0.19055,-0.015244,-0.083841994,101.100006,-162.90001,-14.1,,,,,,
148494,0.7129864,9.14441,-2.8645067,-0.213416,-0.045732,-0.23628199,103.50001,-162.90001,-20.7,,,,,,
148515,0.7249493,9.185681,-3.0182295,-0.35061198,0.030488,-0.396344,105.9,-155.70001,-17.7,,,,,,
148535,0.723753,8.875245,-2.7765796,-0.22865999,-0.045732,-0.083841994,98.700005,-160.5,-9.900001,,,,,,
148555,0.7596416,9.278394,-2.8818529,-0.320124,0.053354,0.137196,98.700005,-160.5,-20.7,,,,,,
148579,0.6830793,8.878236,-2.8459642,-0.56402797,0.060976,0.068598,93.9,-160.5,-23.7,,,,,,
148619,0.81168,9.013416,-2.8722825,-0.129574,-0.182928,0.144818,89.100006,-165.3,-17.7,,,,,,
148639,0.954038,9.114503,-2.8214405,-0.083841994,-0.243904,0.144818,93.9,-167.70001,-18.300001,,,,,,
148659,0.8882423,9.017005,-2.861516,-0.213416,-0.198172,-0.015244,110.700005,-155.70001,-15.3,,,,,,
148683,0.9420752,8.981715,-2.8884325,-0.060976,-0.274392,-0.03811,98.700005,-160.5,-25.500002,,,,,,
148723,1.112546,8.9141245,-2.8262255,-0.365856,-0.121952,-0.23628199,105.9,-160.5,-17.7,,,,,,
148787,1.5743123,8.799281,-3.1229045,-0.967994,0.442076,-0.396344,96.3,-172.5,-12.900001,x,,,,,
148928,3.192887,8.393741,-5.9592986,-2.522882,3.1783738,-6.234796,108.3,-162.90001,-19.5,x,,,,,
148974,2.819646,7.408599,-3.6767848,-4.0472817,7.972612,-7.461938,120.3,-153.3,-9.900001,x,,,,,
148994,2.4990413,6.887616,-3.5673246,-3.92533,10.259212,-7.195168,132.3,-143.70001,-24.300001,x,,,,,
149039,1.2435392,5.485569,-2.569024,-3.323192,13.285146,-6.051868,125.100006,-146.1,-22.5,x,,,,,
149079,-0.50184196,4.87666,-2.7036061,-1.21952,16.242481,-7.027484,144.3,-141.3,-17.1,x,,,,,
149155,-2.748467,8.527724,-1.4756187,0.81555396,18.414751,-7.4848037,156.3,-126.9,-17.7,x,,,,,
149175,-2.08393,10.478269,-0.46296266,0.899396,15.579368,-8.635726,163.5,-129.3,-9.3,x,,,,,
149217,-5.7834444,12.899551,-2.3710387,-0.213416,19.253172,-8.986338,180.3,-136.5,-1.5,x,,,,,
149272,-6.665705,15.127634,-2.338739,-0.28201398,6.5396757,-5.480218,175.5,-119.700005,-3.3000002,x,,,,,
149292,-7.4947314,13.900245,-1.1831268,-0.03811,2.17227,-4.756128,163.5,-117.3,-3.9,x,,,,,
149333,-8.692812,12.670463,-2.8657029,0.975616,-4.603688,-0.69360197,189.90001,-117.3,-2.1000001,x,,,,,
149353,-7.9092445,12.349858,-3.2443275,1.06708,-8.597616,3.2164838,192.3,-119.700005,0.90000004,x,,,,,
149373,-6.722529,12.514945,-2.8639085,-0.327746,-12.218065,6.676872,182.70001,-122.100006,-4.5,x,,,,,
149396,-5.2654524,11.564496,-2.4733212,-1.33385,-14.657105,9.45128,170.70001,-129.3,-2.7,x,,,,,
149457,-2.802898,7.208221,-3.0248091,-0.746956,-17.37816,13.330877,153.90001,-129.3,-11.700001,x,,,,,
149516,0.67889225,7.3021293,-1.7286332,-0.754578,-18.971157,12.782094,139.5,-146.1,-12.3,x,,,,,
149536,1.481002,7.9493203,-1.5665364,-1.051836,-18.041273,11.791234,129.90001,-150.90001,-13.500001,x,,,,,
149579,1.0874239,7.204034,-1.9924142,-0.434454,-14.36747,6.623518,117.9,-158.1,-16.5,x,,,,,
149629,0.8864479,7.3703175,-1.9822458,-0.34298998,-9.75616,2.97258,105.9,-160.5,-24.300001,x,,,,,
149649,1.2584928,7.964872,-1.8949169,-0.20579399,-8.559505,3.0488,98.700005,-162.90001,-26.7,x,,,,,
149693,0.995908,7.6538377,-2.2191105,-0.28201398,-3.422278,0.259148,101.100006,-165.3,-20.7,x,,,,,
149713,1.037778,7.781242,-3.2186074,1.8978779,-1.951232,-0.23628199,103.50001,-158.1,-24.300001,x,,,,,
149733,1.4857872,9.232337,-3.5033233,2.957336,-2.347576,0.274392,105.9,-174.90001,-23.7,,,,,,
149753,1.4415245,9.779637,-3.8885274,3.490876,-1.547266,-0.884152,101.100006,-162.90001,-22.5,,,,,,
149776,1.1245087,8.027079,-4.1265883,3.2774599,-1.310984,-1.8826339,98.700005,-153.3,-18.900002,,,,,,
149796,1.1185274,7.7674847,-4.0350723,2.7896519,-1.417692,-1.051836,105.9,-158.1,-11.1,,,,,,
149816,1.1358736,8.289065,-4.1074476,1.920744,0.17530599,0.099086,117.9,-160.5,-17.7,,,,,,
149836,1.1388642,8.092277,-4.017128,1.669218,0.510674,0.11432999,96.3,-158.1,-26.7,,,,,,
149858,1.4493004,8.79629,-3.8562276,1.554888,1.006104,0.884152,96.3,-160.5,-20.7,,,,,,
149878,1.4618614,9.167737,-3.636111,0.983238,1.6006199,0.56402797,93.9,-160.5,-24.300001,,,,,,
149898,1.5551717,9.064259,-3.5445952,0.541162,2.027452,0.26677,105.9,-160.5,-21.300001,,,,,,
149918,1.4337487,8.7627945,-3.455472,0.373478,2.050318,0.297258,103.50001,-167.70001,-20.7,,,,,,
149961,1.3996545,9.2484865,-3.1910927,0.55640596,1.707328,0.442076,96.3,-172.5,-23.1,,,,,,
150194,0.7333233,9.374097,-2.7323172,-0.49543,0.16768399,-0.144818,93.9,-155.70001,-23.1,,,,,,
150249,0.75126755,9.0540905,-2.564837,-0.7622,0.30488,-0.41921,98.700005,-158.1,-21.300001,,,,,,
150315,0.8272317,9.001453,-2.5540705,-0.15244,0.213416,0.106708,98.700005,-167.70001,-12.900001,,,,,,
150412,0.81467074,9.287964,-2.9673872,0.015244,0.28201398,0.15244,96.3,-165.3,-15.900001,,,,,,
150432,0.79852086,9.183289,-3.0134442,-0.091464,0.312502,-0.022866,84.3,-165.3,-21.900002,,,,,,
150475,0.8948219,8.960181,-3.05352,0.22865999,0.060976,0.20579399,96.3,-165.3,-12.3,,,,,,
150515,0.9977025,9.281384,-3.0654826,-0.121952,0.34298998,0.17530599,103.50001,-153.3,-22.5,,,,,,
150535,0.8397927,8.951808,-3.007463,-0.23628199,0.442076,0.060976,96.3,-165.3,-16.5,,,,,,
150555,0.9085792,9.164746,-3.0894084,-0.213416,0.388722,0.03811,93.9,-170.1,-12.3,,,,,,
150595,1.1203218,9.183289,-2.873479,-0.320124,-0.022866,-0.03811,93.9,-158.1,-12.900001,,,,,,
150615,1.0407687,9.091773,-2.7556446,-0.56402797,0.129574,-0.259148,89.100006,-167.70001,-14.1,x,,,,,
150655,1.0222263,8.843544,-2.7580373,-0.586894,0.030488,-0.47256398,84.3,-155.70001,-14.700001,x,,,,,
150715,1.4672447,8.973939,-2.8878343,-0.998482,0.40396598,-0.60976,96.3,-174.90001,-14.1,x,,,,,
150975,1.527059,6.9928894,-3.6295316,-2.545748,8.95585,-6.8598,108.3,-155.70001,-21.300001,x,,,,,
151034,-0.773997,5.977243,-3.0678754,-0.92226195,13.711978,-10.586958,127.50001,-150.90001,-16.5,x,,,,,
151132,-2.4733212,11.001045,-2.221503,-1.6463519,18.041273,-6.9893737,151.5,-131.70001,-8.700001,x,,,,,
151152,-3.0427532,11.316865,1.3835047,-5.556438,15.952846,-10.846106,170.70001,-141.3,-3.9,x,,,,,
151195,-5.492149,10.152879,-1.8039992,-0.891774,18.163225,-6.547298,168.3,-138.90001,-5.1000004,x,,,,,
151215,-4.2892833,13.418141,-1.1394624,-1.089946,12.553433,-2.919226,175.5,-126.9,-7.5000005,x,,,,,
151236,-5.6183567,13.6891,-0.5239732,-0.41158798,10.449761,-4.260698,180.3,-129.3,-6.9,x,,,,,
151256,-6.069357,14.372777,-2.259186,0.259148,7.66011,-2.614346,173.1,-122.100006,-0.3,x,,,,,
151276,-5.6817603,15.06782,-1.6185749,-1.150922,2.51526,-1.1280559,153.90001,-124.50001,-5.7000003,x,,,,,
151296,-6.304427,14.709532,-1.915852,-1.06708,-0.579272,-0.30488,161.1,-126.9,-0.3,x,,,,,
151320,-5.8719697,13.566481,-1.8895336,-0.769822,-7.1265697,2.995446,163.5,-117.3,-3.3000002,x,,,,,
151360,-4.169655,11.154768,-1.3655604,-0.769822,-11.379645,7.599134,161.1,-129.3,-6.9,x,,,,,
151380,-3.2867956,10.872445,-1.7896438,0.144818,-13.612892,9.596098,153.90001,-117.3,-12.3,x,,,,,
151400,-1.9738718,10.431015,-1.5683309,-0.182928,-15.670832,10.640312,151.5,-150.90001,-9.900001,x,,,,,
151420,-1.6915483,9.293945,-1.669417,-0.11432999,-15.983334,10.091528,134.70001,-146.1,-3.3000002,x,,,,,
151441,-1.6688188,8.105435,-2.497845,0.739334,-16.219616,9.969576,156.3,-143.70001,-10.5,x,,,,,
151461,-0.9731786,8.1251745,-2.6539605,0.95274997,-18.422373,10.640312,141.90001,-155.70001,-12.900001,x,,,,,
151481,-0.40434465,8.460732,-2.158698,0.243904,-19.184574,10.327809,125.100006,-143.70001,-11.700001,x,,,,,
151501,-0.4246815,7.6358933,-2.280719,-0.57164997,-17.515356,8.048832,125.100006,-155.70001,-13.500001,x,,,,,
151562,0.30385664,7.52404,-1.878169,1.509156,-16.265348,7.157058,125.100006,-160.5,-9.900001,x,,,,,
151612,0.17047074,7.7292037,-2.6264458,0.60976,-10.236346,3.079288,110.700005,-158.1,-16.5,x,,,,,
151632,-0.32419348,6.882233,-3.241935,2.2332458,-8.468041,3.094532,105.9,-170.1,-20.7,x,,,,,
151676,0.93071043,9.168934,-2.7065969,0.160062,-6.699738,4.4512477,98.700005,-160.5,-18.300001,x,,,,,
151696,0.9019996,8.25856,-2.9763594,-0.20579399,-5.18296,2.36282,103.50001,-165.3,-21.900002,x,,,,,
151716,1.2949796,7.979227,-2.886638,0.442076,-4.626554,2.042696,98.700005,-167.70001,-21.300001,x,,,,,
151736,1.9487498,9.061268,-3.1486247,1.242386,-3.4299,2.469528,81.9,-170.1,-17.1,x,,,,,
151756,2.999687,10.871846,-3.4829865,2.126538,-2.55337,2.62959,84.3,-165.3,-18.300001,x,,,,,
151799,1.355392,7.335027,-2.8011036,0.137196,-0.95274997,-3.628072,89.100006,-150.90001,-22.5,x,,,,,
151859,1.5539755,8.427237,-3.4740143,0.7622,-0.03811,-0.617382,81.9,-162.90001,-17.7,,,,,,
151879,1.5575643,8.141922,-3.757534,0.67073596,0.442076,-0.213416,101.100006,-172.5,-9.900001,,,,,,
151901,1.4636558,8.482265,-3.664224,0.960372,0.503052,0.045732,91.5,-174.90001,-16.5,,,,,,
151921,1.4510949,8.549257,-3.5810819,1.044214,0.625004,0.099086,93.9,-160.5,-14.700001,,,,,,
151961,1.8799634,9.441089,-3.1635783,0.68597996,0.57164997,0.121952,93.9,-165.3,-19.5,,,,,,
151981,1.9427683,9.215589,-2.9727705,-0.297258,1.18141,-0.28201398,91.5,-167.70001,-19.5,,,,,,
152001,1.6395099,8.455947,-2.9637985,-0.30488,1.699706,-0.480186,84.3,-172.5,-18.900002,,,,,,
152025,1.6251545,9.007435,-3.05352,0.625004,1.8902559,-0.312502,89.100006,-172.5,-23.1,,,,,,
152087,1.4792075,8.703578,-3.0056684,0.716468,3.01069,-0.67073596,93.9,-179.70001,-15.3,,,,,,
152107,1.3183072,8.685036,-3.1558022,0.56402797,3.064044,-0.312502,93.9,-167.70001,-17.7,,,,,,
152127,1.03718,8.570192,-3.3161047,0.40396598,2.93447,-0.259148,96.3,-160.5,-16.5,,,,,,
152149,0.88943857,8.759206,-3.5087066,0.510674,2.408552,-0.022866,89.100006,-165.3,-12.900001,,,,,,
152233,1.0018895,9.130054,-3.3579745,-0.19055,0.198172,-0.891774,91.5,-153.3,-14.1,,,,,,
152393,0.60232997,8.7520275,-3.0870159,-0.586894,0.708846,-0.20579399,91.5,-165.3,-15.900001,,,,,,
152454,0.9965062,9.359143,-3.108549,-0.46494198,0.632626,0.434454,93.9,-160.5,-14.700001,,,,,,
152475,1.0186375,8.882423,-3.0989788,-0.69360197,0.655492,-0.015244,98.700005,-155.70001,-15.3,,,,,,
152535,1.4672447,8.988295,-2.982939,-0.716468,0.45731997,-0.11432999,91.5,-148.5,-13.500001,,,,,,
152572,1.7190629,8.672475,-3.0654826,-0.625004,0.221038,-0.586894,96.3,-158.1,-20.7,,,,,,
152592,1.8255323,8.515163,-3.0433514,-0.449698,0.11432999,-0.53354,81.9,-162.90001,-12.900001,,,,,,
152634,2.1383612,8.845338,-3.028996,-0.30488,0.221038,-0.259148,96.3,-165.3,-20.7,,,,,,
152676,1.8422804,8.683242,-3.1444376,-0.55640596,0.41158798,-0.26677,91.5,-160.5,-19.5,,,,,,
152751,1.5055258,9.307105,-2.9835372,-0.60976,0.160062,0.198172,89.100006,-155.70001,-10.5,,,,,,
152793,1.338644,9.704869,-2.9057786,-0.41158798,-0.03811,1.1280559,79.5,-170.1,-19.5,,,,,,
152813,1.1274995,10.310788,-2.6850638,-0.57164997,-0.053354,1.44818,89.100006,-160.5,-17.7,,,,,,
152837,0.5652451,11.042915,-2.9966962,-0.442076,0.28201398,0.861286,91.5,-155.70001,-18.300001,,,,,,
152857,-0.09510473,10.4040985,-2.9476485,-0.632626,0.17530599,-0.594516,103.50001,-165.3,-20.7,,,,,,
152877,-0.43484995,8.7843275,-2.3656554,-1.1432999,-0.358234,-1.074702,98.700005,-165.3,-21.900002,,,,,,
152897,-0.64659256,8.648549,-2.095893,-1.158544,0.67835796,0.503052,96.3,-172.5,-17.1,,,,,,
152917,-0.3858022,9.64685,-2.648577,-1.1128119,1.097568,0.967994,96.3,-167.70001,-17.1,,,,,,
152937,-0.5748154,8.7520275,-2.4296567,-1.25763,0.40396598,0.144818,93.9,-167.70001,-16.5,,,,,,
152957,-0.45698124,8.318973,-2.3800108,-1.044214,0.030488,-0.030488,86.700005,-160.5,-14.1,,,,,,
152977,-0.22430362,7.985807,-2.4834895,-0.55640596,-0.198172,-0.15244,84.3,-162.90001,-16.5,,,,,,
152997,-0.29608077,7.8416543,-2.5391169,-0.007622,-0.60976,-0.289636,77.100006,-170.1,-14.1,,,,,,
153017,-0.02213129,7.9379554,-2.6055107,0.373478,-0.94512796,-0.15244,72.3,-172.5,-17.7,,,,,,
153038,0.54610455,9.113306,-2.5289485,0.35061198,-0.975616,-0.41158798,96.3,-170.1,-17.1,,,,,,
153058,0.5514878,9.085792,-2.489471,-0.03811,-0.746956,-0.853664,93.9,-170.1,-18.900002,,,,,,
153080,0.7476787,9.524231,-2.3447204,-0.746956,-0.34298998,-1.3414719,91.5,-162.90001,-20.1,,,,,,
153101,0.6591536,9.036146,-2.4739194,-1.196654,0.23628199,-1.3490939,84.3,-165.3,-21.300001,,,,,,
153121,0.46296266,8.542678,-2.3835998,-1.097568,0.41158798,-1.318606,91.5,-162.90001,-26.7,,,,,,
153141,0.732127,9.039137,-2.4733212,-0.602138,0.53354,-0.64787,93.9,-162.90001,-12.900001,,,,,,
153161,1.0120579,9.953697,-2.5552669,-0.28201398,0.746956,-0.655492,89.100006,-165.3,-23.1,,,,,,
153201,0.9671972,9.615149,-2.6605399,-0.541162,0.95274997,-1.707328,101.100006,-162.90001,-11.1,,,,,,
153228,0.736314,9.103736,-2.6372123,-0.47256398,1.097568,-1.577754,103.50001,-174.90001,-13.500001,,,,,,
153288,0.59694666,8.573781,-3.2987585,0.487808,0.121952,-0.022866,93.9,-160.5,-17.1,,,,,,
153308,0.9091773,8.827394,-3.0571086,0.64787,-0.297258,0.525918,96.3,-170.1,-21.900002,,,,,,
153328,1.2429411,9.420154,-3.054118,0.46494198,-0.053354,0.632626,89.100006,-170.1,-17.1,,,,,,
153348,1.355392,9.139027,-2.9590132,-0.20579399,0.41921,0.11432999,101.100006,-160.5,-11.700001,,,,,,
153411,1.2608854,9.050501,-2.8220387,-0.35061198,0.95274997,0.221038,77.100006,-170.1,-23.1,,,,,,
153431,1.2196136,9.240711,-2.8328052,-0.251526,0.785066,-0.007622,91.5,-153.3,-21.300001,,,,,,
153454,1.0395725,9.0002575,-2.9231248,-0.46494198,0.442076,-0.289636,98.700005,-177.3,-13.500001,,,,,,
153474,0.95284176,8.58395,-2.8962083,-0.23628199,0.106708,-0.19055,84.3,-167.70001,-21.900002,,,,,,
153494,1.1424531,9.072633,-2.9069748,0.16768399,-0.17530599,0.121952,103.50001,-170.1,-18.300001,,,,,,
153514,1.234567,9.578662,-2.9721725,-0.030488,-0.17530599,-0.07622,93.9,-158.1,-15.900001,,,,,,
153534,1.1915008,9.252673,-2.887236,-0.358234,-0.053354,-0.518296,84.3,-165.3,-12.900001,,,,,,
153599,0.86790544,9.014014,-2.940471,-0.3811,0.274392,-0.099086,98.700005,-162.90001,-17.7,,,,,,
153620,1.0425632,9.325647,-2.873479,-0.312502,0.160062,-0.091464,96.3,-160.5,-19.5,,,,,,
153640,1.0431614,9.190467,-2.7747853,-0.541162,0.213416,-0.320124,96.3,-170.1,-14.1,,,,,,
153660,1.0222263,8.832179,-2.68626,-0.64787,0.26677,-0.221038,96.3,-160.5,-19.5,,,,,,
153681,1.108957,8.829188,-2.7036061,-0.67073596,0.426832,0.015244,89.100006,-170.1,-23.7,,,,,,
153701,1.2555021,8.875245,-2.8040943,-0.72409,0.548784,0.022866,91.5,-150.90001,-15.3,,,,,,
153721,1.2973721,8.836965,-2.8597217,-0.792688,0.602138,-0.22865999,108.3,-165.3,-18.300001,x,,,,,
153761,1.5880696,8.81603,-3.0744548,-1.013726,0.56402797,-0.3811,91.5,-162.90001,-17.7,x,,,,,
153785,2.14195,9.100745,-3.1575968,-1.196654,0.70122397,-0.716468,89.100006,-179.70001,-14.700001,x,,,,,
153805,2.0982854,8.658718,-3.3418248,-1.8750119,1.570132,-1.3795819,103.50001,-162.90001,-23.7,x,,,,,
153825,2.296869,8.461928,-3.627737,-1.6082419,1.8597679,-1.509156,105.9,-167.70001,-21.900002,x,,,,,
153908,2.5636408,7.626921,-4.7462645,-1.745438,3.140264,-2.2027578,98.700005,-155.70001,-17.7,x,,,,,
153954,2.4816952,7.328448,-4.941259,-1.71495,6.74547,-2.378064,105.9,-158.1,-23.1,x,,,,,
153996,1.6251545,8.822609,-5.0004754,0.625004,6.112844,-2.187514,103.50001,-162.90001,-21.300001,x,,,,,
154132,-0.8930275,10.779135,0.55507666,-3.407034,15.01534,-7.256144,144.3,-158.1,-16.5,x,,,,,
154152,-2.0982854,10.826387,1.3410366,-4.718018,17.080902,-8.147918,146.70001,-146.1,-14.1,x,,,,,
154192,-2.7353077,12.169219,-0.18961132,-1.02897,13.109839,-6.311016,146.70001,-146.1,-15.900001,x,,,,,
154212,-3.1241007,13.827271,-0.032897864,-0.92988396,13.765331,-4.428382,161.1,-138.90001,-5.7000003,x,,,,,
154235,-4.343714,13.227334,-1.527059,-1.272874,10.884215,-3.971062,158.70001,-148.5,-12.900001,x,,,,,
154255,-4.096681,12.349259,-0.8810646,-1.463424,5.114362,-2.812518,141.90001,-129.3,-8.1,x,,,,,
154275,-4.7133665,13.332607,-1.6215656,0.297258,2.431418,-1.9054999,156.3,-129.3,-15.3,x,,,,,
154295,-5.961691,13.339187,-2.3913755,0.617382,-2.6905658,-1.1128119,163.5,-134.1,-2.1000001,x,,,,,
154315,-6.1812096,12.913907,-1.9989938,0.28201398,-8.483286,0.81555396,168.3,-134.1,-8.1,x,,,,,
154335,-5.2899766,12.855886,-1.6425006,-0.16768399,-12.340017,3.2241058,168.3,-131.70001,-15.3,x,,,,,
154358,-4.33534,11.752313,-1.5491903,-0.792688,-14.207408,5.14485,149.1,-131.70001,-9.900001,x,,,,,
154378,-2.8603196,10.862874,-1.5533773,-1.036592,-15.350708,7.08846,146.70001,-146.1,-9.900001,x,,,,,
154443,-0.7787821,9.332825,-1.9983957,1.4024479,-19.169329,12.141846,125.100006,-146.1,-21.900002,x,,,,,
154613,1.0940034,8.175418,-2.159296,-0.20579399,-7.8277936,3.7500238,101.100006,-162.90001,-23.7,x,,,,,
154633,1.0503391,8.122782,-2.1539128,-0.182928,-6.532054,2.507638,93.9,-167.70001,-23.7,x,,,,,
154676,1.5497885,9.593017,-3.7892358,0.769822,-3.033556,3.018312,96.3,-179.70001,-23.1,x,,,,,
154716,2.3375428,9.140223,-3.974062,1.730194,-3.323192,1.280496,91.5,-167.70001,-23.1,x,,,,,
154756,2.3883848,8.308804,-2.7873464,0.72409,-1.471046,-0.60976,91.5,-172.5,-17.7,x,,,,,
154814,2.0713692,8.096463,-3.543997,2.05794,1.006104,-0.82317597,81.9,-167.70001,-20.7,x,,,,,
154854,1.8093824,8.78373,-3.0571086,1.661596,1.722572,-1.196654,96.3,-165.3,-23.1,,,,,,
154874,1.8028029,8.983509,-3.3573766,1.684462,2.507638,-1.8902559,81.9,-177.3,-20.7,,,,,,
