time,sensor_accX,sensor_accY,sensor_accZ,sensor_gyroX,sensor_gyroY,sensor_gyroZ,sensor_magX,sensor_magY,sensor_magZ,label_Boxing_slip_left,label_Boxing_slip_right,label_Boxing_pullback,label_Boxing_roll_left,label_Boxing_roll_right,label_Boxing_recording_cut
810302,-1.757344,7.799784,-3.622952,0.129574,-0.007622,-0.243904,170.70001,-136.5,-10.5,,,,,,
810324,-1.8949169,7.2895684,-3.8753684,0.3811,0.251526,0.663114,156.3,-136.5,-13.500001,,,,,,
810365,-0.5233751,9.680944,-3.627737,0.891774,-0.983238,2.355198,146.70001,-136.5,-16.5,,,,,,
810405,-0.4258778,8.822011,-3.6241484,0.106708,-0.289636,0.480186,156.3,-146.1,-13.500001,,,,,,
810562,-1.041965,4.1642714,-3.3466098,3.041178,-1.6387299,-0.708846,149.1,-131.70001,-9.900001,,,,,,
810602,-0.016748004,10.856295,-2.2155216,-2.7591639,2.073184,-1.250008,134.70001,-141.3,-20.7,,,,,,
810623,-1.0999849,7.8924966,-4.0715594,-0.30488,3.155508,-3.7957559,161.1,-148.5,-13.500001,,,,,,
810663,-1.4821982,7.9684606,-3.447098,-0.70122397,1.661596,-1.768304,163.5,-146.1,-14.1,,,,,,
810684,-1.5599569,8.139529,-3.5290434,-0.068598,1.06708,-0.47256398,149.1,-150.90001,-15.3,,,,,,
810704,-1.158603,9.474585,-3.4662385,-0.16768399,1.272874,0.129574,153.90001,-143.70001,-19.5,,,,,,
810726,-0.832615,10.0368395,-3.7144678,-0.137196,1.493912,-0.548784,163.5,-143.70001,-15.3,,,,,,
810746,-1.1346772,9.177906,-3.5463896,-0.373478,0.998482,-1.547266,156.3,-129.3,-12.3,,,,,,
810766,-1.1107515,8.88661,-3.317301,-0.28201398,0.907018,-1.196654,158.70001,-129.3,-2.7,,,,,,
810786,-1.3906825,9.771263,-3.5469878,-0.55640596,1.41007,-1.3490939,165.90001,-141.3,-11.1,,,,,,
810806,-1.6634356,9.412377,-3.6791775,-0.853664,1.509156,-1.768304,156.3,-138.90001,-14.1,,,,,,
810826,-1.6993241,9.686327,-3.7796655,-0.297258,0.830798,-1.516778,151.5,-138.90001,-14.1,,,,,,
810846,-1.91645,9.401013,-3.551773,-0.525918,0.518296,-1.6539739,163.5,-146.1,-11.1,,,,,,
810868,-1.3559902,9.308301,-3.2168128,-0.83842,0.327746,-1.250008,158.70001,-138.90001,-10.5,,,,,,
810928,-1.2214079,7.7345867,-3.5876615,-0.251526,0.92988396,-0.891774,173.1,-131.70001,-13.500001,,,,,,
810963,-0.6196761,7.296148,-3.3807042,0.251526,0.15244,-0.60976,170.70001,-136.5,-17.7,,,,,,
810984,-0.46834594,6.910944,-3.4877717,0.221038,0.548784,-0.373478,149.1,-146.1,-12.3,,,,,,
811024,0.69264954,9.396228,-3.9680805,1.25763,1.06708,0.525918,165.90001,-131.70001,-11.1,,,,,,
811044,0.69264954,9.841247,-4.2767224,0.853664,0.70122397,-0.67835796,173.1,-138.90001,-14.700001,,,,,,
811064,0.30684733,8.7304945,-4.1570935,0.34298998,-0.243904,-1.501534,158.70001,-138.90001,-12.3,,,,,,
811084,0.031701576,8.0713415,-3.974062,0.28201398,-0.442076,-0.579272,168.3,-138.90001,-8.700001,,,,,,
811104,-0.19918162,9.358545,-4.229469,-0.030488,-0.625004,0.998482,173.1,-136.5,-11.700001,,,,,,
811164,-0.8936256,11.469392,-3.6373074,-0.67835796,-0.7622,0.853664,163.5,-138.90001,-9.3,,,,,,
811265,-3.4417148,7.606584,-3.350797,-0.602138,-0.868908,1.204276,170.70001,-129.3,-15.900001,,,,,,
811285,-2.8178515,8.22626,-3.2030556,-0.320124,-1.272874,1.478668,173.1,-136.5,-16.5,,,,,,
811327,-2.3590758,7.8087564,-3.145634,-0.754578,-1.02897,0.632626,170.70001,-136.5,-13.500001,,,,,,
811347,-2.1443427,7.318877,-2.6144829,-1.432936,-1.021348,0.16768399,170.70001,-134.1,-10.5,,,,,,
811367,-1.3817103,9.5942135,-2.5965385,-0.95274997,0.022866,1.33385,173.1,-143.70001,-15.3,,,,,,
811387,-1.83271,10.75162,-2.9847333,-2.13416,1.71495,-1.1432999,175.5,-134.1,-17.7,,,,,,
811407,-2.2681582,8.881227,-3.3005528,-1.935988,1.1432999,-2.7744079,158.70001,-134.1,-10.5,,,,,,
811472,-1.2082489,9.309497,-2.3991516,-0.95274997,0.518296,0.861286,165.90001,-134.1,-7.5000005,,,,,,
811499,-0.7620341,9.75631,-2.9015915,-0.221038,0.3811,-0.129574,165.90001,-138.90001,-12.3,,,,,,
811559,-0.9145606,7.9804235,-3.3190954,0.72409,-0.022866,0.46494198,165.90001,-126.9,-11.1,,,,,,
811579,-0.87089616,8.412881,-3.484781,0.846042,0.251526,0.777444,170.70001,-146.1,-14.1,,,,,,
811599,-0.7686137,8.914722,-3.8059838,0.93750596,0.518296,0.69360197,168.3,-143.70001,-21.300001,,,,,,
811619,-0.5281602,9.154578,-3.7850487,0.69360197,0.22865999,0.510674,153.90001,-131.70001,-8.1,,,,,,
811682,-0.669322,9.290955,-3.6444852,-0.022866,0.663114,0.884152,153.90001,-141.3,-15.900001,,,,,,
811702,-0.711192,9.256263,-3.7814598,-0.144818,0.510674,0.312502,175.5,-129.3,-19.5,,,,,,
811742,-0.88465345,8.607277,-3.8257225,-0.03811,-0.19055,0.221038,161.1,-141.3,-12.900001,,,,,,
811762,-0.75186574,8.940443,-3.7013087,0.099086,-0.69360197,0.47256398,151.5,-143.70001,-12.900001,,,,,,
811782,-0.53115094,9.389648,-3.7796655,-0.106708,-0.30488,0.022866,153.90001,-138.90001,-17.7,,,,,,
811802,-0.63702226,8.845338,-3.891518,-0.594516,0.03811,-0.579272,158.70001,-129.3,-15.900001,,,,,,
811865,-0.7476787,8.840553,-3.8089745,-0.426832,0.56402797,0.80793196,170.70001,-146.1,-12.900001,,,,,,
811885,-0.7040143,9.329236,-4.288087,-0.525918,0.525918,0.11432999,156.3,-146.1,-14.1,,,,,,
811947,-0.38221335,8.558229,-5.2857895,0.182928,3.399412,-0.35061198,158.70001,-134.1,-11.1,,,,,,
811984,1.2148284,7.30512,-7.8841224,2.065562,6.9588857,-0.80030996,149.1,-148.5,-17.7,,,,x,,
812026,3.8831441,9.161756,-6.9671693,-0.17530599,-5.3811316,1.036592,149.1,-136.5,-7.5000005,,,,x,,
812046,3.0589032,7.4911427,-2.414105,-4.4969797,-2.347576,-6.32626,153.90001,-146.1,-19.5,,,,x,,
812067,2.3668518,3.8484519,-2.9602096,-1.920744,7.339986,-9.900978,156.3,-134.1,-13.500001,,,,x,,
812107,2.5833795,3.2742345,0.41271865,-4.908568,2.7667859,-4.9924097,177.90001,-129.3,-12.3,,,,x,,
812185,0.3062492,0.6447981,0.73272514,-1.6539739,8.658592,-8.529017,194.70001,-117.3,-14.700001,,,,x,,
812225,-1.5527792,3.1976724,1.0006932,0.251526,6.311016,-6.0747337,187.5,-114.9,-7.5000005,,,,x,,
812246,-2.9727705,5.5615335,1.2883999,0.861286,3.7195358,-6.006136,197.1,-114.9,-6.9,,,,x,,
812286,-6.664509,9.937548,0.13398403,0.320124,1.234764,-6.6006517,209.1,-100.50001,-3.3000002,,,,x,,
812306,-6.958197,10.024877,0.7315289,0.388722,-1.3643379,-6.036624,206.70001,-83.700005,-6.9,,,,x,,
812326,-8.695803,10.76119,0.6519758,0.396344,-1.8750119,-4.352162,218.70001,-81.3,-11.700001,,,,x,,
812346,-10.376584,10.783919,-0.36546534,0.785066,-3.894842,-3.879598,223.50002,-83.700005,-5.7000003,,,,x,,
812366,-9.703075,11.157759,-1.267465,2.2484899,-5.663146,-1.6387299,225.90001,-90.9,-12.3,,,,x,,
812386,-10.6936,12.085479,-1.1304902,1.67684,-8.841519,0.785066,218.70001,-83.700005,-12.900001,,,,x,,
812408,-8.51935,13.476759,-1.4624596,1.8445239,-10.602201,3.064044,233.1,-81.3,-12.900001,,,,x,,
812429,-10.556625,14.188549,-2.7054007,1.288118,-8.826276,2.6829438,230.70001,-90.9,-8.700001,,,,x,,
812449,-10.069139,13.765064,-3.761123,1.547266,-10.350676,3.033556,233.1,-98.100006,-9.900001,,,,x,,
812469,-7.329046,14.737644,-1.9864328,0.426832,-13.597648,4.161612,225.90001,-107.700005,-11.1,,,,x,,
812491,-10.704965,13.637062,-2.1491277,0.388722,-6.714982,0.28201398,233.1,-90.9,-14.700001,,,,x,,
812511,-10.225254,13.885291,-6.141732,4.0015497,-0.68597996,4.657042,223.50002,-95.700005,-21.300001,,,,x,,
812531,-5.6554418,17.29052,-5.4789896,-0.632626,-12.118979,6.280528,211.50002,-110.100006,-17.1,,,,x,,
812551,-9.304114,11.440083,-0.98753405,-2.865872,-8.1555395,-2.576236,218.70001,-117.3,-14.1,,,,x,,
812571,-11.723602,8.550454,-5.827109,2.530504,8.23176,1.303362,223.50002,-110.100006,-15.900001,,,,x,,
812594,-7.764494,12.549638,-10.198338,3.498498,8.872007,9.809514,213.90001,-110.100006,-9.3,,,,x,,
812614,-6.8924017,12.811027,-9.869957,-0.69360197,-10.350676,5.29729,204.3,-110.100006,-19.5,,,,x,,
812634,-6.517366,11.249275,-7.358953,-1.1356779,-12.858314,5.739366,201.90001,-124.50001,-17.1,,,,x,,
812654,-5.567515,11.880316,-6.7877264,-0.47256398,-9.359816,7.225656,204.3,-124.50001,-14.1,,,,x,,
812674,-4.376612,13.2763815,-8.463125,1.059458,-0.907018,8.102186,199.50002,-117.3,-16.5,,,,x,,
812694,-3.7677026,11.941924,-10.477671,2.7058098,2.126538,7.195168,192.3,-124.50001,-17.1,,,,x,,
812714,-1.8925244,12.334905,-11.074617,0.70122397,-4.23021,8.132674,197.1,-126.9,-14.1,,,,x,,
812734,-2.0911078,11.715826,-9.113904,-2.309466,-8.429932,6.791202,189.90001,-131.70001,-17.7,,,,x,,
812758,-0.719566,10.845529,-9.468603,0.960372,-1.79117,9.085423,163.5,-134.1,-14.1,,,,x,,
812798,0.47372922,10.127757,-8.485854,-1.097568,-3.2622159,6.280528,163.5,-138.90001,-23.1,,,,x,,
812824,-0.4898791,7.354766,-8.466714,-0.33536798,-0.68597996,6.112844,144.3,-150.90001,-25.500002,,,,x,,
812844,1.3793176,8.33931,-8.523538,-2.55337,0.015244,11.150986,151.5,-148.5,-14.1,,,,x,,
812887,1.9050853,6.6489573,-4.3909674,-1.318606,2.339954,4.0777698,129.90001,-158.1,-20.7,,,,x,,
812907,1.7023149,5.4108014,-4.2791147,-0.213416,6.166198,3.08691,117.9,-158.1,-15.3,,,,x,,
812947,1.0820407,4.5297365,-3.6743922,1.196654,3.147886,3.7195358,127.50001,-160.5,-23.1,,,,x,,
812970,1.6257526,5.2690415,-1.8201491,0.510674,-0.068598,3.6661818,115.50001,-172.5,-17.7,,,,x,,
812990,2.359674,5.690732,-0.26138848,-0.22865999,2.827762,0.60976,110.700005,-155.70001,-23.7,,,,x,,
813010,2.455975,5.3001447,-0.22789247,-0.480186,3.864354,-0.785066,108.3,-162.90001,-26.7,,,,x,,
813074,1.8979076,3.907668,-0.13577846,-0.830798,5.556438,-3.567096,108.3,-165.3,-21.300001,,,,x,,
813095,2.2932801,4.243226,1.1149385,-1.798792,4.413138,-2.8048959,117.9,-160.5,-24.300001,,,,x,,
813115,1.7962234,4.55127,1.183725,-2.2256238,6.66925,-2.2027578,132.3,-150.90001,-21.300001,,,,x,,
813135,1.4702355,6.124984,0.49885124,-1.71495,7.195168,-1.775926,117.9,-158.1,-16.5,,,,x,,
813175,-0.14056359,7.4074025,0.6806867,0.03811,4.618932,-1.669218,122.700005,-155.70001,-18.900002,,,,x,,
813195,-0.26079035,8.356655,0.8140726,-0.53354,4.314052,-2.7210538,134.70001,-146.1,-20.1,,,,x,,
813215,-0.09570287,8.386562,0.38998923,-0.251526,4.176856,-2.637212,141.90001,-162.90001,-21.900002,,,,x,,
813235,-1.2285857,8.514565,-0.63941485,-0.007622,4.664664,-2.141782,125.100006,-170.1,-21.300001,,,,x,,
813255,-1.4905723,9.531408,-1.7190629,1.089946,3.574718,-1.547266,129.90001,-155.70001,-12.3,,,,x,,
813278,-0.97138417,10.467502,-2.6946342,2.042696,2.332332,-1.280496,117.9,-160.5,-12.3,,,,x,,
813299,-0.69384587,10.569784,-2.7227468,1.1432999,0.091464,-1.737816,144.3,-153.3,-16.5,,,,x,,
813319,-0.3439322,10.614645,-2.7915332,0.46494198,0.007622,-1.6463519,129.90001,-146.1,-19.5,,,,x,,
813339,-1.0096654,9.80117,-2.5708184,0.083841994,-0.312502,-1.966476,127.50001,-160.5,-13.500001,,,,x,,
813361,-1.9888253,8.915321,-3.1306803,0.67835796,0.068598,-1.48629,137.1,-153.3,-14.700001,,,,x,,
813381,-1.5749104,9.249683,-3.3747227,0.99086,-2.2027578,0.632626,146.70001,-153.3,-15.900001,,,,x,,
813401,-0.81766146,10.224656,-2.3166077,0.426832,-3.551852,1.425314,127.50001,-160.5,-18.300001,,,,x,,
813421,-0.5586655,9.689917,-2.506817,-0.82317597,-1.974098,0.640248,137.1,-153.3,-17.1,,,,x,,
813443,-0.43365365,8.430227,-2.5636408,-0.33536798,-1.8673899,0.41921,125.100006,-162.90001,-15.900001,,,,x,,
813463,-0.21892032,8.537892,-2.7538502,0.045732,-1.6463519,1.9131219,132.3,-153.3,-17.1,,,,x,,
813483,0.004187001,9.024183,-2.6031182,-0.160062,-1.455802,2.370442,153.90001,-153.3,-15.3,,,,,,
813507,0.4079335,9.283777,-2.7257376,0.068598,-1.25763,1.974098,137.1,-160.5,-18.900002,,,,,,
813527,0.44083136,8.833974,-2.5576594,0.198172,-1.3414719,1.280496,129.90001,-162.90001,-23.1,,,,,,
813549,0.42827037,9.10254,-2.7921314,0.503052,-1.1128119,1.3414719,120.3,-158.1,-14.700001,,,,,,
813611,0.20217232,9.301722,-3.204252,0.0,-0.92988396,0.92226195,120.3,-158.1,-21.900002,,,,,,
813631,0.14534874,8.817823,-3.1408486,-0.60976,-1.196654,0.17530599,132.3,-143.70001,-17.7,,,,,,
813651,0.7757914,9.149195,-2.668316,-0.716468,-0.99086,0.320124,122.700005,-155.70001,-18.300001,,,,,,
813671,1.3697474,9.631298,-2.4613583,-1.75306,0.373478,-0.40396598,125.100006,-170.1,-14.700001,,,,,,
813691,0.6848737,8.208316,-2.8244312,-2.812518,2.903982,-2.157026,129.90001,-160.5,-14.700001,,,,,,
813732,1.3302699,9.12826,-4.823425,-0.617382,1.272874,0.16768399,137.1,-153.3,-17.1,,,,,,
813752,1.9146557,8.775953,-4.5997195,-1.280496,1.303362,-0.846042,122.700005,-162.90001,-10.5,,,,,,
813772,2.6551566,7.924198,-5.1117296,0.47256398,2.7210538,-1.189032,122.700005,-143.70001,-21.300001,,,,x,,
813792,3.4124057,7.106537,-5.0770373,1.204276,1.8521459,-1.3567159,127.50001,-155.70001,-21.300001,,,,x,,
813814,4.129579,7.14422,-4.2103286,1.539644,1.158544,-0.853664,139.5,-160.5,-11.700001,,,,x,,
813835,4.384388,7.157977,-3.234159,1.173788,2.2332458,-2.370442,132.3,-146.1,-18.900002,,,,x,,
813855,4.158888,5.643479,-2.2364566,0.777444,3.6814258,-5.0381417,127.50001,-162.90001,-11.1,,,,x,,
813878,3.6289334,4.2157116,-1.5408163,1.3490939,5.800342,-5.8613176,134.70001,-141.3,-9.900001,,,,x,,
813898,3.3741245,4.530335,-1.2973721,1.669218,6.8674216,-5.388754,134.70001,-146.1,-13.500001,,,,x,,
813919,3.070268,4.0135393,-0.34034336,0.17530599,7.446694,-7.324742,149.1,-143.70001,-14.700001,,,,x,,
813939,2.6204643,3.158793,-0.12202117,-0.525918,9.18451,-9.489389,144.3,-141.3,-10.5,,,,x,,
813959,1.5587605,2.0474434,-0.025122005,-0.663114,9.763782,-11.7150135,149.1,-134.1,-5.7000003,,,,x,,
813979,0.47372922,0.57601166,0.18901318,-0.327746,9.138778,-12.7058735,177.90001,-136.5,-8.1,,,,x,,
813999,-0.4665515,2.3608704,0.3439322,1.18141,5.289668,-8.772922,185.1,-114.9,-6.9,,,,x,,
814019,-2.77,2.8938158,1.978657,0.746956,2.7820299,-8.475664,187.5,-117.3,-10.5,,,,x,,
814039,-2.447601,5.1775255,2.033088,1.227142,1.8673899,-5.663146,185.1,-124.50001,-12.3,,,,x,,
814059,-2.6288383,7.6550336,2.3435242,0.289636,4.085392,-7.027484,180.3,-126.9,-15.900001,,,,x,,
814080,-7.349383,8.396731,-1.8524488,4.375028,5.14485,-5.884184,194.70001,-122.100006,-5.7000003,,,,x,,
814101,-6.927692,11.866558,-1.4905723,1.6082419,-3.8186219,-2.301844,197.1,-105.3,-11.700001,,,,x,,
814121,-7.054498,12.488029,1.2979703,-0.15244,-7.271388,-4.8857017,199.50002,-112.50001,-7.5000005,,,,x,,
814144,-9.04751,10.372397,-0.092712164,0.792688,-4.756128,-5.304912,201.90001,-102.9,-6.9,,,,x,,
814206,-10.002745,15.433883,-1.4756187,-0.41921,-9.466524,2.370442,201.90001,-110.100006,-8.1,,,,x,,
814226,-13.156753,13.656202,-4.7043943,0.739334,-2.843006,0.625004,216.3,-102.9,-10.5,,,,x,,
814246,-8.465517,14.366198,-6.1578817,1.8292799,-14.047346,8.018344,211.50002,-107.700005,-4.5,,,,x,,
814266,-7.326055,17.196012,-0.8738869,-3.071666,-19.611406,7.5610237,192.3,-122.100006,-13.500001,,,,x,,
814289,-9.5296135,13.735157,-6.4868608,3.2088618,-1.18141,5.495462,197.1,-107.700005,-17.7,,,,x,,
814310,-4.786938,16.731255,-7.509087,-0.40396598,-14.047346,11.120498,206.70001,-124.50001,-15.3,,,,x,,
814330,-7.160968,13.593995,-2.4906673,-4.214966,-16.57785,1.928366,185.1,-124.50001,-18.900002,,,,x,,
814350,-8.933864,8.6652975,-4.7977047,3.50612,-5.289668,0.388722,197.1,-119.700005,-19.5,,,,x,,
814372,-5.819333,10.934651,-7.593425,4.275942,-3.8033779,11.455866,197.1,-119.700005,-11.1,,,,x,,
814392,-4.015932,15.494894,-7.5814624,0.899396,-7.248522,14.13881,180.3,-134.1,-21.900002,,,,x,,
814413,-4.790527,14.295617,-7.320672,1.6311079,-7.2409,6.234796,170.70001,-129.3,-20.7,,,,x,,
814434,-3.57211,12.331914,-8.167044,3.109776,-4.908568,5.83083,170.70001,-136.5,-15.3,,,,x,,
814458,-3.355582,13.1902485,-9.719225,2.568614,-0.94512796,7.522914,168.3,-146.1,-26.1,,,,x,,
814478,-0.98035634,13.715418,-11.183479,3.7805119,-1.669218,9.809514,149.1,-143.70001,-19.5,,,,x,,
814498,0.7099957,15.043894,-10.413071,-1.6311079,-8.978716,9.862867,134.70001,-150.90001,-16.5,,,,x,,
814519,-0.74708056,13.411562,-7.7632976,-3.3003259,-8.971094,4.176856,156.3,-165.3,-19.5,,,,x,,
814539,-1.5408163,9.922594,-8.233438,0.19055,-2.2256238,1.059458,144.3,-150.90001,-15.3,,,,x,,
814560,0.698631,9.613952,-9.360937,-0.060976,-0.907018,6.349126,141.90001,-155.70001,-15.900001,,,,x,,
814580,1.2596891,11.702667,-7.98162,-3.323192,-5.5793037,7.50767,129.90001,-155.70001,-23.1,,,,x,,
814600,1.3302699,10.092466,-6.2685385,-1.44818,-4.634176,2.865872,125.100006,-155.70001,-23.7,,,,x,,
814620,0.49645868,7.024591,-6.0603848,-0.853664,-1.303362,1.303362,122.700005,-146.1,-22.5,,,,x,,
814640,0.7183697,6.117208,-6.1136193,-1.516778,1.18141,4.5731997,120.3,-158.1,-23.7,,,,x,,
814660,2.1150336,7.7890177,-5.7176485,-0.053354,0.861286,6.303394,132.3,-165.3,-24.900002,,,,x,,
814681,2.3524964,7.297344,-4.676282,0.243904,0.640248,2.59148,115.50001,-162.90001,-23.1,,,,x,,
814743,1.8668042,5.1936755,-2.6431937,-1.06708,6.341504,1.3795819,115.50001,-174.90001,-17.1,,,,x,,
814763,1.4068322,4.3987436,-2.1269965,-0.94512796,6.9131536,-0.15244,98.700005,-160.5,-20.1,,,,x,,
814783,1.7848586,4.794116,-1.3326626,-0.640248,6.295772,0.289636,101.100006,-167.70001,-14.700001,,,,x,,
814803,1.6448932,4.6074953,-0.5586655,-1.8369019,7.3780956,-1.41007,113.100006,-155.70001,-18.900002,,,,x,,
814823,1.4899741,3.451285,-0.6639387,-1.158544,9.169266,-3.3079479,113.100006,-155.70001,-24.300001,,,,x,,
814843,1.3571864,3.2227943,-0.19977975,0.182928,8.26987,-2.461906,98.700005,-155.70001,-21.300001,,,,x,,
814863,1.8614209,4.422071,0.19918162,0.129574,8.757678,-1.18141,110.700005,-177.3,-26.1,,,,x,,
814883,1.6448932,5.058495,-0.0765623,-0.45731997,10.106771,-1.684462,110.700005,-167.70001,-22.5,,,,x,,
814903,1.1095552,5.9808316,-0.5126085,0.121952,9.024447,-1.5929979,110.700005,-162.90001,-15.3,,,,x,,
814923,0.7686137,6.8457465,0.14295617,0.07622,6.699738,-2.149404,101.100006,-165.3,-17.7,,,,x,,
814943,0.7087994,7.4654226,0.20994818,-0.617382,5.9222937,-2.835384,110.700005,-158.1,-19.5,,,,x,,
814964,-0.916355,7.5832567,0.38101706,-0.541162,5.785098,-2.446662,115.50001,-158.1,-13.500001,,,,x,,
814984,-1.1615937,8.385366,-0.11903045,0.099086,5.5488157,-1.41007,115.50001,-165.3,-19.5,,,,x,,
815006,-0.84517604,9.642065,-0.95284176,-0.442076,3.58234,-0.92226195,115.50001,-165.3,-17.7,,,,x,,
815026,-1.1442475,8.8058605,-1.5551717,0.26677,2.446662,-1.5244,110.700005,-155.70001,-17.1,,,,x,,
815090,0.53892684,10.14929,-2.2992616,0.785066,-1.440558,1.074702,113.100006,-172.5,-15.3,,,,x,,
815110,0.6711164,10.471091,-2.8483567,-0.57164997,-0.632626,1.006104,117.9,-167.70001,-18.300001,,,,x,,
815130,0.8110819,9.828686,-2.8627121,-1.21952,-1.242386,0.0,120.3,-162.90001,-12.3,,,,x,,
815152,0.17585403,8.628212,-2.4906673,-1.501534,-1.585376,-0.70122397,105.9,-158.1,-10.5,,,,x,,
815172,0.21772404,8.781935,-2.6360161,-1.189032,-1.9054999,0.358234,122.700005,-155.70001,-15.3,,,,x,,
815194,0.69803286,9.079212,-1.8889354,-1.18141,-2.461906,-0.045732,117.9,-160.5,-21.900002,,,,x,,
815214,0.35948393,8.440395,-1.8135695,-1.006104,-1.577754,-0.67835796,108.3,-160.5,-13.500001,,,,,,
815234,0.039477438,8.080912,-2.179633,-0.137196,-1.006104,-0.15244,117.9,-165.3,-17.1,,,,,,
815254,0.40853164,8.868666,-2.2771304,0.868908,-1.1432999,1.044214,115.50001,-162.90001,-19.5,,,,,,
815278,0.44023323,9.3459835,-2.5869684,0.746956,-0.655492,0.899396,117.9,-162.90001,-18.900002,,,,,,
815298,0.26258478,9.087586,-2.8836472,0.3811,-0.46494198,0.64787,101.100006,-160.5,-16.5,,,,,,
815318,0.3744375,8.9865,-2.991313,0.663114,-0.602138,0.487808,113.100006,-167.70001,-14.700001,,,,,,
815338,0.56165624,9.021193,-3.0523236,0.68597996,-0.525918,0.45731997,115.50001,-155.70001,-16.5,,,,,,
815362,0.6406111,9.769469,-3.2311683,0.26677,-0.442076,-0.007622,108.3,-179.70001,-17.1,,,,,,
815383,0.7309307,9.342395,-3.0493329,-0.17530599,-0.426832,-0.754578,110.700005,-155.70001,-24.300001,,,,,,
815403,0.660948,8.873451,-2.9009933,-0.106708,-0.28201398,-0.92988396,108.3,-150.90001,-18.300001,,,,,,
815423,0.619078,9.025977,-2.9099655,-0.16768399,-0.33536798,-0.297258,110.700005,-158.1,-11.700001,,,,,,
815447,0.41391495,9.166541,-2.941667,-0.45731997,-0.396344,-0.434454,132.3,-162.90001,-24.300001,,,,,,
815467,0.28351977,8.630605,-2.9303024,-0.41921,-0.57164997,-0.57164997,110.700005,-153.3,-14.700001,,,,,,
815487,0.5096178,8.500808,-2.7006154,0.03811,-1.8292799,0.55640596,110.700005,-162.90001,-17.1,,,,x,,
815528,0.6262557,8.491836,-2.6713066,-0.3811,-2.042696,0.830798,115.50001,-162.90001,-17.1,,,,x,,
815548,0.92951417,8.80287,-2.7472706,-0.23628199,-2.157026,1.059458,108.3,-162.90001,-18.900002,,,,x,,
815571,0.97078604,9.409986,-3.5661285,-0.426832,-0.853664,-0.243904,108.3,-172.5,-9.900001,,,,x,,
815591,1.1394624,8.627614,-3.9603045,0.221038,-0.891774,-0.785066,103.50001,-148.5,-14.700001,,,,x,,
815632,2.354889,7.8972816,-3.9333882,-1.3414719,-0.975616,-1.288118,115.50001,-165.3,-16.5,,,,x,,
815652,2.8387866,6.703388,-4.1355605,-0.45731997,0.099086,-1.8902559,122.700005,-155.70001,-23.7,,,,x,,
815676,3.5493803,6.020309,-3.8346946,0.22865999,-0.03811,-1.554888,127.50001,-167.70001,-20.7,,,,x,,
815697,4.5381107,6.564021,-3.1246989,-0.20579399,0.56402797,-1.493912,125.100006,-153.3,-23.1,,,,x,,
815717,4.485474,5.449681,-2.385394,-1.303362,2.93447,-4.68753,129.90001,-162.90001,-17.7,,,,x,,
815758,3.8460593,3.4255648,-1.6102009,0.289636,7.20279,-6.410102,134.70001,-153.3,-20.7,,,,x,,
815778,3.2449257,3.321488,-0.9725805,0.121952,8.559505,-7.195168,134.70001,-150.90001,-14.1,,,,x,,
815798,2.7054007,2.8082812,-0.56883395,-0.586894,9.9086,-8.544262,153.90001,-150.90001,-15.3,,,,x,,
815818,1.0222263,1.4086267,-0.34034336,-0.64787,11.524464,-10.731775,141.90001,-143.70001,-15.900001,,,,x,,
815841,-1.9367869,1.0311985,-1.62336,2.568614,13.155572,-9.436036,173.1,-141.3,-7.5000005,,,,x,,
815861,-3.9848285,3.2580848,-2.334552,4.253076,10.297321,-5.86894,173.1,-136.5,-16.5,,,,x,,
815881,-3.7503564,7.9253945,-2.9955,3.6738038,5.000032,0.586894,170.70001,-153.3,-5.1000004,,,,x,,
815901,-3.078642,9.19585,0.8696999,-1.432936,-1.6387299,-4.336918,151.5,-136.5,-5.7000003,,,,x,,
815943,-5.673386,7.040741,-1.8351027,2.347576,5.350644,-1.669218,187.5,-124.50001,-8.1,,,,x,,
815964,-4.0344744,12.409074,-3.017033,1.044214,2.332332,5.4573517,175.5,-134.1,-14.1,,,,x,,
815984,-2.5462947,15.19343,-1.3541957,-2.13416,-3.92533,1.94361,165.90001,-136.5,-11.1,,,,x,,
816005,-5.296556,8.982313,0.61309654,-1.3719599,-4.87808,-7.50767,161.1,-119.700005,-8.700001,,,,x,,
816067,-6.333138,14.9069195,-2.021125,-0.07622,-6.44059,-1.768304,170.70001,-119.700005,-2.7,,,,x,,
816089,-4.8593135,14.628184,-3.0032759,1.196654,-8.376577,1.9131219,182.70001,-136.5,-13.500001,,,,x,,
816109,-6.7255197,16.247358,-1.6867632,-1.02897,-7.9497457,1.25763,175.5,-129.3,-18.300001,,,,x,,
816129,-7.476787,15.922565,-4.806079,-0.47256398,-4.5122237,1.692084,182.70001,-131.70001,-9.900001,,,,x,,
816149,-4.597925,16.135506,-4.0954847,-0.60976,-13.308012,4.169234,177.90001,-131.70001,-14.1,,,,x,,
816169,-4.9430537,14.182568,-0.49526238,-2.942092,-12.865935,2.2789779,173.1,-126.9,-18.900002,,,,x,,
816189,-7.349383,14.314159,-4.149916,-1.318606,-3.445144,2.888738,173.1,-126.9,-14.700001,,,,x,,
816212,-5.0471306,15.653999,-6.366634,0.602138,-7.9497457,5.83083,177.90001,-129.3,-14.1,,,,x,,
816232,-3.8837423,16.470465,-3.8424704,-1.8826339,-13.98637,4.657042,153.90001,-138.90001,-16.5,,,,x,,
816254,-5.8594084,14.073706,-4.24203,-1.310984,-6.265284,-0.487808,158.70001,-146.1,-14.700001,,,,x,,
816274,-6.3917556,12.416252,-7.3529716,2.01983,-2.949714,1.989342,170.70001,-138.90001,-23.1,,,,x,,
816294,-3.798806,14.635961,-7.622136,-0.7622,-10.89946,5.9985137,161.1,-141.3,-24.300001,,,,x,,
816314,-3.757534,14.138904,-6.8391666,-0.289636,-11.836966,4.72564,153.90001,-143.70001,-17.7,,,,x,,
816334,-3.5003326,12.757194,-5.9628873,0.907018,-10.335432,3.7119138,161.1,-138.90001,-12.900001,,,,x,,
816358,-1.9888253,13.892468,-6.9976745,0.579272,-3.948196,5.9222937,161.1,-143.70001,-15.900001,,,,x,,
816379,-2.3746276,13.302101,-7.64008,1.265252,-2.576236,3.1859958,139.5,-146.1,-25.500002,,,,x,,
816399,-2.171857,11.409577,-8.332729,1.234764,-2.919226,2.614346,149.1,-148.5,-17.7,,,,x,,
816419,-0.7010236,11.864166,-7.601799,-1.02897,-6.067112,5.5793037,149.1,-158.1,-20.7,,,,x,,
816441,-0.44142953,11.554926,-6.5634227,-2.164648,-3.6814258,2.93447,129.90001,-155.70001,-24.900002,,,,x,,
816461,-0.9953099,8.549257,-7.8255043,0.72409,2.2180018,0.259148,132.3,-148.5,-17.1,,,,x,,
816481,1.0772555,9.110315,-9.37649,0.03811,-0.198172,6.265284,134.70001,-155.70001,-27.900002,,,,x,,
816561,2.0797431,6.128573,-4.4322395,-1.821658,-1.935988,1.9054999,122.700005,-150.90001,-25.500002,,,,x,,
816601,2.0223215,5.610581,-3.76531,-1.745438,5.75461,2.850628,120.3,-158.1,-23.1,,,,x,,
816663,1.4845909,5.0405507,-1.8823559,-0.87653,4.4512477,1.3948259,105.9,-158.1,-29.1,,,,x,,
816683,1.518685,4.291676,-1.0742648,-1.166166,5.213448,-0.35061198,115.50001,-165.3,-26.7,,,,x,,
816703,1.74897,3.4303498,-0.50842154,-0.434454,5.708878,-0.41158798,103.50001,-160.5,-23.7,,,,x,,
816725,1.4570763,3.0672772,0.36127836,-0.20579399,7.599134,0.434454,105.9,-155.70001,-16.5,,,,x,,
816745,1.7065018,4.0727553,-0.123815596,0.40396598,9.10829,1.471046,110.700005,-162.90001,-20.7,,,,x,,
816765,1.7322221,5.1559925,-0.012561003,0.625004,8.285114,1.532022,96.3,-162.90001,-23.1,,,,x,,
816785,1.6640338,6.1847982,0.44860724,0.007622,7.477182,0.57164997,96.3,-170.1,-18.900002,,,,x,,
816809,1.2860074,6.5909376,0.33077306,-0.33536798,8.04121,-1.150922,101.100006,-172.5,-22.5,,,,x,,
816830,0.9953099,6.7685857,0.31282878,0.182928,7.0198617,-2.339954,108.3,-172.5,-14.700001,,,,x,,
816852,1.1705658,7.9630775,0.25122005,0.510674,5.358266,-1.8750119,113.100006,-162.90001,-18.900002,,,,x,,
816872,-0.6711164,7.399029,0.10228245,-0.30488,5.556438,-3.102154,105.9,-162.90001,-12.900001,,,,x,,
816892,-1.0138524,8.49064,-1.5551717,0.617382,4.847592,-1.3490939,108.3,-160.5,-21.300001,,,,x,,
816912,-0.43245736,9.678552,-1.8883374,1.3643379,2.378064,-0.56402797,105.9,-153.3,-17.7,,,,x,,
816932,-0.66752756,10.364621,-1.9948068,1.318606,1.310984,0.160062,113.100006,-155.70001,-20.7,,,,x,,
816956,-0.36785793,10.78691,-2.329767,0.137196,0.0,0.0,96.3,-165.3,-21.900002,,,,x,,
816976,-0.17286332,10.698385,-2.1772404,0.007622,-0.67073596,-0.891774,115.50001,-155.70001,-23.1,,,,x,,
817000,-0.40554094,9.524231,-2.2567935,-0.967994,-0.373478,-1.577754,122.700005,-165.3,-20.1,,,,x,,
817021,-0.59216154,8.689821,-2.3913755,-0.67835796,-0.67835796,-0.998482,110.700005,-158.1,-15.900001,,,,x,,
817041,-0.22908875,8.957789,-2.5145931,0.03811,-1.547266,0.586894,101.100006,-165.3,-19.5,,,,x,,
817061,0.25181818,9.404602,-2.1939883,0.19055,-2.179892,1.082324,115.50001,-160.5,-17.7,,,,,,
817083,0.94147706,9.110913,-1.8093824,-0.480186,-1.41007,0.80793196,110.700005,-167.70001,-14.1,,,,,,
817104,0.9576269,8.31658,-1.8494581,-0.846042,-0.17530599,0.274392,113.100006,-162.90001,-14.700001,,,,,,
817146,0.67709786,9.673766,-3.3119175,0.967994,0.975616,0.327746,98.700005,-167.70001,-18.300001,,,,,,
817166,0.36546534,8.68384,-2.6689138,0.655492,-0.15244,-0.7622,105.9,-170.1,-11.700001,,,,,,
817186,0.88884044,9.333423,-2.970378,1.1432999,-0.083841994,0.312502,108.3,-162.90001,-14.1,,,,,,
817206,0.23746276,8.881825,-2.9464524,0.7622,0.137196,-0.35061198,103.50001,-162.90001,-14.1,,,,,,
817226,0.31282878,8.857301,-3.7162623,1.722572,0.49543,-0.26677,108.3,-170.1,-14.700001,,,,,,
817247,0.001196286,8.068949,-3.246122,2.103672,-1.432936,0.40396598,105.9,-160.5,-15.3,,,,,,
817267,0.5748154,9.86577,-2.9171433,1.547266,-1.8597679,2.309466,110.700005,-165.3,-13.500001,,,,,,
817327,0.01614986,9.156971,-2.8962083,-0.55640596,-1.158544,1.25763,105.9,-158.1,-15.3,,,,,,
817347,0.18183546,8.981116,-2.7915332,-0.57164997,-1.006104,0.94512796,98.700005,-170.1,-14.1,,,,,,
817367,0.3881948,9.138429,-2.710784,-0.160062,-0.739334,0.830798,105.9,-160.5,-8.1,,,,,,
817391,0.5556748,9.455444,-3.166569,0.26677,-0.030488,-0.106708,89.100006,-165.3,-19.5,,,,,,
817451,0.51799184,9.216785,-3.0224164,-0.243904,-0.434454,0.045732,101.100006,-158.1,-17.7,,,,,,
817508,0.4521961,9.075026,-3.0553143,-0.625004,-0.853664,0.045732,98.700005,-170.1,-17.7,,,,,,
817529,0.6753034,9.056482,-2.8178515,-0.69360197,-0.960372,0.121952,113.100006,-170.1,-18.900002,,,,,,
817569,0.70700496,8.664101,-2.7831593,-0.625004,-0.518296,0.198172,101.100006,-167.70001,-17.1,,,,,,
817589,0.81766146,8.975734,-2.8459642,-0.480186,-0.45731997,0.396344,103.50001,-165.3,-15.3,,,,,,
817609,0.9103736,9.034351,-2.920134,-0.47256398,-0.312502,0.243904,96.3,-165.3,-24.900002,,,,,,
817654,1.2040617,9.074427,-3.4453034,-0.221038,0.289636,0.099086,96.3,-153.3,-21.300001,,,,x,,
817683,1.5701253,9.098352,-3.9046774,-0.594516,1.425314,-0.373478,108.3,-160.5,-18.300001,,,,x,,
817703,1.6999223,8.800478,-4.2599745,-0.868908,1.669218,-0.518296,96.3,-167.70001,-23.7,,,,x,,
817744,2.9057786,8.032462,-5.096178,-0.083841994,3.338436,-0.716468,113.100006,-162.90001,-18.300001,,,,x,,
817764,3.3161047,6.6597238,-5.1607776,0.365856,2.911604,-2.2256238,93.9,-160.5,-14.700001,,,,x,,
817787,4.049428,5.5495706,-4.87008,1.204276,2.599102,-2.911604,105.9,-167.70001,-18.300001,,,,x,,
817811,4.9974847,6.003561,-3.3496006,0.884152,2.484772,-2.538126,108.3,-160.5,-18.300001,,,,x,,
817832,4.7917233,5.5124855,-1.9613107,-0.434454,4.009172,-4.80186,115.50001,-162.90001,-16.5,,,,x,,
817852,4.2659554,4.384986,-0.9911229,-1.417692,6.5549197,-6.760714,115.50001,-150.90001,-13.500001,,,,x,,
817873,3.3430212,2.9757612,-0.7393047,-2.080806,9.862867,-9.497012,122.700005,-150.90001,-11.700001,,,,x,,
817893,2.705999,2.2268863,-0.48629025,-0.80793196,10.205858,-10.358297,132.3,-150.90001,-9.3,,,,x,,
817917,2.0312936,2.1305852,0.23626648,-0.274392,10.1677475,-10.609824,125.100006,-146.1,-12.900001,,,,x,,
817937,1.6102009,2.208942,0.13876916,-0.434454,10.769886,-10.853727,141.90001,-146.1,-11.700001,,,,x,,
817980,-1.0940034,1.9475535,0.6124984,2.545748,6.951264,-9.855246,161.1,-134.1,-17.1,,,,x,,
818000,-2.2950745,2.999687,0.5072252,2.865872,4.80186,-9.131156,163.5,-136.5,-8.1,,,,x,,
818020,-3.4279573,5.713462,0.46415895,3.986306,1.204276,-5.708878,175.5,-129.3,-4.5,,,,x,,
818040,-2.590557,7.9008703,1.2178191,0.49543,-1.06708,-5.647902,165.90001,-129.3,-8.700001,,,,x,,
818102,-7.665202,12.319353,-4.003371,1.3567159,-0.23628199,0.33536798,194.70001,-122.100006,-9.3,,,,x,,
818122,-7.4642262,12.368999,-1.9224315,1.8750119,-7.957368,-2.873494,197.1,-117.3,-8.1,,,,x,,
818142,-8.452956,14.080884,-3.3274693,4.634176,-5.388754,-0.69360197,182.70001,-110.100006,-9.900001,,,,x,,
818165,-7.433721,16.474054,-5.3533797,1.707328,-6.577786,2.865872,180.3,-112.50001,-12.900001,,,,x,,
818245,-5.635703,15.37347,-2.5032284,-1.67684,-14.603752,3.864354,189.90001,-119.700005,-15.900001,,,,x,,
818285,-5.5585427,14.097631,-4.2402353,-0.68597996,-11.936051,4.4055157,194.70001,-122.100006,-14.700001,,,,x,,
818305,-5.509495,13.2440815,-1.4786094,-1.94361,-13.422341,3.528986,197.1,-129.3,-14.700001,,,,x,,
818348,-4.438819,15.036716,-5.9527187,-0.23628199,-11.524464,6.32626,182.70001,-126.9,-14.1,,,,x,,
818398,-5.60759,14.537865,-7.6640058,0.67835796,-2.050318,5.632658,175.5,-131.70001,-21.300001,,,,x,,
818418,-3.9728656,13.897254,-8.120389,-0.46494198,-6.93602,4.847592,177.90001,-143.70001,-23.1,,,,x,,
818458,-3.2521033,14.205895,-6.366634,-0.213416,-7.157058,6.9283977,173.1,-141.3,-23.1,,,,x,,
818478,-2.7185597,13.694484,-7.1603694,0.007622,-3.8262439,5.571682,151.5,-146.1,-19.5,,,,x,,
818518,-1.8644116,13.03533,-7.9517126,0.861286,-5.3658876,6.93602,149.1,-141.3,-24.300001,,,,x,,
818538,-0.9025977,12.930057,-6.718342,-0.449698,-6.333882,6.242418,134.70001,-158.1,-24.300001,,,,x,,
818578,-1.6347247,10.481259,-6.9456363,-1.67684,-0.487808,3.841488,146.70001,-158.1,-26.1,,,,x,,
818598,-1.1442475,8.560024,-7.238128,-1.288118,-1.737816,4.085392,125.100006,-155.70001,-26.1,,,,x,,
818642,0.660948,8.435611,-4.03268,-2.47715,-3.2622159,6.74547,120.3,-150.90001,-26.7,,,,x,,
818702,1.1316864,5.525047,-4.0530167,-0.007622,1.966476,5.000032,105.9,-155.70001,-26.1,,,,x,,
818722,1.3655604,6.439607,-4.0338764,-0.868908,3.6966698,6.272906,93.9,-160.5,-34.5,,,,x,,
818746,1.6574541,5.8635955,-2.9440596,-1.089946,3.155508,4.070148,91.5,-167.70001,-23.1,,,,x,,
818766,1.8380934,5.6255345,-1.9678904,-0.640248,4.070148,2.6829438,81.9,-165.3,-27.300001,,,,x,,
818829,1.5318441,4.824621,-0.8212503,0.41158798,8.811031,-0.16768399,96.3,-167.70001,-27.900002,,,,x,,
818850,1.3410366,5.3910627,-0.68367743,0.365856,10.236346,-0.129574,86.700005,-160.5,-23.7,,,,x,,
818870,1.0497409,5.5447855,-0.5694321,-0.03811,11.006167,-1.242386,89.100006,-155.70001,-29.7,,,,x,,
818890,0.9881322,5.334837,-0.50423455,-0.091464,11.303426,-1.821658,89.100006,-170.1,-23.7,,,,x,,
818914,0.7554546,5.438316,-0.5586655,0.358234,11.486354,-2.32471,96.3,-165.3,-24.900002,,,,x,,
818934,0.9073829,6.564021,-0.72315484,1.25763,10.632689,-2.149404,93.9,-172.5,-22.5,,,,x,,
818994,0.7219586,6.7542305,-0.53832865,1.455802,7.3780956,-2.2256238,103.50001,-158.1,-16.5,,,,x,,
819017,0.53832865,7.7513347,-0.5000475,1.1356779,5.8918056,-1.250008,91.5,-172.5,-23.7,,,,x,,
819037,0.49227166,8.271121,-0.43903694,-0.106708,5.000032,-1.25763,105.9,-160.5,-17.1,,,,x,,
819057,0.7087994,9.168934,-0.8547463,-0.708846,4.0472817,-0.777444,101.100006,-170.1,-15.3,,,,x,,
819077,-0.0807493,9.116297,-1.1382661,-1.288118,3.170752,-1.265252,110.700005,-165.3,-19.5,,,,x,,
819097,-0.28710863,9.165943,-1.7160722,-1.242386,1.3795819,-0.716468,96.3,-165.3,-18.900002,,,,x,,
819119,-0.023327576,9.176111,-1.6502764,-0.960372,-0.586894,-0.099086,91.5,-172.5,-14.1,,,,x,,
819139,0.55208594,9.969249,-1.6897539,-0.426832,-1.570132,1.021348,108.3,-170.1,-23.7,,,,x,,
819160,0.98095447,10.485446,-1.9768625,-0.69360197,-1.6082419,1.173788,105.9,-155.70001,-26.1,,,,x,,
819180,0.85654074,9.813732,-2.154511,-0.373478,-2.2408679,0.83842,110.700005,-162.90001,-14.700001,,,,x,,
819200,0.98334706,9.70786,-2.0223215,-0.144818,-2.6677,0.998482,101.100006,-167.70001,-19.5,,,,,,
819284,1.116733,8.649147,-1.9044873,-0.274392,-1.158544,0.67073596,96.3,-170.1,-19.5,,,,,,
819305,1.422384,8.918312,-1.8488599,0.182928,-1.089946,0.853664,105.9,-162.90001,-21.900002,,,,,,
819325,1.6712115,9.358545,-1.7926345,0.49543,-0.868908,1.097568,108.3,-177.3,-12.3,,,,,,
819365,1.1759491,8.719728,-2.1898015,0.3811,0.19055,0.16768399,86.700005,-162.90001,-19.5,,,,,,
819406,1.112546,9.3244505,-2.7377005,1.059458,0.274392,0.731712,101.100006,-165.3,-16.5,,,,,,
819426,1.0515354,9.825096,-2.957219,1.1204339,-0.053354,0.33536798,93.9,-158.1,-23.7,,,,,,
819447,1.0066746,9.407593,-2.8172534,0.7622,-0.434454,-0.46494198,101.100006,-165.3,-19.5,,,,,,
819489,1.0957979,9.136036,-2.6742973,-0.099086,-0.068598,-0.34298998,89.100006,-162.90001,-19.5,,,,,,
819510,0.92891604,9.4757805,-3.0475385,-0.26677,0.213416,-0.083841994,96.3,-162.90001,-16.5,,,,,,
819530,0.9648046,9.241309,-2.7065969,-0.15244,-0.320124,-0.40396598,96.3,-162.90001,-21.300001,,,,,,
819550,1.0569186,8.874647,-2.546893,-0.35061198,-0.28201398,-0.518296,101.100006,-186.90001,-23.7,,,,,,
819614,0.98334706,9.070838,-2.669512,0.213416,-0.41158798,0.11432999,96.3,-167.70001,-25.500002,,,,,,
819664,1.0694796,8.939845,-2.765215,-0.083841994,0.144818,0.091464,96.3,-155.70001,-10.5,,,,,,
819684,1.113144,9.104334,-2.752056,-0.144818,0.243904,0.121952,101.100006,-158.1,-18.900002,,,,,,
819726,1.2070525,9.249084,-2.6013238,-0.548784,0.442076,-0.22865999,98.700005,-155.70001,-17.1,,,,,,
819746,1.1023775,8.891396,-2.5421076,-0.640248,0.525918,-0.3811,77.100006,-167.70001,-12.3,,,,,,
819767,1.0144504,8.753224,-2.5498836,-0.3811,0.487808,-0.129574,96.3,-174.90001,-19.5,,,,,,
819789,1.1998748,9.241907,-2.4051328,-0.022866,0.19055,0.015244,91.5,-165.3,-17.1,,,,,,
819851,1.108957,9.067249,-2.2861025,0.022866,0.487808,-0.518296,93.9,-167.70001,-19.5,,,,,,
820022,0.9911229,9.168336,-2.7323172,-0.663114,-1.455802,0.129574,96.3,-167.70001,-23.1,,,,,,
820042,1.079648,9.15398,-2.61867,-0.487808,-1.547266,0.16768399,96.3,-170.1,-22.5,,,,,,
820086,1.070676,9.140223,-2.485284,-0.60976,-0.830798,0.03811,84.3,-170.1,-9.3,,,,,,
820106,1.2016692,9.184485,-2.4804988,-0.434454,-0.64787,0.099086,91.5,-167.70001,-20.7,,,,,,
820126,1.033591,9.086988,-2.4493954,-0.480186,-0.449698,-0.144818,81.9,-172.5,-20.7,,,,,,
820146,0.9755712,9.022388,-2.3901794,-0.487808,-0.297258,-0.060976,93.9,-170.1,-15.3,,,,,,
820167,1.0150486,9.223365,-2.3237855,-0.53354,0.11432999,-0.03811,81.9,-160.5,-19.5,,,,,,
820187,0.98992664,9.267029,-2.317206,-0.541162,0.312502,-0.060976,91.5,-174.90001,-10.5,,,,,,
820207,0.9486548,9.17013,-2.3871887,-0.56402797,0.46494198,-0.358234,96.3,-174.90001,-23.1,,,,,,
820247,0.8696999,9.029567,-2.6653252,-0.106708,0.365856,-0.121952,96.3,-162.90001,-16.5,,,,,,
820267,0.88046646,8.913527,-2.6844656,0.137196,0.045732,0.007622,91.5,-162.90001,-18.900002,,,,,,
820287,1.0820407,9.097157,-2.6168754,0.312502,-0.129574,0.20579399,84.3,-160.5,-12.900001,,,,,,
820307,1.3326626,9.3890505,-2.6952322,0.03811,0.144818,0.243904,84.3,-167.70001,-24.900002,,,,,,
820330,1.234567,9.087586,-2.7963183,-0.35061198,0.33536798,-0.11432999,86.700005,-160.5,-21.900002,,,,,,
820350,1.3960657,8.737075,-2.669512,-0.289636,0.34298998,-0.099086,86.700005,-160.5,-17.7,,,,,,
820370,1.7836623,8.915919,-2.664727,-0.221038,0.586894,0.015244,93.9,-170.1,-20.7,,,,,,
820394,2.0600045,9.285571,-2.8633103,-0.30488,1.06708,-0.17530599,86.700005,-160.5,-14.700001,,,,,,
820434,2.5875664,8.263345,-3.4231722,-0.23628199,1.920744,-0.960372,79.5,-177.3,-18.900002,,,,,,
820456,3.4201815,8.658718,-3.949538,-0.625004,2.560992,-1.692084,89.100006,-160.5,-16.5,,,,x,,
820476,3.1276896,6.773969,-3.5152862,-0.41921,2.7515419,-2.995446,93.9,-174.90001,-21.300001,,,,x,,
820496,3.8753684,6.482075,-3.564334,0.26677,2.7515419,-1.958854,110.700005,-160.5,-18.900002,,,,x,,
820516,4.5739994,6.949225,-3.367545,0.11432999,3.948196,-2.195136,103.50001,-160.5,-20.1,,,,x,,
820536,4.5913453,6.3612504,-3.045744,0.121952,4.862836,-3.6814258,98.700005,-162.90001,-18.900002,,,,x,,
820556,4.2157116,5.150609,-2.4541807,-0.129574,5.823208,-5.4116197,110.700005,-158.1,-15.900001,,,,x,,
820576,3.7198513,4.1822157,-1.9553294,0.312502,6.920776,-6.51681,113.100006,-167.70001,-20.7,,,,x,,
820596,3.6301296,4.2366467,-1.4648521,1.196654,7.477182,-6.905532,105.9,-155.70001,-8.1,,,,x,,
820616,3.5110993,3.8508444,-0.6669294,0.99086,7.461938,-8.788166,122.700005,-134.1,-14.700001,,,,x,,
820637,2.6168754,2.7179615,0.3343619,0.663114,8.391822,-10.678422,137.1,-148.5,-16.5,,,,x,,
820657,2.2597842,2.6055107,0.39896137,1.097568,10.21348,-11.326292,129.90001,-155.70001,-14.700001,,,,x,,
820677,0.63223714,1.4170007,0.71657526,1.8597679,10.525982,-13.2317915,141.90001,-148.5,-14.1,,,,x,,
820697,-0.28172535,1.1980804,1.146042,4.085392,8.978716,-11.265316,156.3,-148.5,-9.900001,,,,x,,
820781,-2.9907148,9.441089,0.7010236,3.932952,3.414656,-3.452766,168.3,-119.700005,-8.700001,,,,x,,
820862,-8.483461,13.149575,-5.8378754,3.384168,-2.987824,1.951232,182.70001,-114.9,-2.7,,,,x,,
820882,-8.405704,13.3738785,-5.739182,2.7058098,-7.339986,0.17530599,177.90001,-117.3,-0.90000004,,,,x,,
820923,-8.488247,14.488817,-5.7451634,1.227142,-10.25159,0.7622,175.5,-102.9,-4.5,,,,x,,
820963,-6.9928894,15.316648,-7.0275817,0.35061198,-13.239413,4.0472817,199.50002,-110.100006,-4.5,,,,x,,
821005,-6.8248115,15.10311,-9.305908,4.275942,-6.608274,5.960404,182.70001,-102.9,-9.900001,,,,x,,
821043,-6.0825157,14.528295,-5.7427707,-3.445144,-21.173916,2.431418,189.90001,-136.5,-6.9,,,,x,,
821063,-7.3445973,12.843924,-6.2356405,1.554888,-7.9649897,3.025934,187.5,-122.100006,-18.900002,,,,x,,
821105,-3.7042994,15.049277,-10.163047,0.137196,-9.618964,8.3842,173.1,-126.9,-18.300001,,,,x,,
821128,-4.3335457,14.061145,-7.835075,-2.62959,-16.806509,6.3872356,187.5,-126.9,-16.5,,,,x,,
821149,-4.266554,13.19623,-6.108236,-1.44818,-11.760746,6.692116,173.1,-126.9,-22.5,,,,x,,
821169,-3.7599268,13.403188,-7.8464394,0.487808,-2.2865999,7.4085836,161.1,-134.1,-26.7,,,,x,,
821229,-1.5001426,12.970132,-7.0437317,-4.321674,-12.065626,6.8598,139.5,-146.1,-18.300001,,,,x,,
821249,-1.7800735,11.608161,-6.623835,-2.2256238,-4.550334,5.762232,146.70001,-141.3,-18.300001,,,,x,,
821269,-1.074863,10.40051,-8.205325,-1.006104,0.40396598,6.951264,122.700005,-148.5,-20.1,,,,x,,
821289,0.42767224,11.34737,-8.052799,-2.469528,-4.64942,8.986338,127.50001,-150.90001,-22.5,,,,x,,
821312,-0.34632477,9.666589,-5.836081,-1.6082419,-1.3872039,4.8857017,125.100006,-153.3,-23.1,,,,x,,
821332,-0.111254595,8.041434,-7.2650447,0.22865999,2.576236,4.253076,132.3,-155.70001,-24.300001,,,,x,,
821352,0.93429935,8.154483,-7.5288258,-0.015244,-0.731712,6.4786997,113.100006,-160.5,-17.1,,,,x,,
821393,1.9355906,7.643669,-4.8174434,-0.708846,-1.417692,2.339954,108.3,-170.1,-21.300001,,,,x,,
821413,1.556368,5.564524,-4.414295,-0.373478,0.602138,0.213416,105.9,-162.90001,-23.7,,,,x,,
821433,1.7633255,4.9017816,-4.0476336,-0.525918,1.227142,1.051836,98.700005,-165.3,-23.1,,,,x,,
821453,1.7190629,4.6116824,-3.222196,-0.891774,1.33385,1.463424,105.9,-165.3,-25.500002,,,,x,,
821473,1.9505442,4.4448004,-2.4541807,-0.87653,1.6463519,1.48629,98.700005,-174.90001,-23.7,,,,x,,
821535,1.8512524,3.5110993,-1.0317966,-1.509156,7.713464,0.503052,108.3,-167.70001,-18.900002,,,,x,,
821555,1.4319543,3.5296416,-0.8230447,-1.4024479,8.788166,1.516778,86.700005,-162.90001,-21.300001,,,,x,,
821575,1.6670245,4.337135,-0.681883,-1.5929979,10.25159,2.621968,101.100006,-172.5,-18.300001,,,,x,,
821595,1.945161,5.5053077,-0.6406111,-1.8445239,11.01379,2.43904,103.50001,-165.3,-30.900002,,,,x,,
821615,1.510311,5.26306,-0.68427557,-2.17227,11.54733,0.22865999,89.100006,-162.90001,-21.900002,,,,,,
821635,1.1077608,4.6870484,-0.9558325,-1.310984,11.120498,-0.510674,86.700005,-179.70001,-20.1,,,,,,
821698,0.84278345,8.034256,-0.51320666,0.26677,6.9741297,-2.47715,91.5,-177.3,-15.900001,,,,,,
821718,1.0060765,7.575481,-0.41810194,0.625004,5.243936,-3.551852,84.3,-167.70001,-21.900002,,,,,,
821740,1.0192356,7.6538377,0.5401231,0.716468,3.513742,-2.675322,96.3,-162.90001,-20.1,,,,,,
821760,0.8517556,9.139027,0.31223062,0.22865999,5.0228977,-1.1128119,101.100006,-158.1,-20.7,,,,,,
821780,0.07835673,9.575671,-0.83560574,-0.830798,5.5945477,-1.173788,93.9,-174.90001,-15.900001,,,,,,
821800,-0.0723753,9.382471,-1.321896,-0.518296,3.437522,-0.739334,101.100006,-165.3,-17.1,,,,,,
821824,-0.19858347,9.039137,-1.2243986,-0.64787,1.920744,0.03811,98.700005,-172.5,-17.1,,,,,,
821884,0.94805664,9.700085,-1.869795,-0.320124,-0.510674,0.22865999,101.100006,-165.3,-18.300001,,,,,,
821904,1.0186375,9.238916,-1.9858347,-0.312502,-0.45731997,0.060976,96.3,-167.70001,-9.900001,,,,,,
821928,1.1777436,9.276599,-2.4123106,-0.274392,-0.67073596,0.365856,91.5,-172.5,-20.1,,,,,,
821948,1.1932952,9.056482,-2.5110042,-0.030488,-0.68597996,0.198172,86.700005,-172.5,-17.7,,,,,,
821968,1.1615937,9.190467,-2.5750055,-0.137196,-0.983238,0.373478,89.100006,-162.90001,-19.5,,,,,,
821989,1.0844332,9.147401,-2.459564,-0.373478,-1.166166,0.007622,79.5,-172.5,-15.3,,,,,,
822009,1.0311985,8.827992,-2.4416196,-0.274392,-1.173788,-0.358234,86.700005,-160.5,-23.1,,,,,,
822069,1.2519132,9.284973,-2.2502139,0.16768399,-1.684462,1.1356779,77.100006,-179.70001,-21.900002,,,,,,
822089,1.3129238,9.268226,-2.125202,-0.15244,-1.1432999,1.166166,77.100006,-165.3,-15.900001,,,,,,
822133,1.3996545,9.139625,-2.330365,-0.22865999,-0.503052,0.525918,81.9,-165.3,-18.900002,,,,,,
822175,1.2160246,8.884217,-2.5696223,0.518296,-0.64787,0.20579399,81.9,-162.90001,-19.5,,,,,,
822195,1.4409264,9.16355,-2.6126885,0.80030996,-0.899396,0.33536798,79.5,-170.1,-21.300001,,,,,,
822215,1.6490802,9.308301,-2.5421076,0.579272,-0.868908,0.160062,74.700005,-172.5,-12.3,,,,,,
822235,1.7818679,9.219776,-2.6114922,0.35061198,-0.358234,-0.083841994,72.3,-167.70001,-22.5,,,,,,
822255,1.6227618,8.819618,-2.661138,0.251526,0.23628199,-0.40396598,77.100006,-155.70001,-19.5,,,,,,
822275,1.4110193,8.789113,-2.9279099,0.541162,0.388722,-0.121952,86.700005,-172.5,-17.1,,,,,,
822295,1.4469079,9.214393,-2.836394,0.41921,0.15244,0.083841994,74.700005,-177.3,-11.700001,,,,,,
822315,1.380514,9.402209,-2.774187,0.243904,0.221038,-0.365856,91.5,-170.1,-21.300001,,,,,,
822355,0.9067848,8.942238,-2.7185597,-0.030488,0.41921,-1.1356779,79.5,-162.90001,-16.5,,,,,,
822375,0.8481667,8.981116,-2.7215505,-0.221038,0.251526,-0.731712,96.3,-160.5,-15.900001,,,,,,
822395,0.9564306,9.19585,-2.6491752,-0.251526,0.106708,-0.41158798,81.9,-167.70001,-12.3,,,,,,
822456,0.97377676,8.96078,-2.5337336,-0.586894,-0.030488,0.053354,79.5,-177.3,-24.900002,,,,,,
822545,1.4092249,9.199439,-2.4344418,-0.259148,-0.129574,0.030488,74.700005,-170.1,-15.900001,,,,,,
822566,1.3236904,8.9865,-2.409918,0.091464,-0.11432999,-0.53354,86.700005,-167.70001,-23.7,,,,,,
822609,1.1621917,9.207813,-2.7245412,0.160062,-0.053354,0.19055,91.5,-162.90001,-17.7,,,,,,
822630,1.2088469,9.12826,-2.681475,0.099086,-0.312502,0.007622,98.700005,-165.3,-15.900001,,,,,,
822650,1.2698575,8.936256,-2.5588555,0.053354,-0.297258,-0.106708,105.9,-174.90001,-17.1,,,,,,
822713,1.4582726,8.9141245,-2.8064868,0.129574,-0.33536798,0.121952,72.3,-172.5,-20.7,,,,,,
822902,4.21631,8.058182,-4.3616586,0.16768399,0.213416,-0.907018,101.100006,-165.3,-17.1,,,,x,,
822922,4.5165777,7.1292663,-3.6708033,-0.56402797,1.9054999,-2.43904,93.9,-172.5,-11.1,,,,x,,
822963,4.2103286,5.739182,-2.050434,-0.907018,4.603688,-5.213448,89.100006,-182.1,-15.3,,,,x,,
823005,4.443006,5.1727405,-0.43784064,-0.99086,6.699738,-7.4238276,108.3,-158.1,-16.5,,,,x,,
823047,3.028996,2.4948545,0.2087519,-0.022866,9.016826,-10.586958,115.50001,-158.1,-12.900001,,,,x,,
823106,0.10946016,1.7998122,-0.06519759,2.6677,8.414688,-9.321706,132.3,-143.70001,-18.300001,,,,x,,
823205,-4.594336,6.990497,0.6543684,2.2713559,6.0747337,-8.811031,165.90001,-129.3,-3.9,,,,x,,
823226,-5.675779,6.1776204,-1.032993,5.000032,3.521364,-5.632658,151.5,-129.3,-12.3,,,,x,,
823267,-5.702097,10.783321,-0.25122005,2.2180018,-1.6463519,-1.455802,180.3,-134.1,-2.7,,,,x,,
823309,-5.9981775,12.549638,-4.082924,1.6158639,-3.6890478,-1.463424,170.70001,-122.100006,0.3,,,,x,,
823329,-6.7590156,10.367612,-2.4452085,2.423796,-8.658592,-2.080806,175.5,-119.700005,-0.3,,,,x,,
823373,-6.437215,12.67764,-3.572708,-0.312502,-8.178406,-0.67835796,173.1,-117.3,-12.3,,,,x,,
823417,-5.400035,15.065427,-6.464131,0.846042,-9.085423,5.708878,180.3,-129.3,-3.3000002,,,,x,,
823447,-5.8067718,15.313058,-5.8426604,-0.251526,-10.6936655,2.2332458,182.70001,-122.100006,-10.5,,,,x,,
823467,-6.3564653,13.47317,-7.424749,1.455802,-7.759196,3.384168,177.90001,-110.100006,-5.7000003,,,,x,,
823487,-3.865798,15.260422,-6.7757635,-0.221038,-14.108322,5.853696,173.1,-131.70001,-9.3,,,,x,,
823507,-5.425755,15.292123,-4.405921,-1.493912,-12.08087,3.140264,170.70001,-124.50001,-12.3,,,,x,,
823527,-6.5191603,14.58153,-7.8171306,0.769822,-1.272874,3.2927039,182.70001,-119.700005,-11.700001,,,,x,,
823547,-3.9860249,15.005612,-10.255161,0.861286,-8.6814575,4.83997,170.70001,-126.9,-15.900001,,,,x,,
823571,-3.761123,13.9134035,-5.129674,-1.8750119,-17.126633,4.657042,170.70001,-136.5,-18.300001,,,,x,,
823591,-4.8042846,13.582032,-6.233846,-0.243904,-6.21193,4.275942,170.70001,-134.1,-15.900001,,,,x,,
823611,-3.965688,13.70525,-9.449463,1.958854,-1.1356779,5.5640597,168.3,-138.90001,-21.900002,,,,x,,
823631,-2.3788147,13.942713,-10.518344,1.310984,-8.178406,6.577786,151.5,-141.3,-21.900002,,,,x,,
823651,-2.3961608,13.781813,-8.00435,-2.042696,-14.13881,7.3780956,163.5,-143.70001,-16.5,,,,x,,
823671,-1.6568561,13.850598,-6.820026,-1.730194,-8.7653,7.385718,141.90001,-153.3,-16.5,,,,x,,
823691,-1.2794278,13.2381,-7.6209397,-1.8750119,-4.4664917,5.9680257,144.3,-146.1,-22.5,,,,x,,
823735,-0.69504213,11.606366,-7.479778,-1.966476,-3.3155699,4.908568,127.50001,-162.90001,-18.300001,,,,x,,
823755,-0.11544159,11.455634,-6.7141547,-2.7362978,-2.903982,5.076252,139.5,-150.90001,-22.5,,,,x,,
823795,-0.5640488,9.109119,-6.154891,-1.272874,0.449698,2.355198,117.9,-155.70001,-18.300001,,,,x,,
823816,-0.078954875,7.927787,-6.2266684,-0.846042,2.09605,3.3155699,110.700005,-158.1,-21.900002,,,,x,,
823836,0.65317214,8.450563,-5.6715918,-1.814036,2.164648,5.75461,122.700005,-162.90001,-27.900002,,,,x,,
823858,0.75126755,7.5449753,-4.464539,-1.6311079,3.917708,3.894842,105.9,-153.3,-21.900002,,,,x,,
823878,1.1597992,6.0352626,-3.598428,-0.68597996,4.314052,1.6082419,103.50001,-162.90001,-28.500002,,,,x,,
823918,1.3266811,4.37721,-2.7598317,0.160062,7.3476076,1.242386,108.3,-170.1,-18.900002,,,,x,,
823938,1.6706133,4.347303,-2.4164977,0.07622,7.118948,1.48629,93.9,-158.1,-27.300001,,,,x,,
823978,1.9284129,3.8849387,-1.238754,-0.20579399,6.714982,1.707328,101.100006,-165.3,-15.900001,,,,x,,
823998,2.0067697,4.0518203,-0.9241309,-0.358234,6.814068,1.272874,89.100006,-165.3,-32.100002,,,,x,,
824038,2.229877,4.1684585,-0.38221335,0.55640596,6.6006517,-0.160062,91.5,-174.90001,-17.7,,,,x,,
824060,2.2783265,4.690637,-0.16090046,0.47256398,7.27901,-1.059458,96.3,-160.5,-21.900002,,,,,,
824080,1.8841504,5.2110214,-0.53892684,0.617382,7.942124,-2.332332,108.3,-167.70001,-18.300001,,,,,,
824100,1.564742,5.06328,-0.80270785,0.746956,7.5000477,-2.7591639,103.50001,-165.3,-17.1,,,,,,
824160,0.6932477,7.8410563,-1.3296719,1.6387299,4.169234,-0.53354,98.700005,-170.1,-13.500001,,,,,,
824223,0.16269489,8.589334,-1.3559902,-2.050318,5.6097918,-2.522882,89.100006,-170.1,-10.5,,,,,,
824282,0.44322395,9.362134,-1.6419024,-1.150922,1.539644,-0.129574,98.700005,-162.90001,-16.5,,,,,,
824302,0.3343619,8.881825,-1.873982,-0.625004,0.129574,-0.259148,105.9,-160.5,-18.300001,,,,,,
824342,0.8643166,9.289161,-1.6724077,-0.388722,-1.013726,0.868908,108.3,-167.70001,-17.7,,,,,,
824382,0.97616935,9.518847,-2.049836,-0.739334,-0.655492,-0.07622,98.700005,-167.70001,-14.700001,,,,,,
824523,1.108359,8.795692,-2.6832693,-0.015244,-0.015244,0.20579399,98.700005,-172.5,-20.7,,,,,,
824583,1.0844332,8.838758,-2.9356856,0.07622,-0.33536798,-0.26677,84.3,-155.70001,-19.5,,,,,,
824642,1.0383762,9.226356,-2.928508,-0.07622,-0.213416,0.26677,86.700005,-174.90001,-12.3,,,,,,
824662,1.187912,9.580456,-2.828618,-0.068598,-0.40396598,0.259148,86.700005,-155.70001,-17.1,,,,,,
824704,1.1364716,9.228748,-2.460162,-0.541162,-0.40396598,0.274392,98.700005,-170.1,-15.900001,,,,,,
824821,0.95702875,9.069642,-2.5612483,-0.251526,-0.487808,-0.182928,98.700005,-165.3,-18.300001,,,,,,
824885,0.96121573,9.1838875,-2.6073053,-0.11432999,-0.57164997,0.602138,98.700005,-165.3,-15.3,,,,,,
824905,1.0258152,9.033753,-2.4996395,-0.160062,-0.503052,0.53354,103.50001,-167.70001,-15.3,,,,,,
824926,1.2160246,9.2269535,-2.4649472,0.007622,-0.41158798,0.46494198,89.100006,-162.90001,-23.1,,,,x,,
824946,1.159201,9.036146,-2.564837,-0.07622,-0.221038,-0.022866,91.5,-162.90001,-17.7,,,,x,,
824966,1.108957,8.9679575,-2.5791924,0.144818,-0.312502,-0.129574,108.3,-170.1,-14.700001,,,,x,,
824989,1.2249968,9.004444,-2.5558648,0.19055,-0.40396598,-0.099086,79.5,-158.1,-17.7,,,,x,,
825013,1.1149385,8.915919,-2.6055107,0.091464,-0.434454,-0.17530599,96.3,-172.5,-12.3,,,,x,,
825073,1.6353229,9.291553,-2.920732,-0.426832,0.015244,-0.22865999,96.3,-162.90001,-17.1,,,,x,,
825141,2.7251394,8.180203,-5.061486,-0.579272,1.089946,-1.554888,86.700005,-158.1,-20.7,,,,x,,
825245,3.916042,6.622639,-2.8058887,-2.09605,2.088428,-2.949714,108.3,-158.1,-18.300001,,,,x,,
825265,3.5589507,4.9394646,-1.7627274,-2.2103798,2.538126,-4.596066,98.700005,-160.5,-20.7,,,,x,,
825309,3.5481842,3.8765645,-0.4928698,0.007622,7.73633,-2.949714,117.9,-170.1,-17.7,,,,x,,
825329,2.9105637,4.572803,-0.5359361,0.259148,9.41317,-4.0320377,113.100006,-170.1,-15.3,,,,x,,
825349,2.4272642,4.2940683,-0.4175038,0.426832,9.725672,-5.853696,115.50001,-153.3,-14.700001,,,,x,,
825409,-0.4133168,4.751648,-0.9994969,2.980202,8.513774,-8.559505,134.70001,-141.3,-13.500001,,,,x,,
825429,-1.5001426,5.234947,-1.0587131,3.971062,3.955818,-8.856764,144.3,-143.70001,-12.900001,,,,x,,
825451,-2.243036,6.117208,-0.059814297,3.917708,-0.327746,-6.227174,139.5,-153.3,-14.1,,,,x,,
825471,-2.1389592,8.732887,0.6764997,1.699706,-1.059458,-4.390272,151.5,-141.3,-13.500001,,,,x,,
825491,-2.9841354,9.030763,1.3272792,0.060976,-0.22865999,-8.208894,165.90001,-138.90001,-9.3,,,,x,,
825515,-4.9418573,7.566509,-0.0029907147,1.8978779,1.3719599,-9.001582,165.90001,-131.70001,-15.3,,,,x,,
825535,-5.3031354,9.061268,0.49586052,0.426832,-2.7210538,-5.121984,173.1,-134.1,-3.9,,,,x,,
825595,-6.90257,9.351367,-1.3697474,2.576236,-1.425314,-1.1356779,189.90001,-122.100006,-3.3000002,,,,x,,
825618,-4.4914556,13.038321,-1.6658282,2.012208,-6.295772,2.599102,187.5,-122.100006,-5.7000003,,,,x,,
825638,-4.957409,14.015088,-0.9935155,1.173788,-6.219552,0.20579399,175.5,-119.700005,-11.1,,,,x,,
825658,-6.6250315,12.022076,-2.4697323,0.70122397,-5.061008,-1.56251,182.70001,-117.3,-9.3,,,,x,,
825678,-6.605293,11.301313,-2.7101858,1.1128119,-8.26987,0.56402797,187.5,-122.100006,-6.9,,,,x,,
825698,-6.234444,13.588612,-3.0469403,1.669218,-9.009204,3.2545938,192.3,-124.50001,-9.3,,,,x,,
825718,-6.041244,13.88888,-3.49794,0.28201398,-9.1463995,2.964958,187.5,-138.90001,-9.3,,,,x,,
825738,-5.2816024,13.647828,-3.5637357,0.373478,-9.26073,2.957336,182.70001,-126.9,-14.700001,,,,x,,
825758,-8.135343,12.70037,-4.9603996,1.463424,-4.9009457,1.98172,180.3,-126.9,-15.3,,,,x,,
825778,-6.2075276,14.209484,-8.424844,5.0076537,-3.071666,7.400962,180.3,-129.3,-21.900002,,,,x,,
825798,-2.9853315,16.712114,-7.701689,-0.594516,-15.35833,7.324742,165.90001,-129.3,-11.700001,,,,x,,
825880,-4.5877566,14.028247,-7.2805963,-0.007622,-8.910118,3.003068,163.5,-150.90001,-16.5,,,,x,,
825900,-4.4543705,13.245278,-8.259756,2.301844,-7.0046177,4.146368,161.1,-138.90001,-17.7,,,,x,,
825920,-3.017033,14.446349,-8.578567,0.320124,-9.07018,7.324742,163.5,-148.5,-22.5,,,,x,,
825960,-2.551678,13.763868,-7.068854,0.030488,-6.646384,4.893324,146.70001,-155.70001,-17.1,,,,x,,
826043,-0.95523435,10.908334,-5.975448,-1.6539739,-5.556438,4.679908,129.90001,-148.5,-27.300001,,,,x,,
826083,0.29608077,10.704367,-6.38398,-1.1051899,-0.33536798,6.128088,125.100006,-158.1,-22.5,,,,x,,
826103,0.08673073,10.002147,-6.48387,-0.137196,0.92226195,4.314052,117.9,-155.70001,-29.7,,,,x,,
826146,1.4983481,8.938648,-5.585459,-1.18141,1.8521459,5.015276,110.700005,-160.5,-21.300001,,,,x,,
826186,1.8099806,6.6411815,-4.874865,0.594516,2.2256238,1.006104,86.700005,-165.3,-22.5,,,,x,,
826324,1.3356533,3.9561176,-1.3206997,-0.769822,6.9283977,-1.310984,96.3,-165.3,-23.1,,,,x,,
826344,1.1747528,3.3519933,-0.2697625,-1.1432999,6.158576,-1.18141,96.3,-172.5,-24.900002,,,,x,,
826385,1.8811597,3.865798,0.22908875,0.007622,9.283596,-0.53354,91.5,-165.3,-14.700001,,,,x,,
826425,1.9708811,5.0668693,0.37264308,1.196654,8.224138,-1.8826339,93.9,-165.3,-20.7,,,,,,
826445,2.271747,5.232555,0.6591536,0.92988396,8.178406,-1.8445239,93.9,-162.90001,-23.7,,,,,,
826465,2.7113822,7.420562,0.32897863,1.3795819,8.353712,-0.80793196,93.9,-167.70001,-19.5,,,,,,
826505,0.59694666,8.493032,-1.1059663,0.503052,8.490908,-3.16313,93.9,-162.90001,-15.900001,,,,,,
826529,0.24284604,8.869264,-1.4875816,0.95274997,5.807964,-2.40093,103.50001,-170.1,-15.900001,,,,,,
826549,-0.22729433,9.69171,-1.9439646,0.99086,4.984788,-1.821658,98.700005,-155.70001,-17.7,,,,,,
826589,-0.840989,9.878331,-3.1396525,0.007622,0.26677,-0.861286,105.9,-155.70001,-12.3,,,,,,
826624,-0.22370547,9.512866,-2.6892507,-0.3811,-1.471046,-0.373478,98.700005,-162.90001,-15.900001,,,,,,
826686,0.11544159,9.310694,-2.250812,-1.082324,-0.884152,-0.739334,96.3,-160.5,-17.7,,,,,,
826726,0.48210323,8.138931,-1.7597367,-0.160062,-1.211898,-0.251526,105.9,-162.90001,-14.700001,,,,,,
826766,0.7596416,8.874647,-2.2896912,-0.45731997,0.137196,0.785066,101.100006,-153.3,-17.7,,,,,,
826946,1.033591,9.028968,-2.5337336,-0.53354,-0.015244,-0.07622,98.700005,-165.3,-20.1,,,,,,
827184,1.0981905,9.252673,-2.6874564,-0.19055,-0.480186,-0.28201398,105.9,-170.1,-11.1,,,,,,
827224,1.0006932,8.537892,-3.0852215,-0.11432999,-0.289636,-0.55640596,110.700005,-148.5,-9.3,,,,,,
827244,1.3326626,8.6006975,-2.9799483,0.0,-0.40396598,-0.144818,98.700005,-158.1,-14.700001,,,,,,
827284,1.6430987,7.9122353,-3.5260527,-0.442076,1.699706,-0.967994,93.9,-150.90001,-12.900001,,,,,,
827343,3.296366,6.9217105,-4.1594863,0.434454,1.173788,-1.1128119,103.50001,-155.70001,-19.5,,,,,,
827363,3.8059838,6.175228,-3.8083763,1.013726,0.503052,-0.99086,115.50001,-158.1,-11.1,,,,,,
827406,3.7497582,4.4113045,-2.0229194,0.022866,1.661596,-2.85825,110.700005,-158.1,-15.3,,,,x,,
827426,3.55596,3.430948,-1.0922091,0.007622,1.8750119,-3.102154,108.3,-158.1,-12.3,,,,x,,
827446,3.4130037,2.9608078,0.1016843,-0.792688,2.949714,-2.987824,110.700005,-167.70001,-12.3,,,,x,,
827466,3.1241007,2.9679854,0.2853142,-0.94512796,6.112844,-3.147886,115.50001,-158.1,-18.300001,,,,x,,
827509,1.0575168,1.422384,0.3869985,1.06708,7.804928,-4.809482,125.100006,-143.70001,-11.700001,,,,x,,
827529,0.03229972,2.5241632,0.13039517,3.025934,8.201272,-3.7805119,127.50001,-158.1,-6.9,,,,x,,
827549,-0.6477888,4.504615,-0.69504213,4.123502,7.3171196,-2.446662,115.50001,-150.90001,-9.900001,,,,x,,
827569,0.13757288,7.509087,-0.038879294,3.574718,4.23021,-0.57164997,115.50001,-150.90001,-17.7,,,,x,,
827589,-0.29009935,9.289759,1.1023775,1.310984,3.92533,-3.445144,127.50001,-158.1,-5.7000003,,,,x,,
827609,-3.2616737,7.6191454,0.24523862,2.431418,6.8826656,-8.940606,120.3,-150.90001,-4.5,,,,x,,
827629,-4.078737,8.701784,-1.7136797,2.7820299,5.60217,-7.0351057,139.5,-150.90001,-6.3,,,,x,,
827691,-3.8293114,12.124956,-2.2095401,0.69360197,-3.155508,-3.445144,146.70001,-141.3,-5.7000003,,,,x,,
827713,-5.6709933,10.931063,-2.5014338,-0.358234,-3.155508,-4.474114,153.90001,-129.3,-2.7,,,,x,,
827733,-6.0352626,10.889791,-3.4919586,0.129574,-4.672286,-3.1936178,151.5,-138.90001,-5.7000003,,,,x,,
827753,-3.924416,12.341484,-3.2975621,1.097568,-8.971094,0.0,165.90001,-141.3,-12.3,,,,x,,
827795,-4.204347,14.1723995,-4.1995616,-0.17530599,-9.199754,0.746956,158.70001,-131.70001,-6.3,,,,x,,
827825,-7.8464394,11.331221,-3.898696,-0.518296,-5.67839,-1.242386,158.70001,-136.5,-14.700001,,,,x,,
827845,-6.316988,13.272195,-7.3607473,3.551852,-3.330814,5.647902,158.70001,-129.3,-11.700001,,,,x,,
827887,-4.7815547,13.982788,-3.660635,-1.547266,-12.23331,0.053354,168.3,-138.90001,-14.700001,,,,x,,
827927,-2.9171433,15.506857,-8.819618,0.92988396,-10.465006,7.4238276,158.70001,-131.70001,-9.3,,,,x,,
827947,-2.3907773,16.646318,-5.845651,-1.509156,-13.879662,4.809482,153.90001,-134.1,-17.1,,,,x,,
827967,-3.28859,15.121055,-7.0891905,1.1432999,-6.951264,2.2713559,144.3,-136.5,-12.3,,,,x,,
828007,-1.4247766,15.713814,-10.070335,1.692084,-7.4390717,7.1113257,149.1,-158.1,-17.1,,,,x,,
828027,-1.192697,16.952568,-7.9008703,-1.554888,-11.410133,5.22107,134.70001,-148.5,-15.3,,,,x,,
828047,-1.5497885,14.210083,-7.6035933,-0.297258,-5.243936,1.9054999,141.90001,-155.70001,-18.900002,,,,x,,
828067,-1.158603,12.169817,-9.186279,1.570132,-0.503052,3.338436,129.90001,-153.3,-19.5,,,,x,,
828087,-0.29189378,12.520926,-9.917809,0.884152,-3.1936178,6.9131536,146.70001,-148.5,-17.1,,,,x,,
828107,0.803306,13.878113,-8.046818,-1.189032,-7.92688,7.263766,132.3,-160.5,-17.7,,,,x,,
828127,0.891233,12.447953,-6.333138,-1.8673899,-4.009172,3.7957559,122.700005,-158.1,-23.1,,,,x,,
828149,0.39836323,10.495016,-7.5437794,-0.95274997,1.684462,3.064044,108.3,-148.5,-22.5,,,,x,,
828169,1.1095552,10.434006,-7.839262,-1.074702,-0.518296,4.817104,101.100006,-165.3,-18.300001,,,,x,,
828191,1.0617038,10.288657,-5.885727,-2.157026,-2.614346,3.8186219,108.3,-150.90001,-19.5,,,,x,,
828211,0.93071043,8.563613,-5.166759,-2.919226,1.71495,2.111294,96.3,-162.90001,-21.300001,,,,x,,
828231,0.711192,7.492937,-5.706284,-3.2164838,3.650938,3.01069,115.50001,-153.3,-18.900002,,,,x,,
828251,0.9468603,7.4169726,-5.6249366,-2.987824,2.7362978,3.6661818,103.50001,-174.90001,-25.500002,,,,x,,
828271,1.790242,7.601201,-4.413697,-2.530504,0.312502,3.8109999,101.100006,-162.90001,-15.3,,,,x,,
828291,2.2412417,7.1478086,-3.1217082,-3.003068,0.327746,2.446662,86.700005,-165.3,-22.5,,,,x,,
828311,2.1503239,6.2272663,-2.3309631,-2.827762,3.414656,1.547266,86.700005,-158.1,-17.7,,,,x,,
828335,1.8727857,5.5723,-2.5947442,-1.9054999,5.8613176,1.6006199,101.100006,-165.3,-24.300001,,,,x,,
828355,1.5384238,5.5035133,-2.0773506,-1.501534,5.25918,1.3872039,98.700005,-158.1,-20.1,,,,x,,
828375,1.6173786,5.6333103,-1.4983481,-1.280496,4.5884438,1.173788,93.9,-172.5,-23.7,,,,x,,
828395,1.5653402,5.593235,-0.74408984,-1.8673899,4.809482,0.3811,89.100006,-162.90001,-25.500002,,,,x,,
828419,1.7226517,5.3791,-0.8362039,-1.67684,7.256144,0.0,74.700005,-170.1,-17.7,,,,x,,
828439,1.4821982,5.297154,-1.2584928,-0.99086,8.102186,0.137196,79.5,-165.3,-14.1,,,,x,,
828459,0.58318937,4.413697,-1.0611056,-0.541162,7.728708,-0.35061198,91.5,-174.90001,-33.300003,,,,x,,
828479,1.5384238,5.5836644,-0.82424104,0.41158798,7.446694,1.6387299,77.100006,-165.3,-20.1,,,,x,,
828499,1.2220061,5.6668067,-0.47971067,-0.792688,7.8582816,0.26677,84.3,-172.5,-18.900002,,,,x,,
828519,1.1807343,5.1183095,-0.84697044,-0.541162,8.818654,-0.274392,86.700005,-167.70001,-19.5,,,,x,,
828539,1.0090672,5.319884,-0.80809116,-0.106708,7.667732,-0.41158798,84.3,-182.1,-26.1,,,,x,,
828601,2.0617988,7.271026,-0.39836323,0.358234,3.346058,-1.204276,77.100006,-170.1,-14.700001,,,,x,,
828621,2.2406435,7.610771,-0.34991363,0.083841994,2.911604,-2.2408679,81.9,-153.3,-18.300001,,,,x,,
828641,2.0480416,7.9558997,-0.52696395,0.35061198,2.088428,-3.003068,89.100006,-167.70001,-15.900001,,,,x,,
828661,1.5222739,7.525835,-0.5508897,0.57164997,0.87653,-3.8033779,84.3,-165.3,-17.7,,,,x,,
828682,1.7352128,8.100052,-0.3505118,0.967994,-0.26677,-2.568614,89.100006,-170.1,-11.1,,,,x,,
828702,1.6586505,8.837563,-0.19678904,0.274392,0.28201398,-2.2103798,101.100006,-165.3,-20.7,,,,x,,
828722,1.0694796,9.651635,-1.0886202,-0.243904,1.4024479,-1.699706,91.5,-162.90001,-15.3,,,,x,,
828742,0.5861801,9.704869,-1.8171583,-0.67073596,1.318606,-2.538126,103.50001,-158.1,-18.300001,,,,x,,
828762,0.3074455,9.53081,-2.2412417,0.259148,0.426832,-2.621968,89.100006,-165.3,-15.900001,,,,,,
828782,0.39716694,9.65642,-2.3034487,0.830798,-0.69360197,-2.2256238,96.3,-160.5,-18.300001,,,,,,
828802,0.4533924,9.869957,-2.3046448,0.655492,-1.1280559,-1.79117,105.9,-162.90001,-20.1,,,,,,
828822,0.702818,9.841247,-2.2119327,0.40396598,-1.18141,-1.501534,98.700005,-162.90001,-20.7,,,,,,
828842,0.5257677,9.252075,-2.024714,-0.137196,-0.899396,-1.699706,115.50001,-153.3,-17.1,,,,,,
828925,0.18063918,8.9242935,-2.0851264,0.434454,-1.272874,-0.07622,108.3,-167.70001,-15.900001,,,,,,
829023,0.4509998,9.325647,-2.8328052,0.82317597,-0.602138,0.769822,113.100006,-165.3,-18.300001,,,,,,
829045,0.5801987,9.443481,-3.0050702,1.021348,-0.510674,0.632626,96.3,-170.1,-18.900002,,,,,,
829085,0.5610581,9.214393,-3.0481365,0.625004,-0.830798,0.068598,113.100006,-153.3,-18.300001,,,,,,
829105,0.6896588,9.240711,-2.9943037,0.47256398,-0.861286,0.106708,113.100006,-160.5,-13.500001,,,,,,
829125,0.9002052,9.55653,-3.0852215,0.26677,-0.777444,0.068598,110.700005,-158.1,-12.900001,,,,,,
829145,0.8607277,9.174915,-3.0248091,-0.053354,-0.632626,-0.365856,113.100006,-160.5,-12.3,,,,,,
829165,0.8972145,8.954799,-2.865105,-0.144818,-0.632626,-0.17530599,105.9,-153.3,-15.3,,,,,,
829225,0.88704604,9.20243,-3.0152388,-0.053354,-0.3811,0.289636,105.9,-165.3,-16.5,,,,,,
829263,0.7961283,9.031361,-2.9649947,-0.365856,-0.259148,-0.45731997,108.3,-162.90001,-15.3,,,,,,
829283,0.8092874,8.779543,-2.9051805,-0.28201398,-0.26677,-0.49543,110.700005,-153.3,-21.300001,,,,,,
829325,0.6705183,9.031361,-2.9655929,0.07622,-0.320124,-0.053354,113.100006,-158.1,-20.7,,,,,,
829348,0.832615,9.27002,-2.8854418,-0.07622,-0.541162,-0.640248,108.3,-158.1,-21.300001,,,,,,
829389,0.7805766,8.90934,-2.941069,-0.312502,-0.23628199,-0.853664,101.100006,-153.3,-11.1,,,,x,,
829430,0.8882423,8.65154,-2.9147508,-0.16768399,-0.03811,-0.518296,110.700005,-160.5,-18.300001,,,,x,,
829561,2.5122006,7.98162,-3.1187174,0.083841994,2.446662,-2.2256238,117.9,-155.70001,-9.900001,,,,x,,
829621,2.7472706,5.86539,-2.3166077,-0.396344,4.138746,-3.864354,125.100006,-146.1,-12.3,,,,x,,
829641,2.6288383,5.112328,-2.1024725,-0.312502,4.580822,-4.756128,134.70001,-146.1,-22.5,,,,x,,
829682,2.2023625,3.3089268,-1.4253747,0.28201398,5.198204,-5.853696,127.50001,-148.5,-12.3,,,,x,,
829702,2.2980652,3.2730384,-0.86611104,0.442076,5.152472,-5.647902,132.3,-155.70001,-17.1,,,,x,,
829722,2.263971,3.9674823,-0.3050529,0.053354,5.3811316,-5.129606,129.90001,-148.5,-9.3,,,,x,,
829743,1.4361413,3.9190328,-0.2865105,-1.1128119,6.661628,-6.128088,137.1,-150.90001,-12.900001,,,,x,,
829764,-0.09630102,1.8859448,0.10946016,-0.853664,5.663146,-7.042728,144.3,-153.3,-11.700001,,,,x,,
829784,0.3397452,3.0983806,0.69564027,0.160062,3.422278,-3.490876,153.90001,-148.5,-8.700001,,,,x,,
829804,-1.3027554,4.410108,1.1819305,-1.173788,3.521364,-3.46801,146.70001,-138.90001,-11.700001,,,,x,,
829824,-3.0660808,6.585554,-0.6573591,0.884152,3.147886,-2.59148,153.90001,-129.3,-6.9,,,,x,,
829844,-2.6796806,7.627519,0.27454764,0.045732,-0.82317597,-2.05794,161.1,-134.1,-9.3,,,,x,,
829866,-3.8729758,9.262244,-0.3660635,0.28201398,1.8978779,-1.570132,165.90001,-138.90001,-16.5,,,,x,,
829928,-5.7553315,9.719225,-2.0546212,2.317088,-3.2469718,-1.3948259,158.70001,-129.3,-18.300001,,,,x,,
829948,-4.9442496,12.268511,-2.5594537,1.8826339,-4.123502,1.8673899,168.3,-126.9,-12.3,,,,x,,
829968,-4.094289,13.748915,-1.5444051,0.41921,-6.0747337,1.25763,149.1,-129.3,-9.3,,,,x,,
829988,-5.4078107,11.315669,-2.2729433,1.1356779,-2.865872,-1.3414719,173.1,-126.9,-13.500001,,,,x,,
830008,-6.3947463,12.03045,-4.042848,2.637212,-3.003068,0.899396,161.1,-124.50001,-9.900001,,,,x,,
830028,-4.8288083,13.716615,-4.2318616,1.722572,-7.759196,2.522882,156.3,-136.5,-9.3,,,,x,,
830048,-4.221095,14.018079,-3.7354028,1.41007,-7.881148,2.042696,153.90001,-134.1,-10.5,,,,x,,
830068,-4.582373,13.730371,-4.4663334,1.3414719,-7.4543157,1.8369019,168.3,-136.5,-15.3,,,,x,,
830092,-4.376612,12.933645,-4.2390394,0.708846,-8.559505,1.6158639,161.1,-131.70001,-11.700001,,,,x,,
830112,-5.7547336,11.762482,-4.8174434,0.94512796,-5.701256,1.204276,163.5,-136.5,-14.700001,,,,x,,
830132,-4.877258,13.442665,-6.9390564,3.323192,-4.580822,4.740884,158.70001,-131.70001,-8.700001,,,,x,,
830152,-3.2628698,14.942808,-6.8218207,0.884152,-10.152504,4.4817357,165.90001,-136.5,-7.5000005,,,,x,,
830175,-4.0129414,13.171706,-7.3320365,2.8048959,-5.94516,3.6738038,156.3,-138.90001,-13.500001,,,,x,,
830196,-3.6684108,14.505566,-9.132447,2.980202,-5.091496,6.9588857,163.5,-143.70001,-12.3,,,,x,,
830217,-1.6185749,16.074493,-9.037342,-0.480186,-9.931466,6.692116,134.70001,-141.3,-16.5,,,,x,,
830237,-2.4129088,14.710729,-7.5300217,-0.92226195,-11.387268,3.2927039,146.70001,-138.90001,-17.1,,,,x,,
830257,-2.7394948,13.954078,-8.286075,-0.23628199,-7.6372437,3.7424018,151.5,-134.1,-20.1,,,,x,,
830278,-1.506124,14.649717,-9.280189,-0.632626,-8.025966,5.625036,129.90001,-150.90001,-16.5,,,,x,,
830300,-1.0814425,14.750804,-7.785429,-2.423796,-12.248553,4.664664,134.70001,-158.1,-15.3,,,,x,,
830320,-1.522872,13.783607,-6.6298165,-2.446662,-9.878112,4.108258,134.70001,-146.1,-17.1,,,,x,,
830340,-1.8937206,12.308586,-7.5694995,-2.332332,-4.260698,4.61131,122.700005,-150.90001,-20.1,,,,x,,
830360,-0.3911855,12.647733,-8.279495,-2.301844,-5.846074,6.654006,120.3,-150.90001,-21.300001,,,,x,,
830380,0.1501339,12.697977,-6.7518377,-3.567096,-7.8582816,6.608274,127.50001,-150.90001,-26.7,,,,x,,
830400,0.12919888,11.151777,-6.6154613,-3.528986,-4.176856,5.198204,132.3,-153.3,-26.7,,,,x,,
830488,1.075461,8.67427,-5.3527813,-4.4512477,0.259148,4.504602,105.9,-162.90001,-26.1,,,,x,,
830608,1.3195034,5.3916607,-1.1705658,-1.48629,3.902464,1.44818,91.5,-174.90001,-27.300001,,,,x,,
830646,0.8924293,4.9603996,-1.1687714,-1.158544,6.9283977,1.745438,79.5,-174.90001,-32.100002,,,,x,,
830666,1.0036839,4.8993893,-0.8110819,-0.160062,7.2409,1.8978779,81.9,-162.90001,-26.1,,,,x,,
830686,1.4594688,5.5328226,-0.5544785,0.57164997,7.865904,1.8978779,81.9,-155.70001,-30.300001,,,,x,,
830750,1.238754,5.267247,-0.3158195,2.17227,8.338468,0.93750596,67.5,-170.1,-23.7,,,,x,,
830770,1.359579,6.1931725,-0.16329303,1.3567159,8.391822,0.60976,72.3,-167.70001,-27.900002,,,,x,,
830794,1.3452235,5.7003026,-0.32180092,0.899396,9.016826,-0.57164997,69.9,-162.90001,-26.1,,,,x,,
830835,1.03718,5.259471,-0.3828115,1.29574,7.8277936,-1.8445239,77.100006,-170.1,-30.300001,,,,x,,
830878,1.627547,7.701091,-0.715379,1.196654,6.760714,-0.548784,77.100006,-174.90001,-14.700001,,,,x,,
830898,1.0234226,8.237625,-0.6669294,1.318606,5.304912,-1.425314,77.100006,-174.90001,-29.1,,,,x,,
830960,0.8882423,8.991883,-0.64180744,-1.227142,2.309466,-3.513742,77.100006,-162.90001,-23.1,,,,x,,
831000,-0.004187001,9.066053,-1.5629476,0.259148,0.861286,-1.21952,96.3,-165.3,-17.7,,,,x,,
831020,0.014355431,9.683935,-1.794429,0.525918,-0.251526,-0.518296,93.9,-165.3,-17.7,,,,x,,
831063,0.67709786,9.573876,-1.7292314,0.060976,-1.44818,-0.99086,84.3,-174.90001,-21.300001,,,,,,
831123,0.8738869,9.106129,-2.3243835,0.586894,-0.72409,-1.013726,91.5,-153.3,-20.7,,,,,,
831143,1.3021573,8.52892,-2.0600045,0.373478,-0.708846,-0.785066,86.700005,-172.5,-20.1,,,,,,
831163,1.0904146,8.782534,-2.6007257,0.19055,0.327746,0.87653,91.5,-167.70001,-23.7,,,,,,
831203,1.3003628,8.93805,-2.46076,0.777444,-0.33536798,1.166166,86.700005,-153.3,-22.5,,,,,,
831328,1.3924768,9.418958,-2.5672297,0.70122397,-0.121952,-0.426832,93.9,-165.3,-21.300001,,,,,,
831386,1.0910128,8.998463,-2.4757137,-0.34298998,-0.243904,-0.625004,91.5,-162.90001,-17.1,,,,,,
831544,0.7895487,8.984706,-2.681475,0.03811,-0.106708,0.068598,103.50001,-162.90001,-20.1,,,,,,
831563,0.84278345,9.509277,-2.8124683,0.144818,-0.41158798,0.45731997,93.9,-182.1,-15.3,,,,,,
831603,0.9354956,9.049305,-2.6168754,-0.57164997,-0.777444,0.632626,86.700005,-158.1,-18.900002,,,,,,
831623,0.9671972,9.048109,-2.5821831,-0.548784,-0.81555396,0.663114,84.3,-162.90001,-9.3,,,,,,
831666,1.3326626,9.4105835,-2.4493954,-0.251526,-0.884152,0.579272,96.3,-167.70001,-16.5,,,,,,
831727,1.2088469,8.871058,-2.560052,-0.068598,-0.41921,0.243904,91.5,-167.70001,-17.1,,,,,,
831804,1.8955151,9.057081,-2.8082812,-0.769822,0.312502,0.07622,96.3,-172.5,-18.900002,,,,,,
831844,3.296366,9.137232,-3.0738568,-2.507638,2.446662,-0.510674,84.3,-167.70001,-16.5,,,,x,,
831864,3.3400304,8.083902,-3.6032133,-3.84911,6.17382,-2.469528,81.9,-165.3,-18.900002,,,,x,,
831907,3.1851113,3.6402981,-6.564021,1.18141,7.9040136,-4.054904,96.3,-150.90001,-23.7,,,,x,,
831927,5.1565905,7.389458,-5.977243,-0.3811,2.7667859,0.861286,98.700005,-153.3,-21.900002,,,,x,,
831947,5.6709933,8.853712,-4.393958,-1.730194,3.833866,-2.583858,91.5,-155.70001,-18.300001,,,,x,,
831967,5.1685534,7.049713,-4.3921638,-1.6539739,7.553402,-6.9893737,105.9,-165.3,-20.1,,,,x,,
832027,2.8022997,3.091801,-0.43245736,-1.8826339,5.731744,-9.550365,108.3,-162.90001,-23.1,,,,x,,
832047,2.0426583,3.777871,0.43903694,-2.2256238,9.405548,-9.1463995,122.700005,-150.90001,-22.5,,,,x,,
832067,0.69264954,3.4937532,0.16568561,-1.318606,12.400993,-11.105254,139.5,-153.3,-17.7,,,,x,,
832087,-0.70461243,2.388983,0.0807493,1.1128119,11.044278,-10.93757,149.1,-148.5,-15.900001,,,,x,,
832107,-0.9211402,3.4243686,0.77220255,1.768304,6.699738,-8.551884,149.1,-153.3,-11.700001,,,,x,,
832130,-1.8057936,4.0249043,2.8058887,1.516778,3.559474,-7.69822,158.70001,-136.5,-17.7,,,,x,,
832154,-3.1354654,7.1095276,3.4171908,-0.28201398,7.477182,-7.461938,173.1,-129.3,-5.1000004,,,,x,,
832194,-5.2612658,4.740283,2.9769576,2.843006,1.471046,-10.655556,175.5,-124.50001,-11.1,,,,x,,
832214,-4.1684585,7.4911427,1.9750681,4.4055157,0.373478,-3.6814258,182.70001,-122.100006,-11.700001,,,,x,,
832234,-4.0643816,10.532102,2.4990413,2.995446,-2.080806,-1.8521459,182.70001,-126.9,-14.1,,,,x,,
832254,-4.768396,11.323444,2.0677803,3.414656,-2.050318,-3.597584,189.90001,-126.9,-3.9,,,,x,,
832314,-5.3288555,13.381655,-2.150922,4.26832,-7.66011,2.080806,194.70001,-117.3,-12.900001,,,,x,,
832444,-5.609983,12.95458,-3.882546,0.602138,-10.09915,1.9054999,209.1,-107.700005,-17.1,,,,x,,
832464,-8.103641,9.65642,-3.9351826,2.2027578,-7.43145,1.8978779,201.90001,-124.50001,-17.1,,,,x,,
832506,-4.6673098,12.775138,-4.7456665,1.3567159,-4.123502,4.4207597,197.1,-122.100006,-11.700001,,,,x,,
832527,-6.40013,11.068038,-6.7452583,5.312534,2.408552,4.237832,189.90001,-119.700005,-15.3,,,,x,,
832567,-3.0505292,14.744225,-6.3935504,0.68597996,-11.593061,7.0960817,163.5,-129.3,-14.700001,,,,x,,
832587,-4.120009,13.220156,-6.342708,2.903982,-5.8765616,3.574718,192.3,-124.50001,-21.900002,,,,x,,
832607,-3.747964,12.555021,-8.713747,5.015276,-1.189032,4.9619217,177.90001,-126.9,-13.500001,,,,x,,
832627,-1.7316239,14.501378,-9.626513,2.987824,-5.746988,7.5762677,165.90001,-131.70001,-12.900001,,,,x,,
832651,-3.3543859,13.419337,-8.430825,1.9054999,-6.920776,4.131124,168.3,-126.9,-11.700001,,,,x,,
832672,-1.8919262,13.53478,-9.879527,3.376546,-5.304912,6.0899777,156.3,-129.3,-15.3,,,,x,,
832692,-0.9390845,14.024658,-9.507483,-0.28201398,-9.275973,7.16468,175.5,-136.5,-15.900001,,,,x,,
832712,-1.0048802,13.516236,-8.044425,-1.783548,-9.801891,6.905532,149.1,-138.90001,-14.700001,,,,x,,
832734,-1.3625697,12.27509,-7.589836,-2.012208,-7.1265697,5.251558,158.70001,-148.5,-17.1,,,,x,,
832754,-0.48329952,11.965252,-8.019901,-1.6387299,-4.4817357,6.17382,149.1,-143.70001,-17.1,,,,x,,
832774,-0.36068022,12.173406,-7.1095276,-3.2469718,-5.5030837,5.960404,146.70001,-158.1,-17.1,,,,x,,
832794,-0.76622117,11.27021,-6.856513,-3.2850819,-4.146368,5.015276,134.70001,-160.5,-18.300001,,,,x,,
832814,0.10467502,10.604477,-7.0018616,-2.43904,-3.003068,5.800342,110.700005,-146.1,-24.900002,,,,x,,
832838,0.73571587,10.487839,-5.459251,-4.291186,-1.8445239,5.0228977,134.70001,-158.1,-20.7,,,,x,,
832858,0.66992015,9.399219,-5.7762666,-2.949714,1.196654,3.551852,122.700005,-148.5,-20.1,,,,x,,
832880,0.8840553,8.466714,-5.471812,-1.8369019,0.769822,2.942092,115.50001,-170.1,-16.5,,,,x,,
832962,0.73511773,6.2942586,-3.7306178,0.396344,4.83997,3.056422,113.100006,-172.5,-24.900002,,,,x,,
832988,1.2088469,5.551963,-2.4332457,0.22865999,4.428382,2.93447,108.3,-165.3,-22.5,,,,x,,
833008,1.2686613,5.44011,-1.949946,-0.72409,6.844556,2.621968,86.700005,-160.5,-20.1,,,,,,
833050,1.1526215,5.8378754,-2.041462,-1.1051899,7.789684,0.525918,86.700005,-167.70001,-23.1,,,,,,
833090,0.66513497,4.803088,-1.1789398,-0.94512796,6.242418,-0.34298998,98.700005,-162.90001,-21.300001,,,,,,
833163,0.8230447,5.564524,-0.72076225,-2.2103798,6.905532,-1.41007,101.100006,-170.1,-24.300001,,,,,,
833183,0.6495833,4.9729605,-0.5413194,-2.050318,6.410102,-1.806414,96.3,-148.5,-18.900002,,,,,,
833225,1.2435392,5.5830665,-0.61190027,-0.15244,4.679908,0.358234,101.100006,-170.1,-18.300001,,,,,,
833246,1.9660959,7.2309504,-0.93729,0.41158798,3.971062,0.777444,93.9,-160.5,-21.900002,,,,,,
833266,1.9726756,7.9218054,-1.0186375,0.373478,3.2164838,-0.586894,89.100006,-155.70001,-19.5,,,,,,
833286,1.7830642,7.7459517,-0.9630102,0.327746,2.2713559,-1.463424,79.5,-174.90001,-23.1,,,,,,
833306,1.8853467,7.983414,-0.6286483,0.19055,1.25763,-1.539644,96.3,-170.1,-16.5,,,,,,
833346,1.6353229,9.442285,-0.3618765,-0.68597996,1.3872039,-1.3643379,98.700005,-177.3,-17.1,,,,,,
833366,0.8344094,9.86577,-1.1161348,-0.861286,2.035074,-1.1356779,96.3,-160.5,-20.7,,,,,,
833386,0.24822934,9.304712,-1.4522911,-0.480186,0.846042,-1.1128119,98.700005,-167.70001,-16.5,,,,,,
833406,0.48808467,8.819618,-1.1107515,0.182928,-0.20579399,0.060976,79.5,-170.1,-24.300001,,,,,,
833428,0.5473008,9.455444,-1.6454914,0.091464,0.083841994,1.06708,89.100006,-162.90001,-19.5,,,,,,
833448,0.7554546,8.869863,-1.7651199,-0.221038,-0.213416,0.967994,89.100006,-160.5,-12.900001,,,,,,
833468,1.2710538,9.538586,-1.7938308,0.053354,-0.731712,1.707328,89.100006,-165.3,-26.1,,,,,,
833488,1.284213,9.540978,-2.3028505,-0.81555396,-0.160062,1.150922,93.9,-165.3,-21.300001,,,,,,
833508,1.4504967,9.137232,-2.6120903,-0.320124,-1.02897,0.72409,77.100006,-170.1,-12.3,,,,,,
833528,1.2925869,8.738869,-2.1610906,-0.068598,-2.2027578,0.731712,89.100006,-162.90001,-20.1,,,,,,
833548,1.7782791,9.703673,-1.999592,-0.022866,-1.958854,1.227142,84.3,-162.90001,-18.300001,,,,,,
833570,1.8608228,10.260545,-1.9050853,-0.442076,-1.173788,0.442076,93.9,-170.1,-14.1,,,,,,
833610,0.6388167,8.824403,-2.0300972,-0.41158798,-0.47256398,-1.3414719,93.9,-167.70001,-15.3,,,,,,
833641,0.57122654,8.1491,-1.8093824,-0.022866,-1.44818,-0.81555396,93.9,-172.5,-21.300001,,,,,,
833704,1.5707234,9.169532,-2.1557074,0.67073596,-1.303362,0.144818,98.700005,-165.3,-16.5,,,,,,
833762,1.6209675,8.4278345,-2.5050228,1.036592,-0.510674,-0.030488,86.700005,-160.5,-18.300001,,,,,,
833784,1.4624596,9.04751,-2.5026302,1.150922,-0.11432999,0.602138,98.700005,-179.70001,-24.900002,,,,,,
833824,1.3320644,9.844835,-2.8130665,0.541162,0.640248,-1.044214,86.700005,-174.90001,-15.900001,,,,,,
833866,0.50423455,8.488845,-3.0283978,0.67835796,0.594516,-2.309466,91.5,-162.90001,-14.700001,,,,,,
833886,0.47492552,9.404602,-2.9446578,0.434454,0.198172,-0.81555396,89.100006,-162.90001,-14.700001,,,,,,
833906,0.36785793,9.261047,-2.8441699,0.07622,0.213416,-1.150922,96.3,-167.70001,-21.300001,,,,,,
833946,0.30266035,8.933266,-2.8011036,-0.327746,-0.625004,-0.518296,93.9,-165.3,-14.700001,,,,,,
833969,0.42946666,8.9141245,-2.740093,0.33536798,-1.074702,0.3811,103.50001,-165.3,-15.900001,,,,,,
833989,0.61070395,9.2484865,-2.8017018,0.068598,-1.196654,0.853664,103.50001,-165.3,-15.3,,,,,,
834009,0.7315289,8.993678,-2.77,-0.243904,-1.3643379,1.089946,110.700005,-158.1,-18.300001,,,,,,
834029,1.1651825,9.206616,-2.6874564,-0.45731997,-1.6539739,1.3795819,93.9,-162.90001,-14.700001,,,,,,
834049,1.4917686,9.167737,-2.6007257,-0.87653,-1.6234859,1.18141,84.3,-172.5,-16.5,,,,,,
834069,1.5127035,9.243103,-2.3812072,-1.1204339,-1.9054999,0.625004,84.3,-165.3,-15.900001,,,,,,
834089,1.5420126,8.845937,-2.250812,-1.3414719,-1.821658,-0.182928,84.3,-170.1,-20.7,,,,,,
834131,1.4253747,8.710158,-2.7083914,-1.1432999,-0.87653,-0.426832,103.50001,-174.90001,-26.7,,,,,,
834153,1.7023149,8.912331,-2.915947,-0.99086,-0.708846,0.091464,103.50001,-158.1,-14.700001,,,,,,
834174,2.1616888,8.874647,-3.2102332,-1.6463519,0.33536798,0.19055,98.700005,-155.70001,-18.300001,,,,,,
834194,2.1521184,8.24241,-3.6253445,-1.3872039,1.98172,-0.182928,91.5,-162.90001,-17.7,,,,,,
834214,3.2317665,8.6114645,-5.108739,0.396344,4.38265,0.289636,101.100006,-165.3,-21.900002,,,,,,
834236,4.122401,8.401516,-5.715256,0.769822,3.643316,-0.92988396,96.3,-160.5,-14.1,,,,x,,
834256,4.6828613,7.9553013,-4.9843254,-0.03811,1.920744,-1.06708,96.3,-162.90001,-20.7,,,,x,,
834278,5.23734,7.8087564,-4.050026,-1.204276,3.7881339,-1.48629,93.9,-170.1,-17.1,,,,x,,
834298,5.0507193,7.12807,-3.2730384,-1.56251,7.225656,-3.841488,101.100006,-158.1,-17.7,,,,x,,
834318,4.8593135,6.885822,-2.8962083,-1.3872039,7.5457797,-4.733262,98.700005,-170.1,-17.1,,,,x,,
834339,4.1481214,5.484373,-1.7190629,-1.29574,8.170784,-7.172302,91.5,-167.70001,-18.900002,,,,x,,
834359,3.552371,3.9943988,-0.9229346,0.060976,9.382682,-8.1555395,103.50001,-158.1,-18.300001,,,,x,,
834380,3.0188277,3.9549212,0.65795726,0.297258,9.771403,-7.522914,122.700005,-155.70001,-12.900001,,,,x,,
834401,2.1664739,3.6821682,1.07905,0.15244,12.355262,-8.856764,132.3,-148.5,-12.900001,,,,x,,
834466,-0.40434465,2.1060615,0.80988556,2.7058098,9.1463995,-10.503116,144.3,-136.5,-15.900001,,,,x,,
834546,-2.7388966,6.408504,0.2296869,3.597584,3.7042918,-6.265284,149.1,-129.3,-6.9,,,,x,,
834586,-5.015429,7.5772753,0.21592961,3.7576458,-0.861286,-4.4817357,175.5,-119.700005,-12.3,,,,x,,
834662,-7.7286053,11.755902,-2.4170957,2.050318,-4.5274677,-3.064044,180.3,-119.700005,0.3,,,,x,,
834722,-8.884816,14.125745,-2.987126,0.434454,-10.487872,-1.722572,194.70001,-112.50001,-4.5,,,,x,,
834742,-8.710158,11.692499,-5.3497906,1.783548,-8.1250515,-0.327746,194.70001,-117.3,-9.900001,,,,x,,
834762,-6.3768024,13.101724,-4.0954847,0.82317597,-16.021444,2.995446,201.90001,-124.50001,-4.5,,,,x,,
834784,-6.849335,13.116079,-3.3442173,0.907018,-13.620514,2.065562,197.1,-119.700005,-12.900001,,,,x,,
834804,-7.5581346,13.123257,-5.5615335,2.164648,-9.542744,2.583858,206.70001,-119.700005,-5.1000004,,,,x,,
834824,-5.626731,12.979104,-6.0448327,1.661596,-14.4818,2.926848,206.70001,-117.3,-9.900001,,,,x,,
834844,-7.3523736,11.1380205,-4.212123,1.806414,-13.879662,2.484772,209.1,-114.9,-18.900002,,,,x,,
834906,-5.074645,12.434794,-7.1771173,0.716468,-15.000095,4.519846,194.70001,-134.1,-12.900001,,,,x,,
834927,-4.626636,13.826075,-7.257269,0.17530599,-8.46042,7.1113257,197.1,-134.1,-13.500001,,,,x,,
834947,-4.2779183,13.159145,-7.6831465,0.144818,-8.186028,4.9543,175.5,-131.70001,-19.5,,,,x,,
834967,-4.7468624,12.080095,-8.068949,1.44818,-5.9680257,6.4634557,187.5,-122.100006,-11.1,,,,x,,
835027,-2.9255173,12.857083,-7.4115896,0.129574,-8.635726,5.960404,163.5,-129.3,-18.300001,,,,x,,
835084,-0.77938026,13.320045,-7.024591,-1.25763,-5.9527817,7.2409,158.70001,-141.3,-20.7,,,,x,,
835104,-1.0186375,12.439579,-6.03287,-1.501534,-4.5274677,5.3354,149.1,-141.3,-26.1,,,,x,,
835147,-0.11424531,11.368305,-5.8462496,-2.157026,-3.2850819,5.6097918,132.3,-155.70001,-27.300001,,,,x,,
835167,-0.39656878,9.473987,-4.652356,-2.164648,-1.570132,3.071666,122.700005,-146.1,-23.1,,,,x,,
835187,-0.58797455,8.10065,-5.6488624,-0.68597996,2.545748,4.0777698,127.50001,-162.90001,-27.300001,,,,x,,
835207,0.22011662,9.334021,-5.4670267,-0.975616,1.3795819,6.791202,117.9,-162.90001,-22.5,,,,x,,
835247,0.31163248,7.8667765,-5.091393,0.144818,4.596066,4.718018,101.100006,-167.70001,-27.300001,,,,x,,
835267,0.66752756,7.8081584,-4.756433,0.17530599,4.336918,4.054904,117.9,-165.3,-23.1,,,,x,,
835287,0.85833514,7.1005554,-4.4400153,0.137196,4.794238,2.7058098,101.100006,-160.5,-21.900002,,,,x,,
835307,1.1699677,6.182406,-3.9949968,-0.07622,4.245454,1.775926,110.700005,-158.1,-21.900002,,,,x,,
835347,1.4570763,6.0280848,-3.3561802,-1.166166,7.400962,3.2088618,103.50001,-162.90001,-24.900002,,,,x,,
835504,0.29847333,4.985522,-1.7023149,-0.81555396,8.391822,-1.1280559,86.700005,-167.70001,-17.1,,,,x,,
835544,1.03718,5.4532695,-0.5473008,-0.87653,5.731744,-0.060976,81.9,-158.1,-18.900002,,,,x,,
835565,1.8919262,6.7416697,-0.25779963,-0.846042,5.0533857,0.41921,81.9,-162.90001,-26.1,,,,x,,
835585,2.171857,6.8606997,0.1280026,-1.166166,5.6097918,-0.640248,89.100006,-174.90001,-19.5,,,,x,,
835625,1.9038891,7.094574,-0.18482618,-0.67073596,4.855214,-1.8902559,96.3,-172.5,-21.300001,,,,x,,
835682,1.4361413,8.722121,-0.3648672,0.68597996,3.079288,-3.079288,93.9,-167.70001,-17.1,,,,x,,
835703,1.6490802,8.855507,0.55328226,0.998482,0.19055,-3.7119138,101.100006,-165.3,-18.300001,,,,x,,
835744,0.29966962,9.0540905,-0.85654074,-0.67835796,3.117398,-3.018312,103.50001,-162.90001,-17.1,,,,x,,
835764,0.17166704,9.27959,-0.7835673,0.510674,1.8445239,-2.164648,113.100006,-160.5,-22.5,,,,x,,
835805,0.0017944289,9.969847,-1.4666466,-0.083841994,1.3643379,-1.303362,108.3,-162.90001,-14.700001,,,,x,,
835825,0.09749731,9.921995,-1.7388016,-0.015244,0.72409,-1.326228,103.50001,-165.3,-20.7,,,,x,,
835845,-0.3505118,9.147999,-2.0336862,0.144818,0.426832,-1.288118,125.100006,-162.90001,-18.900002,,,,x,,
835865,-0.46954224,9.258057,-2.564239,0.297258,-0.320124,0.007622,110.700005,-170.1,-23.1,,,,x,,
835885,0.14056359,9.793395,-2.7574391,0.548784,-1.455802,0.92988396,108.3,-162.90001,-22.5,,,,x,,
835905,0.640013,10.162449,-2.5157893,0.327746,-2.2942219,1.18141,113.100006,-160.5,-11.700001,,,,x,,
835925,1.2931851,10.615842,-2.3668518,-0.17530599,-2.507638,1.272874,98.700005,-160.5,-15.3,,,,,,
835945,1.393075,9.89508,-2.0271065,-0.92226195,-2.423796,0.259148,103.50001,-155.70001,-21.900002,,,,,,
835965,1.2794278,8.895582,-1.982844,-0.899396,-1.98172,-0.251526,101.100006,-165.3,-15.3,,,,,,
836005,1.5784993,8.537892,-1.987629,0.312502,-2.050318,-0.144818,96.3,-167.70001,-24.900002,,,,,,
836044,1.7286332,8.092875,-1.9463573,1.814036,-1.8292799,0.426832,101.100006,-162.90001,-13.500001,,,,,,
836064,2.0779486,8.883619,-2.0300972,2.301844,-1.478668,0.891774,101.100006,-162.90001,-18.300001,,,,,,
836104,2.0306954,9.367517,-2.8094776,2.926848,-0.777444,0.975616,105.9,-160.5,-20.7,,,,,,
836124,2.1431463,9.732385,-2.9165452,2.6905658,-1.044214,1.471046,108.3,-148.5,-13.500001,,,,,,
836144,1.8099806,9.544567,-3.033781,1.8673899,-0.92226195,1.250008,108.3,-170.1,-18.900002,,,,,,
836164,1.4965537,9.969847,-3.0481365,1.585376,-0.891774,1.547266,105.9,-165.3,-20.7,,,,,,
836224,-0.22191104,8.598904,-2.64439,-0.449698,-1.196654,-1.3414719,96.3,-172.5,-12.3,,,,,,
836244,-0.58558196,8.942238,-2.95363,-0.20579399,-0.769822,0.297258,96.3,-153.3,-14.700001,,,,,,
836266,-1.27225,8.668288,-2.8561327,-0.70122397,-0.67073596,-0.19055,98.700005,-146.1,-14.700001,,,,,,
836286,-1.3230922,8.332729,-3.0068648,0.373478,-1.1204339,0.22865999,91.5,-158.1,-14.1,,,,,,
836306,-1.0036839,8.6437645,-2.5552669,0.373478,-1.3872039,0.579272,108.3,-162.90001,-17.1,,,,,,
836326,-0.83141875,9.060072,-2.5080135,0.137196,-0.64787,0.15244,103.50001,-172.5,-11.700001,,,,,,
836346,-0.9701879,8.846535,-2.6916435,-0.106708,-0.259148,-0.67835796,96.3,-160.5,-15.900001,,,,,,
836366,-1.2537076,7.8255043,-2.7412891,-0.251526,-0.07622,-1.082324,103.50001,-167.70001,-14.1,,,,,,
836386,-1.1023775,7.53062,-2.6306329,-0.434454,-0.106708,-0.19055,101.100006,-158.1,-23.1,,,,,,
836406,-0.59275967,8.088089,-2.5462947,-0.388722,0.19055,0.312502,108.3,-160.5,-9.900001,,,,,,
836466,0.12321745,9.288562,-3.066679,0.091464,0.853664,0.72409,101.100006,-158.1,-16.5,,,,,,
836487,0.48928094,9.750329,-3.2915807,0.594516,0.23628199,0.785066,108.3,-172.5,-9.3,,,,,,
836510,1.1783416,10.157664,-3.1145306,0.87653,-0.449698,0.92226195,101.100006,-172.5,-15.3,,,,,,
836530,1.6574541,9.773058,-2.9213302,0.503052,-0.243904,0.33536798,108.3,-155.70001,-14.1,,,,,,
836550,2.10008,10.049998,-2.7879443,0.327746,0.442076,0.40396598,96.3,-167.70001,-14.1,,,,,,
836570,1.8871411,9.6480465,-2.874675,-0.55640596,1.67684,-0.769822,105.9,-162.90001,-8.700001,,,,,,
836590,1.7268387,9.5182495,-3.0947917,-0.449698,1.935988,-1.234764,98.700005,-167.70001,-12.3,,,,,,
836610,1.3266811,9.130054,-3.174943,-0.213416,1.79117,-1.94361,96.3,-170.1,-17.1,,,,,,
836632,1.0634983,8.753224,-3.2706459,-0.030488,1.272874,-1.737816,101.100006,-165.3,-11.1,,,,,,
836652,0.7644267,8.411086,-3.0230145,-0.07622,0.34298998,-1.417692,103.50001,-155.70001,-13.500001,,,,,,
836716,0.9510473,8.243607,-3.2688513,-0.106708,-1.242386,-0.045732,105.9,-165.3,-15.900001,,,,,,
836762,1.7142777,8.392544,-3.2287757,0.045732,-1.310984,0.510674,96.3,-153.3,-17.7,,,,,,
836782,1.9798533,8.595913,-3.4321444,-0.17530599,-0.69360197,0.11432999,96.3,-160.5,-8.1,,,,x,,
836822,2.1192205,8.417068,-4.056606,-1.4024479,1.1128119,-1.4024479,98.700005,-155.70001,-17.7,,,,x,,
836844,1.9308056,7.555742,-4.7917233,-0.746956,3.346058,-2.2865999,105.9,-162.90001,-12.900001,,,,x,,
836864,2.5127985,7.8673744,-6.418672,1.471046,4.870458,-1.8673899,103.50001,-148.5,-15.900001,,,,x,,
836884,3.6091948,8.806459,-6.952814,1.242386,1.493912,-1.501534,108.3,-153.3,-8.700001,,,,x,,
836907,4.480689,8.5360985,-4.92152,-0.30488,0.708846,-3.361302,108.3,-158.1,-12.900001,,,,x,,
836927,4.883837,7.5066943,-4.798901,-0.49543,2.7972739,-4.672286,120.3,-146.1,-8.700001,,,,x,,
836947,4.6876464,6.179415,-3.9208272,-0.297258,3.58234,-6.4786997,129.90001,-155.70001,-11.700001,,,,x,,
836968,4.4083138,4.9801383,-2.735906,-0.19055,4.580822,-7.9040136,125.100006,-150.90001,-12.900001,,,,x,,
837028,2.7981129,2.9177413,0.61190027,-1.798792,12.972644,-9.748538,132.3,-141.3,-13.500001,,,,x,,
837065,-0.032897864,1.6783892,0.18063918,-0.15244,16.112907,-10.122016,149.1,-131.70001,-14.700001,,,,x,,
837107,-3.1480265,2.2149234,0.8397927,2.7286758,8.468041,-7.5305357,158.70001,-126.9,2.7,,,,x,,
837244,-4.9472404,11.251069,-1.9852365,1.082324,-7.16468,1.71495,197.1,-107.700005,0.3,,,,x,,
837264,-6.6286206,9.085792,-0.7201641,0.81555396,-9.580853,-1.554888,194.70001,-105.3,-1.5,,,,x,,
837307,-5.421568,11.843829,-2.2609804,0.975616,-9.22262,3.003068,189.90001,-119.700005,-3.9,,,,x,,
837327,-6.501814,11.845025,-2.1610906,1.265252,-9.268352,0.35061198,187.5,-105.3,-5.7000003,,,,x,,
837347,-7.178912,12.854093,-4.521363,3.064044,-5.762232,2.93447,182.70001,-112.50001,-14.700001,,,,x,,
837367,-6.550264,14.692784,-5.0860095,1.326228,-12.202822,3.7119138,192.3,-107.700005,-7.5000005,,,,x,,
837389,-6.736884,12.879812,-2.6934378,-0.07622,-13.605269,1.8978779,197.1,-105.3,-16.5,,,,x,,
837410,-8.272916,13.285354,-5.0028677,0.442076,-7.5610237,3.407034,199.50002,-110.100006,-11.700001,,,,x,,
837430,-5.4915504,16.225824,-6.7590156,1.493912,-10.076283,7.0503497,197.1,-119.700005,-14.1,,,,x,,
837450,-4.426856,15.040305,-3.891518,-1.1280559,-16.219616,3.39179,187.5,-124.50001,-12.3,,,,x,,
837470,-7.9720497,11.77265,-3.5762968,-0.312502,-10.144882,1.463424,199.50002,-119.700005,-15.3,,,,x,,
837494,-4.3024426,16.460297,-8.033658,1.8597679,-8.1250515,7.0960817,177.90001,-105.3,-14.1,,,,x,,
837514,-5.2008533,14.10481,-5.9688687,0.20579399,-13.795819,3.2317278,194.70001,-126.9,-14.1,,,,x,,
837534,-5.07943,13.10591,-5.334239,1.661596,-10.968058,4.321674,182.70001,-126.9,-20.7,,,,x,,
837557,-4.5405035,13.962451,-5.631516,0.525918,-7.881148,4.664664,182.70001,-124.50001,-16.5,,,,x,,
837577,-3.6977198,14.643138,-6.476094,1.455802,-4.161612,4.4664917,175.5,-138.90001,-15.3,,,,x,,
837597,-5.2074327,13.052676,-8.238223,3.7195358,-1.9131219,2.949714,168.3,-129.3,-22.5,,,,x,,
837617,-3.9973896,12.318156,-9.231739,3.46801,-5.274424,5.5945477,173.1,-136.5,-18.900002,,,,x,,
837637,-2.6569512,14.032434,-6.5329175,0.144818,-11.006167,7.2409,173.1,-119.700005,-18.300001,,,,x,,
837657,-3.535623,12.662686,-6.0047574,0.213416,-3.605206,4.275942,173.1,-136.5,-12.3,,,,x,,
837677,-3.4447055,11.541767,-8.93805,2.2637339,2.7744079,4.314052,165.90001,-143.70001,-20.1,,,,x,,
837700,-1.2369597,12.15905,-9.990782,0.70122397,-4.100636,6.6311398,161.1,-146.1,-23.7,,,,x,,
837720,-1.1747528,11.761285,-6.7380805,-2.644834,-9.283596,6.112844,163.5,-153.3,-20.1,,,,x,,
837740,-0.7554546,10.464511,-5.8546233,-1.5244,-4.314052,4.237832,144.3,-146.1,-23.1,,,,x,,
837761,-0.34752107,8.613258,-6.1321616,-0.769822,-2.118916,3.079288,153.90001,-141.3,-20.7,,,,x,,
837781,-0.5012438,8.889601,-6.171041,-1.585376,0.144818,4.550334,127.50001,-153.3,-17.7,,,,x,,
837801,-0.006579573,9.231739,-6.9049625,-1.21952,1.958854,4.862836,132.3,-150.90001,-18.900002,,,,x,,
837821,1.5611532,9.700085,-5.925802,-0.518296,-2.111294,4.9543,139.5,-150.90001,-18.300001,,,,x,,
837844,0.5215807,7.722026,-3.9321918,-2.47715,0.26677,2.7286758,139.5,-153.3,-24.300001,,,,x,,
837864,0.38340965,7.187286,-5.3946514,-1.6082419,6.623518,3.2850819,125.100006,-158.1,-24.900002,,,,x,,
837884,0.60352623,7.9852085,-5.376109,-0.861286,5.0991178,3.140264,115.50001,-150.90001,-28.500002,,,,x,,
837906,0.8667092,7.250689,-4.745068,-0.853664,5.266802,1.3643379,120.3,-160.5,-23.1,,,,x,,
837966,0.34034336,5.506504,-3.9860249,-2.7667859,6.189064,1.8750119,120.3,-160.5,-24.900002,,,,x,,
837986,0.84996116,6.1483116,-3.0977824,-2.141782,6.112844,2.378064,93.9,-155.70001,-27.900002,,,,x,,
838006,1.2220061,6.6334057,-3.0092573,-0.92988396,7.01224,0.72409,101.100006,-158.1,-13.500001,,,,x,,
838028,1.16279,6.426448,-2.661138,-0.975616,6.242418,0.30488,110.700005,-170.1,-16.5,,,,x,,
838048,0.74648243,5.5292335,-1.9272166,-2.103672,6.730226,-0.23628199,108.3,-170.1,-24.300001,,,,x,,
838068,0.61608726,5.1512074,-2.1269965,-1.94361,8.208894,0.487808,103.50001,-160.5,-17.7,,,,x,,
838090,1.1233125,6.598115,-2.0426583,-1.8826339,7.66011,2.118916,105.9,-167.70001,-20.1,,,,x,,
838110,0.99172103,6.969562,-2.3225892,-1.8445239,7.789684,1.21952,96.3,-167.70001,-24.300001,,,,x,,
838150,0.6555647,5.078832,-1.949946,0.03811,4.260698,0.3811,101.100006,-165.3,-25.500002,,,,x,,
838170,1.8339063,6.6651073,-1.4038415,0.106708,2.8048959,1.768304,98.700005,-165.3,-18.900002,,,,x,,
838214,2.091706,7.911039,-0.68606997,-1.6387299,7.477182,-1.67684,101.100006,-153.3,-12.900001,,,,x,,
838234,0.82603544,6.5042067,-1.0449557,-1.082324,7.149436,-2.301844,98.700005,-170.1,-23.1,,,,x,,
838255,0.9654028,6.682453,-0.81227815,-0.731712,6.4482117,-1.56251,96.3,-167.70001,-29.1,,,,x,,
838275,1.6490802,8.00734,-0.42946666,-0.487808,5.4116197,-0.45731997,93.9,-162.90001,-23.1,,,,x,,
838339,1.5731161,8.862684,0.3660635,0.17530599,3.483254,-2.149404,101.100006,-153.3,-18.300001,,,,x,,
838385,0.96958977,8.83517,-0.8798683,1.821658,2.088428,-2.957336,105.9,-172.5,-16.5,,,,x,,
838405,0.9660009,8.622231,-0.3953725,1.318606,1.074702,-2.7058098,113.100006,-150.90001,-21.300001,,,,x,,
838445,-0.47731808,9.786816,-1.8141676,0.792688,2.40093,-2.111294,113.100006,-165.3,-20.1,,,,x,,
838468,-0.92233646,9.175513,-2.0031807,0.45731997,0.091464,-2.157026,125.100006,-160.5,-18.900002,,,,x,,
838488,-0.86132586,9.409387,-1.9571238,-0.015244,-0.518296,-1.3872039,110.700005,-167.70001,-17.1,,,,x,,
838508,-1.0527316,8.7412615,-1.9445628,-0.83842,-0.891774,-1.1051899,117.9,-155.70001,-18.900002,,,,x,,
838530,-0.6095077,9.035547,-1.907478,-0.655492,-1.5244,-0.213416,103.50001,-162.90001,-8.700001,,,,x,,
838571,0.20157418,10.420847,-2.1138372,-0.23628199,-1.699706,0.975616,115.50001,-162.90001,-18.300001,,,,x,,
838593,0.2769402,9.962669,-1.827925,-0.449698,-2.111294,0.388722,120.3,-158.1,-18.300001,,,,x,,
838633,-0.33256748,9.533801,-2.3070374,-0.053354,-1.532022,0.846042,108.3,-165.3,-17.7,,,,x,,
838653,-0.22609805,9.284375,-2.196381,0.93750596,-2.7972739,1.48629,108.3,-165.3,-15.900001,,,,x,,
838673,0.2853142,10.185179,-1.8225416,0.95274997,-2.949714,2.126538,113.100006,-165.3,-16.5,,,,x,,
838694,0.14594689,10.103233,-1.8650098,-0.160062,-1.9131219,0.960372,120.3,-160.5,-11.1,,,,x,,
838714,0.18781689,9.485352,-1.9439646,-0.30488,-1.570132,0.28201398,105.9,-160.5,-13.500001,,,,x,,
838734,0.21533147,9.825096,-2.188605,-0.198172,-1.1432999,0.55640596,108.3,-158.1,-19.5,,,,x,,
838754,-0.05801987,9.339404,-2.4332457,-0.259148,-1.02897,0.274392,103.50001,-150.90001,-15.3,,,,x,,
838774,0.20217232,9.008632,-2.3471131,0.137196,-1.821658,0.731712,125.100006,-170.1,-22.5,,,,x,,
838794,0.4079335,9.191663,-2.4164977,0.17530599,-1.783548,0.983238,101.100006,-158.1,-14.700001,,,,x,,
838814,0.3798208,9.03794,-2.4589658,0.33536798,-1.8369019,0.87653,103.50001,-160.5,-15.900001,,,,,,
838834,0.7482768,9.100147,-2.3094301,0.487808,-2.01983,1.166166,101.100006,-165.3,-17.7,,,,,,
838856,1.0634983,9.059473,-2.3213928,0.22865999,-0.95274997,0.70122397,105.9,-167.70001,-18.900002,,,,,,
838876,0.95463616,8.980518,-2.484686,0.861286,-0.57164997,0.60976,115.50001,-160.5,-22.5,,,,,,
838896,1.0096654,8.991285,-2.7508595,1.326228,-0.083841994,0.785066,108.3,-162.90001,-20.1,,,,,,
838916,1.3075405,9.408191,-2.8543382,1.532022,-0.34298998,1.21952,105.9,-148.5,-15.900001,,,,,,
838976,1.3242885,9.301722,-3.4817903,1.5244,0.640248,0.487808,115.50001,-167.70001,-15.900001,,,,,,
838996,1.3165127,9.093568,-3.322086,1.227142,-0.23628199,0.49543,103.50001,-165.3,-10.5,,,,,,
839016,1.0784518,9.118092,-3.3083289,0.47256398,-0.23628199,0.487808,108.3,-160.5,-15.900001,,,,,,
839040,0.9019996,9.119885,-3.5619414,0.525918,-0.213416,-0.129574,101.100006,-160.5,-12.900001,,,,,,
839060,0.9049903,8.861488,-3.4716218,0.68597996,-1.18141,-0.503052,101.100006,-158.1,-20.7,,,,,,
839082,0.82842803,8.46133,-3.1049602,0.068598,-1.3567159,-0.327746,108.3,-153.3,-13.500001,,,,,,
839102,1.0401707,8.396132,-3.0660808,-0.121952,-1.1356779,0.548784,101.100006,-162.90001,-13.500001,,,,,,
839122,1.0557224,8.543276,-2.7514577,-0.33536798,-0.91463995,1.013726,105.9,-162.90001,-12.3,,,,,,
839143,1.3189052,9.0002575,-2.6736991,-0.49543,-0.56402797,0.975616,86.700005,-150.90001,-20.1,,,,,,
839163,1.342831,8.845937,-2.5540705,-0.68597996,-0.23628199,0.121952,93.9,-150.90001,-16.5,,,,,,
839226,1.0820407,9.085792,-2.5008357,-0.060976,0.19055,-0.548784,98.700005,-155.70001,-12.3,,,,,,
839246,1.1041719,9.2443,-2.580987,0.091464,0.243904,-0.907018,96.3,-165.3,-12.900001,,,,,,
839266,1.0072727,9.497912,-2.7161672,0.068598,0.121952,-1.059458,101.100006,-162.90001,-13.500001,,,,,,
839286,0.4928698,8.8166275,-2.7981129,-0.20579399,0.365856,-1.501534,101.100006,-170.1,-16.5,,,,,,
839306,0.874485,9.533203,-3.258683,0.46494198,0.137196,-0.541162,89.100006,-167.70001,-17.7,,,,,,
839326,0.5580674,9.805358,-3.367545,0.548784,0.11432999,-0.967994,110.700005,-162.90001,-22.5,,,,,,
839346,0.79792273,9.676159,-3.5762968,0.80030996,-0.198172,-1.150922,108.3,-153.3,-15.900001,,,,,,
839366,0.761436,9.162952,-3.0858195,0.510674,-0.426832,-0.868908,96.3,-165.3,-15.3,,,,,,
839386,0.52696395,8.987697,-3.4082186,-0.030488,0.594516,-0.243904,98.700005,-155.70001,-12.900001,,,,,,
839406,0.5191881,8.8704605,-3.4536774,0.243904,0.518296,-0.16768399,108.3,-158.1,-17.7,,,,,,
839426,0.43664438,8.589334,-3.3561802,0.28201398,0.28201398,0.053354,98.700005,-150.90001,-9.900001,,,,,,
839446,0.58797455,9.122876,-3.2030556,-0.221038,-0.068598,0.525918,101.100006,-170.1,-19.5,,,,,,
839466,0.69803286,8.900368,-3.0882123,-0.55640596,-0.129574,-0.083841994,115.50001,-158.1,-17.1,,,,,,
839489,0.5885727,8.534902,-2.9225266,-0.846042,-0.213416,0.251526,108.3,-155.70001,-18.900002,,,,,,
839509,0.6071151,8.819618,-2.9344895,-1.189032,-0.22865999,0.617382,108.3,-162.90001,-17.1,,,,,,
839529,0.6968366,9.115699,-2.962004,-0.67073596,-0.55640596,0.320124,101.100006,-172.5,-19.5,,,,,,
839553,0.7626323,9.123475,-2.7759814,-0.655492,-0.830798,-0.060976,91.5,-165.3,-17.7,,,,,,
839573,0.7835673,9.033753,-2.6976247,-0.274392,-0.907018,0.015244,96.3,-155.70001,-12.900001,,,,,,
839596,0.7010236,9.109717,-2.761626,-0.17530599,-0.94512796,0.045732,115.50001,-160.5,-14.1,,,,x,,
839616,0.799119,9.030165,-2.827422,-0.182928,-0.967994,-0.15244,93.9,-160.5,-15.3,,,,x,,
839636,1.1340791,8.9865,-2.8268237,-0.20579399,-0.868908,-0.068598,103.50001,-165.3,-14.700001,,,,x,,
839658,1.2979703,9.045716,-2.9757612,-0.60976,-0.55640596,0.221038,105.9,-167.70001,-17.1,,,,x,,
839679,1.45588,8.748439,-3.0660808,-1.150922,-0.160062,0.045732,98.700005,-158.1,-20.1,,,,x,,
839699,2.0719674,8.439797,-3.3944614,-2.13416,1.036592,-0.708846,98.700005,-158.1,-21.900002,,,,x,,
839719,1.9361888,8.225064,-3.7336085,-2.118916,2.01983,-0.884152,103.50001,-170.1,-16.5,,,,x,,
839740,2.2992616,8.105435,-5.020214,-0.81555396,3.6661818,-1.013726,110.700005,-160.5,-18.900002,,,,x,,
839761,3.8580222,8.253177,-5.2654524,-0.716468,0.144818,-0.899396,93.9,-167.70001,-15.900001,,,,x,,
839781,4.704993,7.840458,-4.22588,-1.67684,1.1280559,-2.606724,110.700005,-170.1,-18.300001,,,,x,,
839801,4.466932,6.5610304,-4.638599,-1.059458,4.893324,-4.367406,113.100006,-162.90001,-29.7,,,,x,,
839823,4.636206,6.0191126,-5.025597,0.26677,5.899428,-5.37351,120.3,-155.70001,-20.7,,,,x,,
839843,3.982436,4.990905,-3.8101707,0.327746,4.794238,-6.905532,113.100006,-150.90001,-13.500001,,,,x,,
839863,4.1690564,4.0673723,-2.5450983,-0.26677,5.4725957,-7.667732,120.3,-160.5,-19.5,,,,x,,
839883,3.7581322,2.9637985,-1.0282078,-0.327746,7.271388,-8.940606,137.1,-162.90001,-14.1,,,,x,,
839907,2.994902,2.301056,-0.27394947,-1.303362,10.373542,-9.504634,137.1,-141.3,-8.1,,,,x,,
839947,0.35290435,1.5665364,-0.055029154,-2.2408679,15.213511,-9.054935,137.1,-141.3,-15.900001,,,,x,,
839967,-0.1268063,2.1479313,-0.01016843,-0.03811,12.69063,-7.08846,146.70001,-148.5,-14.1,,,,x,,
839987,-0.75904346,3.7802637,0.794932,2.2408679,8.87963,-6.44059,153.90001,-141.3,-18.300001,,,,x,,
840007,-1.9302074,4.4184823,1.158603,2.919226,7.20279,-8.529017,165.90001,-136.5,-11.1,,,,x,,
840067,-4.32577,7.5862474,2.4111142,0.28201398,4.176856,-10.632689,165.90001,-119.700005,-8.700001,,,,x,,
840087,-5.7655,7.0515075,-0.25839776,3.597584,5.114362,-7.5000477,177.90001,-114.9,-6.9,,,,x,,
840107,-6.4808793,8.81603,-0.8517556,3.513742,0.967994,-3.6890478,182.70001,-112.50001,-9.3,,,,x,,
840127,-6.245809,9.863976,-0.2213129,3.01069,-2.17227,-2.843006,175.5,-95.700005,-3.9,,,,x,,
840191,-8.586343,11.052485,-4.0153337,3.635694,-4.5884438,0.091464,197.1,-102.9,-7.5000005,,,,x,,
840304,-7.26325,13.461805,-3.535025,-0.518296,-11.806478,0.251526,197.1,-105.3,-4.5,,,,x,,
840324,-6.91872,11.825885,-5.627329,0.967994,-11.760746,1.67684,197.1,-119.700005,-15.900001,,,,x,,
840364,-6.5711985,12.225444,-3.7383935,1.29574,-12.782094,4.15399,199.50002,-107.700005,-9.900001,,,,x,,
840384,-6.9994693,12.561003,-5.8217254,2.05794,-8.68908,4.474114,194.70001,-119.700005,-14.700001,,,,x,,
840407,-5.3288555,13.274587,-5.395848,1.5929979,-12.926911,5.9070497,189.90001,-110.100006,-14.700001,,,,x,,
840427,-6.7446604,12.604667,-6.352278,2.423796,-6.0290017,5.327778,192.3,-119.700005,-19.5,,,,x,,
840447,-4.9747553,13.478554,-9.256861,4.207344,-3.993928,7.324742,192.3,-124.50001,-15.3,,,,x,,
840467,-4.7014036,13.936133,-9.293347,1.669218,-9.6418295,7.103704,180.3,-119.700005,-19.5,,,,x,,
840487,-4.155897,13.931348,-8.337515,1.493912,-11.074766,7.057972,175.5,-146.1,-18.300001,,,,x,,
840511,-3.8454611,12.930057,-8.396132,1.585376,-8.338468,5.9070497,175.5,-141.3,-21.300001,,,,x,,
840551,-2.7119803,14.071912,-7.439104,-1.3795819,-8.68908,8.795788,161.1,-155.70001,-19.5,,,,x,,
840571,-2.5965385,11.952093,-7.714848,-1.493912,-3.6966698,5.4573517,158.70001,-141.3,-23.1,,,,x,,
840591,-2.4236753,11.076411,-8.181399,-0.40396598,-3.330814,5.724122,151.5,-138.90001,-24.900002,,,,x,,
840611,-1.7633255,11.225349,-7.9092445,-1.036592,-5.236314,8.521396,144.3,-143.70001,-21.300001,,,,x,,
840634,-0.5796005,12.190752,-6.163265,-2.660078,-7.134192,9.474146,144.3,-148.5,-22.5,,,,x,,
840654,-0.619078,10.915511,-4.777368,-3.147886,-3.384168,6.547298,139.5,-148.5,-18.900002,,,,x,,
840674,-1.033591,8.689223,-5.9437466,-1.661596,1.669218,4.565578,129.90001,-150.90001,-24.300001,,,,x,,
840717,0.46954224,8.857301,-4.961596,-0.975616,-1.8673899,6.9283977,113.100006,-160.5,-27.900002,,,,x,,
840739,0.5377305,7.3948417,-4.2821054,-0.975616,-0.259148,4.390272,113.100006,-167.70001,-33.300003,,,,x,,
840759,0.9211402,5.2690415,-4.267152,-0.541162,1.059458,4.45887,108.3,-160.5,-24.900002,,,,x,,
840779,2.16767,6.4521685,-3.9961932,-0.030488,1.745438,8.239382,98.700005,-160.5,-24.900002,,,,x,,
840863,2.8034961,6.0687585,-3.017033,0.510674,5.777476,3.833866,81.9,-162.90001,-23.7,,,,x,,
840902,2.97935,6.0400476,-1.6155841,-0.07622,6.722604,-0.11432999,77.100006,-165.3,-29.7,,,,x,,
840922,2.2878969,5.308519,-1.233969,-0.34298998,7.6524878,-2.2027578,69.9,-167.70001,-23.7,,,,x,,
840964,1.276437,4.464539,-1.1095552,0.40396598,9.94671,-2.995446,77.100006,-162.90001,-26.1,,,,x,,
840984,1.4193933,5.171544,-1.1251069,1.3719599,9.428413,-2.17227,72.3,-165.3,-26.7,,,,x,,
841004,1.2399504,5.3617535,-1.0108616,1.18141,8.986338,-1.974098,91.5,-165.3,-21.900002,,,,x,,
841026,1.5013388,5.9108486,-0.9941136,0.754578,8.872007,-1.196654,86.700005,-170.1,-20.7,,,,x,,
841046,1.6173786,6.7422676,-0.92233646,0.33536798,8.582372,-0.891774,77.100006,-165.3,-23.1,,,,x,,
841070,1.6706133,7.3362236,-0.90798104,-0.182928,8.216516,-1.318606,84.3,-170.1,-19.5,,,,x,,
841090,1.744783,7.686137,-0.64898515,-0.16768399,7.134192,-2.51526,86.700005,-162.90001,-18.900002,,,,x,,
841152,-0.031103434,8.090482,-1.041965,1.189032,4.260698,-3.986306,91.5,-172.5,-19.5,,,,x,,
841172,0.22908875,8.347085,-0.7925394,1.463424,2.500016,-3.2469718,110.700005,-174.90001,-23.7,,,,x,,
841192,0.19678904,8.999061,-1.0814425,1.173788,2.507638,-1.775926,91.5,-165.3,-14.700001,,,,x,,
841215,-0.16448931,9.90764,-1.5659384,0.442076,1.509156,-1.036592,113.100006,-177.3,-14.1,,,,x,,
841235,0.038879294,9.969847,-1.3835047,0.11432999,0.92226195,-1.211898,91.5,-165.3,-20.1,,,,x,,
841255,0.06041244,10.07512,-1.8374952,-0.716468,1.303362,-0.960372,93.9,-158.1,-15.3,,,,x,,
841319,0.539525,9.834667,-1.9948068,-2.545748,1.71495,0.731712,98.700005,-162.90001,-19.5,,,,x,,
841341,0.4372425,9.233533,-2.0480416,-2.461906,1.3872039,0.82317597,103.50001,-167.70001,-21.300001,,,,x,,
841361,0.6681257,8.840553,-2.121613,-1.8902559,1.059458,1.227142,89.100006,-158.1,-23.1,,,,x,,
841421,1.1245087,9.338208,-2.2974672,0.121952,-0.548784,0.95274997,84.3,-167.70001,-17.1,,,,x,,
841446,1.0999849,9.30531,-2.3584778,0.49543,-0.92226195,0.274392,98.700005,-165.3,-17.1,,,,,,
841466,1.117331,9.313684,-2.4464047,0.640248,-1.089946,-0.07622,96.3,-160.5,-19.5,,,,,,
841508,0.790745,9.27002,-2.5552669,-0.03811,-1.471046,-0.15244,86.700005,-167.70001,-25.500002,,,,,,
841528,0.80510044,8.823207,-2.5259578,0.137196,-1.547266,-0.15244,96.3,-160.5,-17.1,,,,,,
841548,0.9438696,9.134839,-2.4296567,-0.106708,-1.737816,0.34298998,89.100006,-162.90001,-17.7,,,,,,
841568,1.1101533,9.328039,-2.4278624,-0.23628199,-1.5929979,0.34298998,103.50001,-158.1,-14.1,,,,,,
841588,1.1538178,9.234131,-2.3542907,-0.41158798,-1.547266,0.251526,89.100006,-162.90001,-17.7,,,,,,
841630,1.3350551,8.922499,-2.2035587,-0.28201398,-1.242386,0.23628199,91.5,-172.5,-18.900002,,,,,,
841693,1.6305377,9.387256,-2.221503,0.30488,-0.975616,0.41158798,103.50001,-155.70001,-22.5,,,,,,
841985,1.1340791,9.276001,-2.47691,0.358234,-0.64787,0.47256398,96.3,-179.70001,-9.900001,,,,,,
842005,1.3165127,9.587634,-2.0223215,-0.617382,-0.121952,0.11432999,91.5,-172.5,-15.3,,,,,,
842045,1.0862277,8.487649,-2.7759814,0.251526,1.1051899,-0.785066,93.9,-170.1,-21.900002,,,,,,
842088,0.91934574,9.667187,-3.0236127,0.93750596,0.47256398,0.022866,81.9,-167.70001,-16.5,,,,,,
842128,0.8224466,9.103138,-2.7460744,-0.274392,-0.548784,-0.442076,79.5,-172.5,-22.5,,,,,,
842246,1.2519132,8.979322,-2.4571714,-0.160062,-0.95274997,0.121952,91.5,-150.90001,-18.300001,,,,,,
842282,1.1376679,8.998463,-2.723345,0.03811,-0.663114,-0.26677,81.9,-165.3,-15.900001,,,,,,
842302,1.1011813,9.255664,-2.8220387,0.274392,-0.731712,-0.083841994,84.3,-167.70001,-18.900002,,,,,,
842342,1.1621917,9.296936,-2.7143729,-0.015244,-0.47256398,-0.442076,84.3,-174.90001,-18.300001,,,,,,
842387,1.0563204,8.960181,-2.7353077,-0.213416,0.251526,-0.213416,89.100006,-165.3,-19.5,,,,,,
842463,1.3206997,8.833375,-2.773589,-0.449698,0.243904,-0.11432999,96.3,-165.3,-15.3,,,,,,
842484,1.6873614,8.842946,-2.8100758,-0.602138,0.182928,-0.068598,96.3,-165.3,-17.1,,,,,,
842524,2.4954524,8.97035,-3.1013713,-1.303362,0.967994,-0.663114,101.100006,-170.1,-14.700001,,,,,,
842580,3.6426907,7.7884197,-4.3921638,0.17530599,3.147886,-0.373478,98.700005,-174.90001,-17.1,,,,,,
842640,4.4818854,6.494038,-3.8795552,0.602138,7.66011,-4.222588,98.700005,-160.5,-17.1,,,,x,,
842660,4.8138547,5.9228115,-3.4381258,1.547266,7.957368,-5.160094,103.50001,-158.1,-17.1,,,,x,,
842682,4.924511,5.5758886,-2.2155216,1.265252,8.254626,-6.4177237,101.100006,-165.3,-14.700001,,,,x,,
842702,3.9585102,3.9268086,-1.8189528,0.602138,11.135742,-9.862867,105.9,-160.5,-14.1,,,,x,,
842722,3.2820106,2.4685361,-1.8333082,1.8597679,11.905563,-11.631172,117.9,-153.3,-16.5,,,,x,,
842744,2.8537402,3.166569,-0.37623194,1.821658,9.9086,-10.083906,127.50001,-148.5,-14.1,,,,x,,
842764,2.05821,2.9823408,-0.0059814295,0.632626,10.480249,-10.655556,132.3,-153.3,-11.1,,,,x,,
842784,-0.04605701,1.9702829,-0.07716044,0.632626,11.554952,-11.913186,139.5,-150.90001,-8.700001,,,,x,,
842804,-0.81467074,2.9972944,0.81168,1.67684,5.731744,-9.1159115,158.70001,-131.70001,-12.900001,,,,x,,
842824,-0.9325049,4.3760138,2.7526538,-0.274392,2.500016,-8.109808,153.90001,-138.90001,-3.9,,,,x,,
842888,-4.120607,7.6424727,1.9840403,2.149404,-0.388722,-7.0198617,165.90001,-126.9,-0.3,,,,x,,
842908,-5.58187,8.628212,1.1789398,2.7439198,-1.471046,-7.942124,185.1,-122.100006,-5.1000004,,,,x,,
842968,-9.259851,9.9399395,0.4312611,1.6082419,0.95274997,-8.6509695,201.90001,-105.3,-2.7,,,,x,,
843123,-7.0227966,13.757288,-6.8421574,2.2027578,-11.425378,6.51681,218.70001,-105.3,-0.90000004,,,,x,,
843143,-8.5139675,14.0216675,-5.286986,1.75306,-12.789716,4.756128,216.3,-88.5,-9.3,,,,x,,
843183,-6.8678775,11.5806465,-8.4714985,1.806414,-14.397958,6.51681,204.3,-98.100006,-14.1,,,,x,,
843206,-6.8182316,11.413166,-6.7620063,2.2637339,-14.466556,8.292736,221.1,-105.3,-12.900001,,,,x,,
843227,-6.013131,13.562892,-8.633595,4.34454,-9.283596,10.106771,213.90001,-110.100006,-6.9,,,,x,,
843247,-4.224086,13.594593,-8.613857,1.3490939,-13.742466,9.100668,204.3,-117.3,-21.300001,,,,x,,
843267,-4.636206,13.669361,-7.8619914,0.853664,-13.125084,8.719568,192.3,-119.700005,-18.900002,,,,x,,
843287,-5.1703477,13.34756,-8.734084,1.928366,-7.218034,8.086942,185.1,-119.700005,-17.7,,,,x,,
843327,-2.4272642,14.208288,-8.887806,-0.998482,-10.838484,9.230242,177.90001,-134.1,-14.1,,,,x,,
843385,-1.032993,12.541264,-8.41946,-2.89636,-9.093046,7.6372437,173.1,-122.100006,-27.900002,,,,x,,
843441,-0.080151156,10.192356,-6.793708,-2.073184,-6.1052217,5.464974,156.3,-146.1,-26.1,,,,x,,
843486,0.34153965,10.631991,-5.668601,-3.871976,-1.8673899,8.010722,141.90001,-155.70001,-21.300001,,,,x,,
843507,0.4719348,9.296338,-5.166759,-3.2088618,0.327746,5.9375377,115.50001,-155.70001,-22.5,,,,x,,
843547,0.7835673,7.1807065,-4.2492075,-2.7134318,2.7744079,7.522914,117.9,-170.1,-26.1,,,,x,,
843567,1.2596891,7.3768973,-3.965688,-3.2393498,3.7042918,7.721086,110.700005,-167.70001,-24.900002,,,,x,,
843587,1.1406586,7.1406307,-3.609793,-3.338436,3.7347798,7.0655937,101.100006,-162.90001,-29.7,,,,x,,
843607,1.2010711,6.5191603,-3.054716,-3.08691,3.650938,5.6097918,93.9,-162.90001,-29.1,,,,x,,
843667,2.2747378,5.40482,-1.2178191,-0.82317597,4.138746,2.85825,91.5,-174.90001,-22.5,,,,x,,
843687,1.6119953,4.4083138,-0.5706284,-0.853664,6.32626,1.051836,86.700005,-162.90001,-24.900002,,,,x,,
843707,1.9146557,4.0338764,-1.0216281,0.03811,8.772922,1.3719599,96.3,-165.3,-27.900002,,,,x,,
843730,2.0647895,4.915539,-0.82842803,0.69360197,9.161644,1.661596,86.700005,-177.3,-24.900002,,,,x,,
843750,1.9194407,4.6637206,-0.5299547,0.487808,9.443658,0.68597996,77.100006,-167.70001,-29.7,,,,x,,
843770,2.020527,4.7540402,-0.2213129,0.586894,9.664696,0.365856,74.700005,-167.70001,-24.900002,,,,x,,
843790,2.0396676,5.09558,0.011364716,0.56402797,9.939088,-0.121952,81.9,-170.1,-21.900002,,,,x,,
843830,2.0229194,6.2272663,0.062206868,0.221038,10.480249,-1.501534,81.9,-167.70001,-18.900002,,,,x,,
843850,1.4869834,6.830793,0.3618765,0.80030996,9.596098,-1.272874,79.5,-170.1,-26.1,,,,x,,
843871,0.10108616,7.7632976,0.028710863,0.41158798,9.497012,-2.6829438,72.3,-162.90001,-22.5,,,,x,,
843891,0.840989,7.724418,-0.30086592,1.463424,7.210412,-3.6814258,89.100006,-167.70001,-24.900002,,,,x,,
843911,0.57660985,7.73997,0.38939106,1.013726,5.343022,-2.599102,96.3,-167.70001,-23.1,,,,x,,
843951,0.3702505,8.8579,-0.60472256,0.602138,4.519846,-0.586894,74.700005,-170.1,-16.5,,,,x,,
843971,-0.047851436,9.549951,-1.309335,0.312502,4.4055157,-1.059458,101.100006,-167.70001,-23.1,,,,x,,
843991,-0.44442022,9.418359,-2.1622868,1.074702,3.025934,-1.951232,91.5,-160.5,-20.1,,,,x,,
844011,-0.17166704,9.203626,-1.8835522,1.18141,-0.67073596,-1.547266,84.3,-174.90001,-12.3,,,,,,
844032,0.4175038,10.0171,-1.1526215,0.33536798,-1.989342,-0.487808,96.3,-167.70001,-18.900002,,,,,,
844052,0.9115699,11.075813,-1.359579,-0.60976,-1.29574,-0.160062,98.700005,-167.70001,-26.1,,,,,,
844072,0.83560574,11.011812,-1.5055258,-1.06708,-1.189032,-1.02897,84.3,-167.70001,-21.900002,,,,,,
844092,0.5891708,9.68214,-1.6072102,-0.99086,-1.173788,-1.516778,89.100006,-167.70001,-18.300001,,,,,,
844112,0.63462967,8.822011,-1.5784993,-0.274392,-1.303362,-1.051836,91.5,-160.5,-21.900002,,,,,,
844132,0.8362039,8.841749,-1.7836623,0.137196,-1.158544,-0.068598,105.9,-167.70001,-26.7,,,,,,
844172,0.9187476,8.834572,-2.0480416,0.868908,-1.234764,0.998482,84.3,-165.3,-24.900002,,,,,,
844207,0.995908,9.0217905,-2.4051328,0.312502,-1.417692,0.625004,96.3,-170.1,-20.1,,,,,,
844227,1.0455539,8.849525,-2.1951847,0.243904,-1.920744,1.059458,103.50001,-155.70001,-20.7,,,,,,
844267,1.472628,9.571484,-2.292682,0.03811,-1.6234859,1.6463519,93.9,-170.1,-15.900001,,,,,,
844287,1.4008509,9.423144,-2.2203066,0.106708,-1.539644,0.617382,93.9,-162.90001,-18.300001,,,,,,
844310,1.4552819,9.446472,-2.469134,0.312502,-1.3490939,0.320124,91.5,-170.1,-20.1,,,,,,
844330,1.3835047,9.232337,-2.3572814,0.586894,-1.288118,-0.16768399,84.3,-160.5,-20.1,,,,,,
844350,1.5216757,9.46322,-2.2460268,0.55640596,-1.021348,-0.243904,91.5,-172.5,-23.1,,,,,,
844370,1.2076507,9.004444,-2.3028505,0.23628199,-0.548784,-0.99086,96.3,-172.5,-15.3,,,,,,
844393,1.1107515,8.857301,-2.4242735,0.373478,-0.3811,-0.80793196,96.3,-170.1,-23.7,,,,,,
844453,0.8421853,9.159364,-2.6503716,0.56402797,-0.46494198,0.0,91.5,-160.5,-20.1,,,,,,
844565,0.9845433,9.0433235,-2.4619565,-0.160062,-0.083841994,0.426832,86.700005,-167.70001,-21.300001,,,,,,
844585,1.3159145,9.336413,-2.4164977,-0.030488,-0.30488,0.785066,96.3,-167.70001,-19.5,,,,,,
844625,1.3559902,8.909938,-2.51878,-0.373478,-0.28201398,0.33536798,89.100006,-177.3,-13.500001,,,,,,
844645,1.2363615,9.030165,-2.5672297,-0.022866,-0.55640596,0.449698,91.5,-174.90001,-14.1,,,,,,
844665,1.3099331,9.080408,-2.5612483,-0.068598,-0.92988396,0.327746,86.700005,-170.1,-23.7,,,,,,
844685,1.6036214,9.161756,-2.4499936,-0.23628199,-1.044214,0.312502,89.100006,-155.70001,-17.1,,,,,,
844705,1.6538653,8.990088,-2.3955626,-0.541162,-0.830798,0.022866,91.5,-158.1,-20.7,,,,,,
844725,1.9308056,9.223963,-2.510406,-0.82317597,-0.525918,-0.091464,91.5,-167.70001,-15.3,,,,,,
844745,2.2747378,9.438696,-2.948845,-1.730194,0.434454,-0.861286,96.3,-165.3,-18.300001,,,,,,
844765,2.0552192,8.790309,-3.57211,-2.2713559,1.3872039,-1.920744,93.9,-172.5,-23.1,,,,,,
844785,2.5157893,8.37759,-4.255189,-1.1128119,1.021348,-1.669218,93.9,-167.70001,-15.900001,,,,,,
844805,3.3089268,7.9762363,-3.995595,-1.318606,-0.87653,-1.097568,96.3,-170.1,-20.1,,,,,,
844825,3.9040792,7.451665,-3.6307278,-0.739334,-0.34298998,-1.059458,86.700005,-177.3,-14.1,,,,,,
844845,4.099672,6.93487,-3.7473657,0.243904,0.731712,-1.8445239,98.700005,-162.90001,-20.7,,,,x,,
844865,4.9747553,7.329046,-3.4441073,0.81555396,0.365856,-1.6387299,91.5,-153.3,-21.300001,,,,x,,
844885,5.4125957,7.4755907,-2.7012136,-0.7622,1.516778,-2.7591639,93.9,-160.5,-20.7,,,,x,,
844905,4.57699,6.2242756,-2.5343318,-2.05794,3.8033779,-4.68753,91.5,-167.70001,-23.1,,,,x,,
844925,3.4991364,4.618262,-1.9810495,-1.6539739,3.948196,-6.219552,96.3,-174.90001,-22.5,,,,x,,
844945,3.2604773,3.4572663,-0.803306,-0.891774,3.8186219,-6.181442,101.100006,-158.1,-23.1,,,,x,,
845007,2.1365666,3.6115873,0.5819931,0.426832,11.112876,-6.32626,122.700005,-162.90001,-16.5,,,,x,,
845047,-0.9008033,1.8099806,0.2464349,2.43904,11.09001,-8.178406,137.1,-150.90001,-16.5,,,,x,,
845068,-1.0700778,2.095893,0.7847636,3.6890478,9.100668,-6.067112,120.3,-146.1,-18.900002,,,,x,,
845109,-3.8041892,8.497219,0.7339214,1.509156,8.582372,-6.0747337,139.5,-138.90001,-8.1,,,,x,,
845129,-4.242628,6.7877264,-0.34273592,2.675322,6.257662,-8.833898,137.1,-143.70001,-8.1,,,,x,,
845149,-4.329359,6.7966986,0.33914706,3.102154,2.2865999,-6.204308,156.3,-143.70001,-9.3,,,,x,,
845169,-5.395848,8.143717,-0.778184,2.103672,2.530504,-3.109776,153.90001,-143.70001,-9.3,,,,x,,
845191,-4.2677503,9.578063,-1.7621292,2.6677,-1.692084,-0.64787,149.1,-150.90001,-12.900001,,,,x,,
845211,-4.7791624,10.639768,-0.9983006,2.865872,-3.39179,-0.49543,173.1,-134.1,-7.5000005,,,,x,,
845232,-7.1011534,11.929363,-2.5923517,1.8673899,-1.493912,0.60976,165.90001,-134.1,-11.700001,,,,x,,
845292,-5.8187346,12.276884,-2.418292,0.861286,-7.73633,0.93750596,170.70001,-131.70001,-2.7,,,,x,,
845346,-4.9430537,12.899551,-0.8948219,-0.442076,-14.390336,0.129574,173.1,-131.70001,-13.500001,,,,x,,
845366,-7.2985406,12.444365,-4.0464373,-0.091464,-3.856732,2.118916,165.90001,-143.70001,-15.3,,,,x,,
845386,-4.2270765,17.039898,-7.0724425,2.187514,-8.795788,6.51681,170.70001,-129.3,-15.3,,,,x,,
845406,-3.4668367,16.238983,-3.451883,-1.6463519,-18.25469,2.118916,165.90001,-141.3,-13.500001,,,,x,,
845426,-5.8354826,13.708838,-3.3137121,-0.792688,-9.725672,1.204276,168.3,-138.90001,-10.5,,,,x,,
845450,-4.1433363,15.737142,-7.083209,0.068598,-8.42231,3.452766,163.5,-134.1,-14.700001,,,,x,,
845470,-4.8479486,14.8853855,-7.0604796,0.739334,-7.553402,3.368924,161.1,-155.70001,-18.300001,,,,x,,
845490,-4.0853167,16.871819,-8.558229,0.899396,-8.910118,5.3354,168.3,-134.1,-19.5,,,,x,,
845510,-4.221095,15.607943,-7.4869556,-2.2408679,-12.035138,3.445144,151.5,-136.5,-8.700001,,,,x,,
845532,-3.6079984,15.177877,-7.380486,-2.080806,-10.762263,3.445144,151.5,-143.70001,-21.300001,,,,x,,
845552,-4.0063615,13.677137,-8.305813,-0.487808,-7.8735256,3.2622159,146.70001,-138.90001,-15.3,,,,x,,
845574,-2.2077458,13.1465845,-9.448266,0.81555396,-9.550365,6.349126,139.5,-158.1,-22.5,,,,x,,
845594,-0.70042545,14.166418,-7.219586,-1.570132,-15.762296,8.628104,141.90001,-153.3,-17.7,,,,x,,
845614,-0.96420646,12.676444,-6.6453686,0.373478,-4.38265,5.5030837,144.3,-155.70001,-26.7,,,,x,,
845634,-0.23088318,12.6070595,-8.116202,2.01983,-1.6387299,5.846074,122.700005,-160.5,-18.300001,,,,x,,
845654,0.1961909,12.371989,-8.590529,0.594516,-5.0838737,6.1204658,127.50001,-167.70001,-28.500002,,,,x,,
845674,0.9008033,12.119573,-6.7919135,-0.594516,-5.670768,6.272906,122.700005,-148.5,-20.7,,,,x,,
845694,0.92951417,10.237217,-6.6597238,-0.358234,-1.097568,3.0488,103.50001,-158.1,-24.900002,,,,x,,
845754,2.4440122,9.632494,-5.709275,-1.06708,-0.80793196,5.800342,98.700005,-162.90001,-27.300001,,,,x,,
845774,2.5211725,8.802272,-5.405418,-0.251526,2.126538,3.50612,98.700005,-170.1,-27.300001,,,,x,,
845797,2.003779,7.5132737,-5.615366,0.70122397,3.833866,1.8673899,101.100006,-167.70001,-27.300001,,,,x,,
845817,2.0600045,6.9217105,-5.1260853,0.358234,3.376546,1.730194,79.5,-174.90001,-27.900002,,,,x,,
845837,2.271747,6.4527664,-4.4657354,-0.289636,4.367406,1.737816,93.9,-165.3,-27.300001,,,,x,,
845877,2.1772404,5.6500583,-3.4136019,-0.594516,5.4573517,1.25763,84.3,-165.3,-30.900002,,,,x,,
845898,1.9308056,5.4604473,-2.2849061,-1.6539739,5.236314,0.92988396,77.100006,-177.3,-14.700001,,,,x,,
845918,2.0647895,4.902978,-1.5473958,-2.103672,5.724122,0.46494198,89.100006,-165.3,-25.500002,,,,x,,
845938,2.330365,4.9645867,-1.0868257,-2.111294,6.905532,0.739334,74.700005,-177.3,-21.300001,,,,x,,
845960,2.0863228,5.4060163,-0.9785619,-2.2484899,7.743952,0.34298998,84.3,-179.70001,-24.900002,,,,x,,
845981,1.7286332,4.8006954,-0.81646514,-2.195136,8.262248,-0.92988396,84.3,-167.70001,-21.900002,,,,x,,
846001,1.6939409,4.6679077,-0.6382185,-1.71495,8.208894,-1.074702,89.100006,-172.5,-21.900002,,,,x,,
846023,1.3900843,4.271339,-0.33137122,-1.440558,8.506152,-1.75306,89.100006,-162.90001,-20.7,,,,x,,
846043,1.3206997,4.694824,-0.32060462,-0.739334,9.199754,-1.501534,86.700005,-179.70001,-21.900002,,,,x,,
846063,1.0975924,5.2343493,-0.35110992,-0.41158798,9.207376,-1.9054999,79.5,-165.3,-21.300001,,,,x,,
846083,0.72794,5.167357,-0.5514878,-0.091464,9.237864,-2.522882,91.5,-165.3,-29.1,,,,x,,
846103,0.2781365,5.3097153,-0.8182596,0.45731997,8.239382,-2.2027578,91.5,-172.5,-23.1,,,,x,,
846123,0.19678904,5.9383636,-0.86910176,1.211898,6.661628,-1.310984,93.9,-172.5,-21.300001,,,,x,,
846143,0.3744375,6.9097476,-0.31940836,1.8369019,4.53509,-0.625004,81.9,-179.70001,-23.7,,,,x,,
846163,1.0365818,8.378787,0.25839776,0.91463995,3.35368,0.327746,89.100006,-165.3,-27.900002,,,,x,,
846183,-0.04426258,7.627519,-0.25779963,-0.541162,6.318638,-1.29574,101.100006,-170.1,-14.1,,,,x,,
846227,0.24523862,11.105123,-0.9911229,-0.358234,3.003068,0.625004,89.100006,-165.3,-25.500002,,,,x,,
846247,0.124413736,12.360026,-1.6598468,-0.82317597,2.850628,-1.051836,93.9,-172.5,-15.900001,,,,x,,
846267,-0.69803286,10.610458,-1.9343944,-0.67835796,1.189032,-3.605206,91.5,-172.5,-17.1,,,,x,,
846288,-0.5078234,9.3890505,-1.5013388,0.20579399,-1.3795819,-2.599102,103.50001,-179.70001,-24.300001,,,,x,,
846308,-0.08972145,10.227049,-1.067087,-0.137196,-2.050318,-0.68597996,81.9,-167.70001,-22.5,,,,x,,
846349,-0.16508746,9.200635,-1.0168431,-1.089946,-1.18141,-1.097568,91.5,-177.3,-12.900001,,,,x,,
846412,0.732127,9.374695,-1.3272792,-0.022866,-0.083841994,0.182928,96.3,-167.70001,-17.7,,,,x,,
846432,0.53234726,9.003248,-1.5378256,-0.129574,0.28201398,0.0,91.5,-172.5,-23.7,,,,x,,
846472,0.861924,8.763392,-2.1156316,0.769822,-0.045732,0.68597996,105.9,-174.90001,-23.7,,,,x,,
846492,0.7410991,8.512771,-2.4332457,0.785066,-0.015244,1.044214,93.9,-177.3,-19.5,,,,x,,
846516,1.4170007,8.987697,-2.950041,1.48629,-1.158544,2.042696,84.3,-155.70001,-17.1,,,,x,,
846536,1.7974197,9.217383,-2.819646,1.318606,-1.493912,1.9131219,91.5,-167.70001,-25.500002,,,,x,,
846556,1.8691968,9.180298,-2.9141526,1.5929979,-1.29574,1.692084,81.9,-170.1,-15.900001,,,,x,,
