time,sensor_accX,sensor_accY,sensor_accZ,sensor_gyroX,sensor_gyroY,sensor_gyroZ,sensor_magX,sensor_magY,sensor_magZ,label_Boxing_slip_left,label_Boxing_slip_right,label_Boxing_pullback,label_Boxing_roll_left,label_Boxing_roll_right,label_Boxing_recording_cut
416682,1.5850788,9.505688,-3.4333405,-0.015244,-1.173788,-0.40396598,93.9,-167.70001,-18.900002,,,,,,
416702,1.6580523,10.413071,-3.2867956,0.731712,-1.532022,0.35061198,96.3,-160.5,-11.700001,,,,,,
416766,-0.8128763,9.877135,-3.4877717,0.030488,-0.998482,-2.332332,103.50001,-160.5,-13.500001,,,,,,
416786,-1.2704557,8.679652,-3.301151,-0.487808,-1.089946,-2.62959,117.9,-158.1,-11.700001,,,,,,
416806,-1.9325999,7.669987,-3.0822308,-0.16768399,-1.18141,-1.288118,113.100006,-153.3,-12.3,,,,,,
416826,-1.5306479,8.502005,-2.9051805,-0.396344,-0.91463995,1.1356779,115.50001,-167.70001,-15.900001,,,,,,
416846,-1.472628,8.470901,-2.6880546,-0.72409,-0.358234,0.57164997,115.50001,-153.3,-16.5,,,,,,
416908,-0.3702505,8.539089,-2.6587455,-0.015244,-0.312502,0.053354,115.50001,-153.3,-13.500001,,,,,,
417118,0.97796375,8.536696,-3.6163723,0.0,-0.144818,-0.106708,110.700005,-165.3,-11.700001,,,,,,
417138,0.8601296,8.780739,-3.3663487,-0.602138,-0.15244,0.182928,108.3,-158.1,-17.7,,,,,,
417178,2.799309,11.7104435,-3.4901643,-1.29574,-0.548784,0.327746,115.50001,-153.3,-9.900001,,,,,,
417240,0.86611104,10.083494,-2.9003952,-1.006104,1.79117,1.6158639,108.3,-158.1,-12.900001,,,,,,
417260,0.5221788,9.704271,-2.9225266,-0.579272,2.01983,-1.4024479,103.50001,-158.1,-16.5,,,,,,
417300,0.1268063,8.801076,-2.761626,-0.518296,1.48629,-0.53354,105.9,-155.70001,-11.1,,,,,,
417320,0.092712164,8.733485,-2.9356856,-0.365856,1.737816,-0.67835796,108.3,-155.70001,-14.700001,,,,,,
417340,0.11544159,8.790907,-2.7544484,-0.060976,1.288118,-0.365856,113.100006,-160.5,-10.5,,,,,,
417360,0.0723753,9.094764,-3.066679,0.007622,1.516778,-0.55640596,108.3,-158.1,-11.700001,,,,,,
417380,0.18063918,9.037342,-3.1707559,0.083841994,1.082324,-0.72409,115.50001,-158.1,-17.7,,,,,,
417400,0.2781365,9.008632,-3.0313885,0.030488,0.716468,-0.655492,110.700005,-160.5,-14.1,,,,,,
417420,0.17226517,8.901564,-3.0523236,-0.137196,0.69360197,-0.716468,120.3,-153.3,-11.700001,,,,,,
417440,0.16209674,9.296338,-3.3346472,-0.083841994,0.46494198,-0.41921,108.3,-162.90001,-12.3,,,,,,
417462,0.24822934,9.329834,-3.3107214,-0.17530599,-0.07622,-0.72409,110.700005,-165.3,-17.1,,,,,,
417482,0.2506219,9.126466,-3.107951,-0.41921,-0.320124,-0.80030996,122.700005,-148.5,-12.900001,,,,,,
417502,0.31163248,9.374097,-3.0935955,-0.358234,-0.20579399,-0.69360197,127.50001,-153.3,-16.5,,,,,,
417522,0.27993092,9.191663,-3.0433514,-0.617382,-0.030488,-1.1356779,113.100006,-153.3,-14.1,,,,,,
417544,0.2254999,9.213795,-2.8609178,-0.891774,0.320124,-0.92226195,120.3,-162.90001,-10.5,,,,,,
417564,0.06340315,8.533706,-2.8393848,-1.189032,0.83842,-1.204276,127.50001,-143.70001,-23.1,,,,,,
417584,0.13876916,8.687428,-3.0200238,-0.30488,0.846042,-0.3811,129.90001,-141.3,-8.700001,,,,,,
417604,0.12321745,9.058277,-2.9847333,-0.160062,0.7622,-0.33536798,117.9,-153.3,-16.5,,,,,,
417645,0.26617363,8.800478,-2.8011036,-0.11432999,0.33536798,-0.548784,115.50001,-148.5,-9.3,,,,,,
417665,0.40434465,8.801076,-2.723943,-0.182928,0.434454,-0.480186,101.100006,-155.70001,-16.5,,,,,,
417689,0.36785793,8.76399,-2.873479,-0.17530599,0.68597996,-0.518296,117.9,-155.70001,-18.300001,,,,,,
417710,0.3588858,8.945827,-2.8555346,0.007622,0.47256398,-0.525918,125.100006,-150.90001,-11.1,,,,,,
417730,0.34991363,9.103736,-2.836394,0.022866,0.396344,-0.72409,105.9,-174.90001,-17.1,,,,,,
417752,0.049047723,8.875844,-2.7688038,-0.28201398,0.510674,-0.998482,113.100006,-158.1,-15.3,,,,,,
417812,-0.8475686,9.55653,-2.7245412,0.358234,-0.55640596,-1.250008,129.90001,-153.3,-12.3,,x,,,,
417838,-1.0347873,11.781622,-2.7203543,0.03811,-1.3643379,-1.3872039,125.100006,-153.3,-14.1,,x,,,,
417858,-1.8817577,11.629694,-2.970976,-1.18141,-1.242386,-3.841488,125.100006,-155.70001,-15.3,,x,,,,
417898,-3.7850487,7.5700974,-2.9195359,-1.326228,-3.6661818,-4.80186,134.70001,-141.3,-3.9,,x,,,,
417922,-2.3949645,9.515857,-2.7514577,-2.065562,-6.70736,-2.2865999,144.3,-155.70001,-17.1,,x,,,,
417942,-1.2961758,8.921901,-1.6472857,-2.644834,-9.657074,-3.650938,151.5,-148.5,-23.1,,x,,,,
417965,-1.2477262,7.0377502,-0.8948219,-1.8369019,-9.557988,-3.8033779,156.3,-153.3,-10.5,,x,,,,
417985,-1.8410841,6.121395,-1.0138524,-1.8597679,-8.643348,-2.36282,146.70001,-155.70001,-18.900002,,x,,,,
418005,-2.0683784,6.117208,-1.1909027,-1.044214,-10.335432,-0.33536798,163.5,-153.3,-24.300001,,x,,,,
418025,-1.9320018,5.812753,-0.46714967,-1.3719599,-12.515324,-0.289636,153.90001,-143.70001,-26.7,,x,,,,
418047,-1.4062341,6.681855,-0.8344094,-0.358234,-12.469592,-0.26677,156.3,-138.90001,-17.7,,x,,,,
418068,-1.1639862,7.359551,-1.0467502,0.129574,-13.933016,-1.051836,146.70001,-150.90001,-25.500002,,x,,,,
418088,0.14056359,7.2871757,-0.71418273,-1.044214,-14.992474,-1.6234859,151.5,-155.70001,-24.300001,,x,,,,
418152,-0.48210323,10.018296,-4.108644,6.806446,-6.920776,7.271388,153.90001,-146.1,-24.900002,,x,,,,
418172,-0.11065645,13.812916,-5.464036,3.102154,-3.6814258,4.72564,156.3,-143.70001,-25.500002,,x,,,,
418232,-0.1268063,13.721998,-8.520547,5.815586,6.4634557,5.236314,151.5,-153.3,-23.1,,x,,,,
418262,1.8608228,15.305283,-10.082896,2.82014,5.000032,1.1128119,139.5,-158.1,-24.900002,,x,,,,
418283,1.2058562,13.413356,-9.158765,1.326228,1.41007,-1.432936,156.3,-146.1,-23.7,,x,,,,
418303,1.2866055,13.717811,-7.8332806,-0.83842,2.065562,-0.87653,127.50001,-148.5,-12.900001,,x,,,,
418366,-0.9618139,9.342993,-6.476094,-2.408552,7.50767,-2.980202,151.5,-148.5,-20.7,,x,,,,
418386,-0.94566405,9.572082,-5.471214,-2.461906,6.112844,-2.118916,156.3,-148.5,-14.1,,x,,,,
418406,-1.426571,8.740065,-4.329359,-2.637212,6.036624,-3.475632,153.90001,-146.1,-27.300001,,x,,,,
418430,-1.564742,7.5772753,-3.380106,-2.469528,6.265284,-3.323192,165.90001,-153.3,-15.900001,,x,,,,
418493,-1.9930124,6.005954,-1.9960032,-1.6006199,4.984788,-1.783548,165.90001,-150.90001,-21.900002,,x,,,,
418553,-1.3230922,6.8792424,-0.58318937,-1.471046,3.2927039,-2.919226,153.90001,-148.5,-18.300001,,x,,,,
418613,-1.7268387,8.204727,-0.85414815,-1.577754,4.771372,-1.935988,173.1,-141.3,-18.900002,,x,,,,
418633,-1.8578321,8.098856,-1.0216281,-1.768304,5.14485,-2.370442,175.5,-136.5,-17.7,,x,,,,
418653,-2.606109,7.7369795,-1.447506,-1.509156,5.701256,-2.568614,177.90001,-141.3,-19.5,,x,,,,
418693,-2.0450509,10.669674,-2.096491,0.320124,4.23021,-0.525918,182.70001,-129.3,-19.5,,x,,,,
418759,-3.3274693,9.444677,-3.1312785,0.251526,3.2545938,-1.173788,180.3,-136.5,-11.700001,,x,,,,
418796,-3.2826085,9.496118,-3.3352451,0.640248,1.8750119,-1.6539739,170.70001,-129.3,-14.1,,x,,,,
418857,-2.572613,8.831581,-3.2084389,0.899396,-0.55640596,0.41921,182.70001,-129.3,-14.1,,,,,,
418877,-2.4368346,8.437405,-2.9966962,0.396344,-0.434454,0.41158798,182.70001,-124.50001,-25.500002,,,,,,
418919,-1.2584928,9.209009,-2.765215,0.20579399,-1.1204339,1.41007,182.70001,-138.90001,-13.500001,,,,,,
418940,-0.82902616,9.246094,-2.6886528,-0.3811,-0.663114,1.051836,175.5,-129.3,-12.900001,,,,,,
418960,-0.89422375,8.9865,-2.8328052,-0.434454,-0.099086,0.746956,168.3,-134.1,-17.1,,,,,,
418980,-0.94327146,9.2054205,-2.974565,-0.099086,-0.358234,0.632626,168.3,-126.9,-20.1,,,,,,
419002,-0.88046646,9.094166,-2.819048,-0.121952,-0.41158798,0.56402797,173.1,-129.3,-9.3,,,,,,
419042,-1.2638761,8.911732,-3.3585727,-0.487808,0.70122397,0.47256398,180.3,-138.90001,-13.500001,,,,,,
419062,-1.2447355,9.449463,-3.9597065,0.144818,0.739334,0.746956,173.1,-134.1,-15.900001,,,,,,
419082,-1.2220061,9.265235,-3.8287132,0.068598,-0.617382,0.586894,168.3,-148.5,-11.1,,,,,,
419102,-1.1035738,8.7843275,-3.4698274,-0.160062,-0.548784,0.60976,175.5,-124.50001,-16.5,,,,,,
419167,-1.1233125,8.997267,-3.4787996,-0.45731997,0.81555396,0.510674,173.1,-143.70001,-15.3,,,,,,
419187,-1.1639862,8.746645,-3.460257,-0.617382,0.94512796,0.297258,168.3,-124.50001,-16.5,,,,,,
419207,-1.1376679,8.77715,-3.2150185,-0.47256398,0.67073596,0.083841994,163.5,-141.3,-14.700001,,,,,,
419267,-1.0724703,9.098951,-3.0816326,-0.41921,1.554888,-0.55640596,161.1,-124.50001,-12.900001,,,,,,
419331,-1.1938933,8.704177,-2.8555346,0.045732,1.3872039,-0.46494198,168.3,-143.70001,-14.700001,,,,,,
419351,-1.1765472,8.911732,-2.9823408,-0.007622,1.661596,-0.518296,168.3,-134.1,-14.700001,,,,,,
419373,-1.2525114,9.325647,-3.485379,0.11432999,1.920744,-0.70122397,163.5,-131.70001,-18.300001,,,,,,
419393,-1.3655604,9.106727,-3.5457916,0.030488,1.310984,-0.998482,161.1,-129.3,-10.5,,,,,,
419453,-1.5007408,9.011622,-3.5188751,-0.46494198,1.097568,-0.41921,170.70001,-126.9,-18.900002,,,,,,
419474,-1.5168905,8.836366,-3.5248566,-0.358234,0.548784,-0.198172,168.3,-124.50001,-13.500001,,,,,,
419494,-1.5067221,8.924891,-3.4901643,-0.289636,0.28201398,-0.16768399,173.1,-136.5,-10.5,,,,,,
419516,-1.418197,9.082203,-3.5380156,-0.33536798,0.160062,-0.17530599,180.3,-129.3,-14.700001,,,,,,
419536,-1.4732262,8.851319,-3.460257,-0.442076,0.022866,-0.297258,175.5,-136.5,-16.5,,,,,,
419558,-1.4421227,8.683242,-3.3645542,-0.47256398,-0.099086,-0.068598,161.1,-138.90001,-14.1,,,,,,
419578,-1.3392421,8.778944,-3.30474,-0.579272,-0.07622,0.16768399,161.1,-131.70001,-9.3,,,,,,
419638,-0.99231917,8.680251,-3.1653726,-0.541162,-0.23628199,0.07622,168.3,-141.3,-15.900001,,,,,,
419658,-0.89841074,8.838758,-3.2700477,-0.35061198,0.20579399,0.030488,173.1,-131.70001,-14.1,,,,,,
419678,-0.90977544,8.850123,-3.3298619,-0.274392,0.312502,-0.053354,168.3,-141.3,-16.5,,,,,,
419698,-0.71657526,8.983509,-3.222196,-0.16768399,0.11432999,-0.144818,153.90001,-136.5,-12.3,,,,,,
419719,-0.55208594,9.239514,-3.1450357,-0.426832,0.442076,-0.243904,165.90001,-136.5,-14.1,,,,,,
419739,-0.8152689,8.9894905,-3.0798383,-1.06708,1.044214,-0.67835796,173.1,-126.9,-13.500001,,,,,,
419759,-0.9073829,8.722121,-3.0188277,-1.189032,1.158544,-0.967994,163.5,-136.5,-14.700001,,,,,,
419779,-1.1514252,8.578567,-2.7622242,-1.06708,1.29574,-1.1128119,153.90001,-131.70001,-17.7,,x,,,,
419799,-1.2830167,9.088184,-2.8968065,-0.80030996,1.775926,-0.975616,168.3,-143.70001,-14.700001,,x,,,,
419819,-1.7358109,8.640175,-2.719158,-0.70122397,1.3643379,-1.3795819,170.70001,-131.70001,-15.3,,x,,,,
419839,-2.1742496,9.125867,-2.380609,-0.449698,0.868908,-0.579272,173.1,-126.9,-17.7,,x,,,,
419859,-3.3950596,9.0756235,-2.3967588,-0.55640596,0.55640596,-0.487808,163.5,-134.1,-12.900001,,x,,,,
419879,-3.7832544,9.168934,-2.1880069,0.068598,-0.49543,0.068598,170.70001,-124.50001,-17.7,,x,,,,
419939,-6.200948,9.690515,-2.8316088,0.19055,-1.71495,1.18141,158.70001,-148.5,-11.700001,,x,,,,
419959,-5.3067245,10.1881695,-2.5510798,0.548784,-4.138746,3.1936178,170.70001,-146.1,-10.5,,x,,,,
419979,-4.681665,10.130149,-2.5032284,0.26677,-5.5945477,3.2088618,161.1,-138.90001,-7.5000005,,x,,,,
420022,-3.4817903,7.2441096,-2.4188902,0.884152,-7.225656,1.6234859,173.1,-136.5,-14.700001,,x,,,,
420057,-2.2448306,6.607087,-3.4776032,2.195136,-10.602201,3.490876,161.1,-153.3,-15.900001,,x,,,,
420077,-1.794429,6.5915356,-2.363861,0.442076,-12.72874,2.6829438,158.70001,-146.1,-23.7,,x,,,,
420119,0.09689916,5.6135716,-2.5738091,-0.35061198,-13.407098,2.149404,158.70001,-134.1,-17.1,,x,,,,
420160,1.5515828,5.145226,-3.6600368,2.09605,-10.617446,4.83997,168.3,-153.3,-21.900002,,x,,,,
420259,3.2873938,13.940918,-7.2482967,0.625004,0.602138,0.373478,122.700005,-148.5,-20.7,,x,,,,
420301,3.1241007,12.741043,-7.0634704,0.106708,-1.745438,-0.92988396,139.5,-148.5,-19.5,,x,,,,
420321,1.9816476,12.211687,-5.6177588,-1.3414719,1.272874,-2.2637339,139.5,-153.3,-21.300001,,x,,,,
420363,0.6011337,10.50339,-7.168145,-1.966476,9.611341,-5.3658876,146.70001,-153.3,-19.5,,x,,,,
420383,-0.573021,9.095362,-6.6369944,-2.850628,8.940606,-5.6097918,153.90001,-141.3,-15.900001,,x,,,,
420403,-1.598238,8.264542,-5.96528,-3.12502,8.696702,-4.397894,156.3,-134.1,-17.7,,x,,,,
420423,-1.9254222,7.839262,-5.3617535,-3.018312,8.11743,-3.2545938,144.3,-146.1,-20.1,,x,,,,
420486,-1.5150962,7.144818,-3.6767848,-2.09605,8.795788,-2.339954,144.3,-136.5,-16.5,,x,,,,
420541,-1.6742022,7.54019,-2.895012,-1.684462,6.814068,-2.500016,170.70001,-150.90001,-19.5,,x,,,,
420582,-1.6484821,7.9612827,-2.6497734,-1.097568,4.397894,-1.699706,156.3,-131.70001,-20.7,,x,,,,
420602,-1.49775,8.298038,-1.3960657,-1.8673899,3.84911,-2.355198,180.3,-138.90001,-17.1,,x,,,,
420642,-2.3602722,8.218485,-2.3985534,-0.998482,5.175338,-1.783548,182.70001,-131.70001,-14.700001,,x,,,,
420686,-2.5259578,9.07981,-1.7059038,-0.960372,4.314052,-0.518296,165.90001,-129.3,-14.1,,x,,,,
420716,-2.811272,9.034351,-2.250812,-0.426832,2.995446,-0.868908,173.1,-126.9,-16.5,,x,,,,
420736,-2.6653252,9.1838875,-2.1640813,-0.487808,2.812518,-0.640248,170.70001,-136.5,-14.700001,,x,,,,
420776,-2.601922,8.834572,-2.4446104,-0.251526,1.989342,-0.289636,173.1,-141.3,-15.900001,,x,,,,
420796,-2.861516,9.318469,-2.5510798,-0.007622,1.3719599,0.396344,163.5,-146.1,-20.1,,x,,,,
420816,-2.9093673,10.0476055,-2.677886,-0.03811,0.53354,0.213416,168.3,-131.70001,-17.1,,x,,,,
420836,-2.866301,9.8101425,-2.7849536,-0.53354,0.03811,-0.731712,149.1,-122.100006,-15.900001,,x,,,,
420918,-1.4660485,9.088782,-2.6635306,-0.91463995,-1.06708,0.640248,158.70001,-129.3,-6.9,,,,,,
421020,-0.8230447,9.177308,-2.7036061,0.655492,-0.30488,0.998482,168.3,-146.1,-12.3,,,,,,
421040,-0.8344094,9.39563,-2.9667892,0.015244,0.198172,0.28201398,168.3,-134.1,-18.300001,,,,,,
421080,-1.3362514,8.896778,-3.225785,-0.060976,0.060976,-0.03811,168.3,-138.90001,-9.3,,,,,,
421124,-1.0563204,9.2443,-3.109147,-0.022866,-0.868908,0.388722,153.90001,-143.70001,-12.900001,,,,,,
421144,-0.9755712,8.9356575,-3.0493329,-0.518296,-0.503052,0.426832,153.90001,-138.90001,-12.900001,,,,,,
421187,-0.7476787,8.909938,-3.032585,-0.68597996,0.213416,0.81555396,153.90001,-136.5,-8.1,,,,,,
421227,-0.4342518,9.338806,-2.7759814,-0.518296,0.487808,0.81555396,163.5,-148.5,-17.7,,,,,,
421317,-0.75605273,8.966762,-2.8639085,-0.11432999,0.442076,0.221038,149.1,-146.1,-9.900001,,,,,,
421379,-0.9983006,9.056482,-2.9931073,-0.57164997,0.975616,-0.022866,158.70001,-134.1,-12.3,,,,,,
421436,-0.7500713,9.28258,-2.765215,-0.30488,1.006104,-0.015244,156.3,-138.90001,-17.1,,x,,,,
421459,-0.79553014,9.008632,-3.0277996,-0.251526,1.158544,-0.365856,151.5,-141.3,-8.1,,x,,,,
421519,-0.48449582,9.051698,-2.723943,-0.182928,0.746956,-0.716468,163.5,-138.90001,-16.5,,x,,,,
421554,-0.7034161,8.634792,-2.9560225,-0.137196,0.998482,-0.60976,161.1,-138.90001,-21.300001,,x,,,,
421575,-0.5066271,8.7950945,-2.7329152,-0.11432999,0.846042,-0.426832,149.1,-134.1,-12.900001,,x,,,,
421617,-0.8780739,8.582155,-2.8106737,-0.297258,1.1280559,-0.785066,151.5,-129.3,-12.900001,,x,,,,
421637,-1.1149385,8.859694,-2.6868582,0.11432999,0.82317597,-0.396344,163.5,-136.5,-10.5,,x,,,,
421657,-1.4469079,9.034351,-2.5044246,-0.015244,0.746956,-0.663114,161.1,-153.3,-15.900001,,x,,,,
421680,-2.1060615,8.96078,-2.3919737,-0.083841994,0.69360197,-0.82317597,151.5,-153.3,-15.900001,,x,,,,
421700,-3.0864177,9.433312,-2.61867,0.632626,0.518296,-0.17530599,161.1,-141.3,-17.1,,x,,,,
421720,-3.8203392,11.391633,-2.4129088,1.059458,-1.250008,1.3719599,156.3,-143.70001,-16.5,,x,,,,
421740,-5.117113,11.639264,-1.0485446,-1.074702,-2.7820299,-0.480186,163.5,-148.5,-19.5,,x,,,,
421763,-7.410393,8.2663355,-1.8351027,-0.487808,1.006104,-0.746956,161.1,-131.70001,-21.900002,,x,,,,
421783,-6.4312334,10.069139,-3.3077307,1.3643379,-0.41158798,3.0488,165.90001,-146.1,-9.3,,x,,,,
421803,-6.078329,9.763488,-3.1653726,1.25763,-4.5731997,3.01069,170.70001,-134.1,-17.7,,x,,,,
421823,-5.681162,7.628117,-3.091203,0.830798,-6.410102,3.2012398,149.1,-134.1,-15.3,,x,,,,
421885,-1.2477262,6.7428656,-3.7718897,3.384168,-12.873558,4.085392,144.3,-155.70001,-17.7,,x,,,,
422161,4.543494,13.808728,-8.670082,-0.82317597,6.036624,-1.013726,122.700005,-143.70001,-20.1,,x,,,,
422181,3.460257,12.180583,-9.015211,-2.195136,6.730226,-4.138746,122.700005,-153.3,-15.3,,x,,,,
422221,0.59694666,9.42793,-5.941952,-5.4268637,4.100636,-5.25918,132.3,-148.5,-13.500001,,x,,,,
422263,-0.41810194,7.2985406,-4.8670893,-4.53509,10.236346,-5.4268637,132.3,-153.3,-18.900002,,x,,,,
422397,-1.1364716,6.574189,-1.7639236,-1.189032,5.67839,-3.4299,156.3,-136.5,-19.5,,x,,,,
422418,-1.3278774,6.918122,-1.6861651,-1.471046,7.865904,-3.833866,163.5,-141.3,-18.900002,,x,,,,
422460,-1.9367869,7.318877,-2.0905097,-0.20579399,5.75461,-4.428382,153.90001,-146.1,-16.5,,x,,,,
422500,-2.2532046,8.938648,-1.2034637,-1.8369019,7.865904,-4.428382,158.70001,-153.3,-18.300001,,x,,,,
422540,-3.213224,8.807057,-1.6759967,0.274392,4.519846,-1.204276,168.3,-129.3,-12.900001,,x,,,,
422636,-3.74916,10.619431,-3.4303498,0.46494198,0.53354,0.40396598,165.90001,-138.90001,-17.1,,x,,,,
422656,-3.5170808,9.976427,-3.4315462,-0.41158798,-0.731712,0.015244,168.3,-138.90001,-12.900001,,x,,,,
422699,-2.259186,8.972743,-2.9267135,-0.983238,-1.8978779,1.06708,156.3,-126.9,-10.5,,x,,,,
422719,-1.6460894,9.032557,-2.8758714,-1.021348,-1.966476,1.41007,173.1,-136.5,-9.900001,,x,,,,
422741,-1.2668668,8.653335,-2.4147031,-0.998482,-1.8826339,1.242386,158.70001,-124.50001,-15.3,,,,,,
422761,-1.1903045,8.868666,-2.5415094,-0.81555396,-0.868908,1.326228,168.3,-134.1,-17.1,,,,,,
422802,-1.2076507,8.749636,-2.6946342,0.0,-0.594516,0.830798,165.90001,-143.70001,-15.3,,,,,,
422866,-1.0545261,8.594716,-3.1306803,0.251526,-0.64787,0.7622,161.1,-134.1,-14.1,,,,,,
422941,-0.45159793,8.846535,-3.3430212,0.20579399,-1.3643379,0.579272,165.90001,-141.3,-15.900001,,,,,,
422983,-0.5867783,9.113904,-3.4829865,-0.80030996,0.0,0.137196,165.90001,-124.50001,-16.5,,,,,,
423025,-0.7410991,9.0002575,-3.255094,-0.46494198,-0.221038,0.11432999,161.1,-141.3,-19.5,,,,,,
423053,-0.669322,8.939247,-3.1235025,-0.70122397,0.068598,0.045732,151.5,-141.3,-17.7,,,,,,
423073,-0.7686137,8.74485,-3.1402507,-0.777444,0.365856,0.07622,165.90001,-129.3,-15.900001,,,,,,
423134,-0.8188577,9.142017,-3.2096353,-0.518296,0.72409,-0.243904,146.70001,-141.3,-15.3,,,,,,
423418,-2.7119803,8.823805,-1.16279,0.525918,-1.1204339,-0.198172,156.3,-143.70001,-15.3,,x,,,,
423438,-3.7300196,10.039231,-1.1950897,0.480186,-0.663114,0.655492,173.1,-141.3,-11.700001,,x,,,,
423479,-5.4269514,10.392735,-2.4745176,-0.060976,-1.1280559,-0.182928,173.1,-146.1,-14.1,,x,,,,
423499,-5.5992165,8.969752,-2.8411791,-0.053354,-4.4664917,2.7667859,151.5,-131.70001,-12.3,,x,,,,
423519,-4.2563853,8.920704,-2.4553769,-0.11432999,-7.149436,4.580822,149.1,-129.3,-18.300001,,x,,,,
423539,-3.731216,8.670082,-2.1652775,-0.510674,-7.728708,4.4969797,158.70001,-126.9,-5.7000003,,x,,,,
423559,-3.0134442,7.564714,-3.7503564,1.493912,-6.532054,4.336918,153.90001,-143.70001,-17.1,,x,,,,
423579,-2.3644593,7.5318165,-3.9985857,2.187514,-11.897942,4.64942,141.90001,-148.5,-14.1,,x,,,,
423622,-2.175446,5.421568,-3.3442173,3.323192,-15.327842,2.8048959,137.1,-143.70001,-21.300001,,x,,,,
423672,-1.0910128,5.4395123,-1.9810495,5.0686297,-17.850723,6.768336,149.1,-155.70001,-17.1,,x,,,,
423717,1.1783416,7.818925,-3.8885274,3.7728899,-12.286664,5.5945477,127.50001,-158.1,-21.300001,,x,,,,
423779,4.6427855,13.268605,-7.5108814,2.7972739,-6.676872,8.521396,103.50001,-150.90001,-18.300001,,x,,,,
423898,3.5535674,11.716425,-7.385271,-3.041178,2.004586,-1.8978779,115.50001,-155.70001,-17.1,,x,,,,
423919,1.7782791,9.330432,-7.38886,-3.92533,10.411652,-4.352162,113.100006,-150.90001,-12.3,,x,,,,
423959,0.12501188,8.49064,-5.8121552,-4.862836,10.55647,-4.756128,122.700005,-153.3,-23.1,,x,,,,
423979,-0.5239732,7.914628,-6.036459,-4.0167937,12.911668,-5.198204,129.90001,-155.70001,-12.900001,,x,,,,
423999,-1.0862277,7.3278494,-5.73021,-3.978684,10.998546,-4.9619217,134.70001,-153.3,-14.1,,x,,,,
424021,-0.9002052,6.543086,-4.5500736,-4.26832,8.978716,-4.237832,127.50001,-160.5,-15.900001,,x,,,,
424041,-0.4731311,6.471907,-3.5416045,-4.222588,10.015307,-3.155508,132.3,-148.5,-14.1,,x,,,,
424061,-0.3953725,6.965375,-3.9650898,-3.6966698,12.1799555,-2.827762,139.5,-150.90001,-11.700001,,x,,,,
424081,-0.93848634,6.401326,-4.2282724,-3.2393498,11.257693,-3.452766,129.90001,-153.3,-18.300001,,x,,,,
424104,-0.719566,5.9317837,-3.564334,-2.522882,8.567128,-3.1936178,137.1,-146.1,-16.5,,x,,,,
424124,-0.25241634,6.2924643,-2.861516,-2.2865999,7.644866,-2.461906,134.70001,-162.90001,-13.500001,,x,,,,
424144,-0.4940661,6.923505,-2.8920212,-2.492394,8.5899935,-2.2865999,141.90001,-148.5,-18.300001,,x,,,,
424164,-0.78835243,7.243511,-3.162382,-2.179892,6.93602,-2.812518,144.3,-155.70001,-17.1,,x,,,,
424224,-2.065986,7.960685,-2.3518982,-1.79117,6.25004,-2.431418,144.3,-138.90001,-7.5000005,,x,,,,
424338,-3.0260053,9.965062,-1.5886678,-0.80793196,3.338436,-2.423796,151.5,-138.90001,-12.900001,,x,,,,
424377,-3.2473183,9.913622,-2.158698,-0.15244,1.8369019,-1.6082419,158.70001,-143.70001,-18.300001,,x,,,,
424397,-3.0128462,10.303013,-2.3064394,-0.23628199,0.57164997,-1.089946,163.5,-138.90001,-14.700001,,x,,,,
424439,-2.5660334,9.264636,-3.0379682,-0.274392,-0.594516,-0.327746,153.90001,-141.3,-14.1,,x,,,,
424481,-1.6425006,8.66111,-2.7873464,0.64787,-2.942092,1.516778,170.70001,-138.90001,-14.1,,x,,,,
424558,-0.5508897,8.93506,-3.0421553,0.060976,-1.006104,1.1204339,156.3,-138.90001,-17.1,,,,,,
424578,-0.54610455,9.157569,-3.1306803,0.045732,-1.280496,1.036592,161.1,-143.70001,-16.5,,,,,,
424620,-0.47014037,8.649746,-2.7933276,-0.510674,-0.82317597,0.716468,158.70001,-143.70001,-7.5000005,,,,,,
424661,-0.44023323,9.020595,-3.1145306,-0.083841994,-0.259148,0.35061198,156.3,-148.5,-9.3,,,,,,
424701,-0.69085515,9.177308,-3.204252,-0.16768399,0.106708,-0.091464,144.3,-138.90001,-18.300001,,,,,,
424860,-0.723753,9.398621,-2.8657029,0.602138,-0.221038,-1.6006199,153.90001,-143.70001,-17.1,,,,,,
424881,-1.2261931,8.671279,-3.1767373,0.442076,-0.22865999,-2.111294,165.90001,-153.3,-13.500001,,,,,,
424922,-1.2584928,9.110913,-3.2527015,1.493912,-1.6387299,-0.579272,156.3,-141.3,-12.3,,,,,,
424965,-0.9241309,9.075026,-3.1462321,0.503052,-1.051836,0.0,165.90001,-126.9,-14.1,,,,,,
424985,-0.8045023,9.359741,-3.5134919,0.137196,0.0,0.22865999,151.5,-143.70001,-14.1,,,,,,
425005,-1.9894235,8.990088,-4.021315,-1.044214,0.64787,0.198172,156.3,-136.5,-11.700001,,,,,,
425025,-0.3923818,8.097061,-3.4171908,-0.655492,-0.47256398,-0.56402797,163.5,-148.5,-12.3,,,,,,
425045,-0.33137122,8.5037985,-2.0426583,1.440558,-2.492394,0.312502,175.5,-143.70001,-15.3,,,,,,
425066,-0.75784713,8.955995,-2.5026302,0.182928,1.67684,-0.007622,153.90001,-131.70001,-14.1,,,,,,
425086,-1.0347873,9.526025,-3.8053856,0.068598,3.064044,0.28201398,151.5,-131.70001,-11.1,,,,,,
425110,-0.652574,8.519949,-3.1767373,0.121952,1.41007,-0.30488,170.70001,-146.1,-12.900001,,,,,,
425130,-0.8421853,8.598305,-2.8752732,1.928366,1.074702,-0.17530599,156.3,-129.3,-15.900001,,,,,,
425190,-0.748875,9.040931,-3.175541,1.9054999,1.3795819,-1.966476,161.1,-136.5,-8.700001,,,,,,
425339,-0.80510044,8.7191305,-3.6875515,-0.548784,1.3414719,0.213416,146.70001,-148.5,-3.3000002,,,,,,
425380,-0.9725805,8.451162,-3.9136496,0.297258,0.975616,0.373478,158.70001,-131.70001,-5.1000004,,,,,,
425480,-1.4020472,8.805263,-4.0440445,-0.792688,0.106708,1.18141,165.90001,-134.1,-4.5,,,,,,
425516,-0.7763896,8.51935,-2.9769576,-1.265252,1.082324,2.36282,146.70001,-138.90001,-4.5,,,,,,
425536,-0.74229544,8.913527,-3.8006005,-0.586894,3.445144,2.2789779,137.1,-131.70001,-7.5000005,,,,,,
425576,-0.39477435,8.590529,-3.0822308,0.35061198,1.501534,0.960372,151.5,-131.70001,-5.1000004,,,,,,
425599,-0.51859,8.6551285,-3.2592812,-0.106708,2.126538,0.57164997,156.3,-124.50001,-5.7000003,,,,,,
425619,-0.7620341,8.801674,-3.6432889,-0.099086,2.7210538,0.792688,146.70001,-126.9,-8.700001,,,,,,
425639,-0.83082056,9.284375,-4.1983657,0.243904,3.079288,0.716468,137.1,-138.90001,-3.3000002,,,,,,
425659,-0.6992291,9.068445,-4.1564956,0.510674,1.6311079,0.060976,139.5,-136.5,-3.3000002,,,,,,
425679,-0.8924293,9.085194,-3.9609027,-0.525918,0.518296,1.059458,141.90001,-141.3,-9.3,,,,,,
425699,-0.8553445,9.542175,-4.1475234,-1.577754,0.70122397,1.227142,141.90001,-129.3,-8.700001,,,,,,
425719,-0.8397927,9.223365,-4.0063615,-1.692084,-0.182928,0.861286,153.90001,-131.70001,-7.5000005,,,,,,
425739,-0.8643166,9.039137,-3.9112568,-1.56251,-0.487808,0.586894,141.90001,-143.70001,-5.7000003,,,,,,
425759,-0.73571587,8.959583,-4.304237,-1.06708,-1.173788,0.091464,132.3,-138.90001,-7.5000005,,,,,,
425779,-0.46595338,8.960181,-3.8352928,-1.516778,-2.85825,0.091464,141.90001,-134.1,-11.1,,,,,,
425799,-0.37324122,9.01222,-3.534427,-1.425314,-2.004586,-0.708846,153.90001,-138.90001,-8.700001,,,,,,
425819,-0.53414166,8.074332,-3.7826562,-1.234764,-1.3719599,-1.48629,149.1,-134.1,-4.5,,,,,,
425839,-0.41989636,8.278897,-3.542801,-0.579272,-2.309466,-0.769822,156.3,-138.90001,-9.900001,,,,,,
425899,-0.4874865,8.573781,-3.091203,-0.739334,-1.1128119,-0.11432999,149.1,-141.3,-14.700001,,,,,,
425938,-0.85235375,8.833974,-3.501529,-0.93750596,-0.30488,0.007622,151.5,-150.90001,-11.1,,,,,,
425958,-0.8212503,8.945229,-3.3896763,-0.602138,-1.242386,0.480186,146.70001,-150.90001,-7.5000005,,,,,,
425998,-0.58558196,9.052894,-3.3370397,-1.21952,-1.1432999,0.35061198,149.1,-136.5,-14.1,,,,,,
426043,-0.67709786,8.557034,-3.5260527,-1.1051899,-1.3490939,0.007622,158.70001,-143.70001,-12.3,,,,,,
426083,-0.30923992,8.941041,-3.4494905,-0.426832,-1.509156,0.80793196,163.5,-141.3,-5.7000003,,x,,,,
426119,-0.3648672,8.71614,-3.4710236,-0.487808,-0.983238,0.41921,141.90001,-153.3,-19.5,,x,,,,
426161,-0.1614986,9.091175,-3.1910927,-0.60976,0.083841994,0.274392,134.70001,-143.70001,-12.3,,x,,,,
426181,-0.36546534,8.871058,-3.3926668,-0.731712,0.55640596,-0.182928,132.3,-148.5,-9.3,,x,,,,
426201,-0.49227166,8.760402,-3.3543859,-0.56402797,0.586894,-0.26677,141.90001,-136.5,-3.9,,x,,,,
426241,-0.753062,8.658119,-3.087614,-0.655492,0.434454,-0.045732,149.1,-146.1,-17.7,,x,,,,
426281,-1.3272792,9.273608,-2.8106737,-0.548784,0.617382,0.221038,141.90001,-146.1,-8.1,,x,,,,
426436,-4.7510495,8.990687,-2.7514577,-0.15244,-5.0228977,4.11588,129.90001,-146.1,-12.900001,,x,,,,
426560,1.0413669,5.2385364,-4.417286,0.0,-7.6067557,-0.960372,113.100006,-155.70001,-18.300001,,x,,,,
426596,2.6880546,7.0012636,-5.534617,1.158544,-10.975679,2.530504,122.700005,-158.1,-18.300001,,x,,,,
426616,3.5780911,8.435611,-5.635703,-0.518296,-11.600684,4.1921,117.9,-158.1,-20.7,,x,,,,
426658,5.452073,9.937548,-3.8454611,-3.1936178,-9.054935,4.100636,103.50001,-155.70001,-23.1,,x,,,,
426678,5.6668067,12.237407,-4.698413,-2.126538,-3.589962,3.7805119,120.3,-162.90001,-21.900002,,x,,,,
426698,4.9932976,13.625099,-5.638096,-1.006104,-1.3872039,1.196654,98.700005,-160.5,-21.300001,,x,,,,
426718,3.8969014,12.275688,-6.1740317,0.56402797,-0.67073596,-1.41007,115.50001,-160.5,-24.300001,,x,,,,
426738,3.995595,12.083684,-6.0873013,0.45731997,0.602138,-1.326228,98.700005,-160.5,-26.1,,x,,,,
426758,3.8293114,12.050786,-6.421663,0.297258,3.932952,-2.012208,120.3,-150.90001,-23.7,,x,,,,
426778,2.5127985,10.71932,-6.2224813,-0.708846,6.333882,-3.330814,113.100006,-148.5,-29.1,,x,,,,
426798,1.3416346,9.684533,-6.0759363,-1.196654,8.6814575,-3.521364,122.700005,-150.90001,-17.1,,x,,,,
426818,0.8930275,9.158167,-5.626731,-1.3719599,9.199754,-3.361302,122.700005,-160.5,-28.500002,,x,,,,
426838,-0.22789247,7.9463296,-4.928698,-1.585376,9.664696,-3.589962,117.9,-153.3,-17.7,,x,,,,
426858,-0.40972793,8.405105,-4.9651847,-0.548784,10.236346,-1.56251,122.700005,-153.3,-21.900002,,x,,,,
426878,-0.65496653,8.537892,-4.237843,-1.227142,8.483286,-2.2256238,127.50001,-160.5,-18.300001,,x,,,,
426898,-0.68367743,7.762101,-3.5948393,-0.91463995,8.46042,-2.89636,117.9,-160.5,-17.1,,x,,,,
426979,-0.20277047,6.937262,-2.455975,-0.99086,7.9497457,-2.7515419,125.100006,-158.1,-11.1,,x,,,,
427079,-1.187912,8.500808,-2.631829,0.213416,3.475632,-2.7515419,137.1,-148.5,-12.3,,x,,,,
427121,-1.6347247,9.218579,-2.45119,-2.355198,4.64942,-2.89636,144.3,-143.70001,-18.900002,,x,,,,
427161,-1.7621292,11.08,-2.7580373,-1.75306,2.408552,-1.006104,132.3,-153.3,-17.7,,x,,,,
427333,-1.5497885,9.253272,-2.8692918,0.312502,-2.13416,1.3795819,158.70001,-148.5,-16.5,,,,,,
427437,-0.6005356,8.714345,-2.330365,-0.67835796,-1.211898,0.480186,139.5,-143.70001,-21.300001,,,,,,
427457,-0.42527965,8.801076,-2.4440122,-0.41921,-1.18141,0.327746,127.50001,-150.90001,-12.900001,,,,,,
427500,-0.36307278,8.930275,-2.4416196,-0.26677,0.19055,0.121952,141.90001,-148.5,-15.900001,,,,,,
427540,-0.51559925,9.029567,-2.8980026,0.480186,-0.045732,-0.47256398,153.90001,-153.3,-8.1,,,,,,
427560,-0.38640037,8.992481,-2.7382984,0.548784,-0.182928,-0.274392,139.5,-138.90001,-21.900002,,,,,,
427580,-0.2978752,9.226356,-2.8005054,0.34298998,0.35061198,-0.274392,146.70001,-146.1,-19.5,,,,,,
427620,-0.3798208,9.2377205,-3.1432414,0.19055,0.868908,-0.92988396,139.5,-148.5,-16.5,,,,,,
427640,-0.29608077,8.964967,-2.8525438,0.26677,0.487808,-0.716468,151.5,-141.3,-27.900002,,,,,,
427660,-0.21533147,9.406995,-2.7329152,-0.16768399,0.868908,-0.41921,141.90001,-138.90001,-22.5,,,,,,
427680,-0.6071151,8.692812,-2.9799483,-0.67835796,1.6311079,-1.074702,132.3,-138.90001,-19.5,,,,,,
427702,-0.59275967,8.854909,-3.1564004,0.16768399,1.227142,-0.45731997,134.70001,-148.5,-18.900002,,,,,,
427722,-0.4898791,9.070838,-2.7867482,0.091464,0.960372,-0.396344,151.5,-155.70001,-11.700001,,,,,,
427742,-0.47372922,9.331629,-2.8316088,-0.129574,1.310984,-0.41158798,144.3,-150.90001,-9.3,,,,,,
427764,-0.70760316,9.138429,-2.9350874,-0.243904,1.3948259,-0.846042,149.1,-153.3,-19.5,,,,,,
427784,-0.80091345,9.142615,-3.0391645,0.030488,1.1280559,-0.891774,141.90001,-148.5,-13.500001,,,,,,
427806,-0.8224466,9.045118,-2.9530318,0.137196,0.731712,-0.907018,141.90001,-146.1,-16.5,,,,,,
427827,-0.83321315,8.978126,-2.836394,0.121952,0.53354,-0.579272,153.90001,-158.1,-22.5,,,,,,
427867,-0.66513497,9.182093,-2.9691818,0.0,0.53354,-0.3811,127.50001,-136.5,-17.7,,,,,,
427891,-0.68128484,9.107923,-2.97935,0.091464,0.312502,-0.426832,151.5,-136.5,-18.300001,,,,,,
427911,-0.736314,8.892591,-2.8974047,0.022866,0.358234,-0.327746,153.90001,-138.90001,-17.7,,,,,,
427931,-0.6573591,9.016407,-2.8926194,0.03811,0.47256398,-0.221038,146.70001,-138.90001,-17.7,,,,,,
427951,-0.5096178,9.229346,-2.9398727,0.053354,0.579272,-0.15244,144.3,-141.3,-26.7,,,,,,
427975,-0.7410991,9.062464,-3.054716,-0.068598,0.67073596,-0.41921,149.1,-150.90001,-16.5,,x,,,,
427996,-0.85414815,8.914722,-3.0762494,0.07622,0.358234,-0.358234,161.1,-150.90001,-13.500001,,x,,,,
428017,-0.6615461,8.965565,-2.91176,-0.007622,0.106708,-0.068598,149.1,-146.1,-7.5000005,,x,,,,
428038,-0.54072124,9.15099,-2.962004,-0.091464,0.182928,0.121952,158.70001,-143.70001,-14.700001,,x,,,,
428058,-0.5754135,9.017604,-2.9966962,-0.20579399,0.23628199,-0.045732,149.1,-138.90001,-15.900001,,x,,,,
428078,-0.54610455,9.060072,-3.0804362,-0.091464,0.198172,-0.060976,137.1,-146.1,-14.700001,,x,,,,
428100,-0.4426258,8.9894905,-2.96978,-0.045732,0.045732,-0.20579399,156.3,-143.70001,-15.3,,x,,,,
428165,-0.54789895,8.750832,-3.0427532,-0.41158798,0.144818,-0.442076,158.70001,-146.1,-11.700001,,x,,,,
428225,-1.1980804,9.081007,-2.6055107,-0.022866,0.121952,-0.487808,146.70001,-143.70001,-15.900001,,x,,,,
428473,-1.828523,7.074237,-1.999592,5.731744,-13.391853,4.054904,173.1,-150.90001,-12.3,,x,,,,
428519,0.8003153,5.3611555,-2.2071476,6.425346,-11.6845255,4.085392,153.90001,-141.3,-20.7,,x,,,,
428539,1.8757764,7.0341616,-3.1097453,5.320156,-7.797306,4.38265,153.90001,-136.5,-22.5,,x,,,,
428581,2.3847961,7.857206,-7.6992965,5.6097918,1.806414,0.41921,151.5,-143.70001,-13.500001,,x,,,,
428658,3.8077781,12.132732,-8.964967,-0.41921,-1.303362,0.67073596,153.90001,-148.5,-12.900001,,x,,,,
428698,3.0929973,11.390436,-7.0981627,-2.01983,1.1356779,0.586894,144.3,-146.1,-12.900001,,x,,,,
428719,2.4063292,11.524421,-6.790119,-3.361302,3.445144,-0.975616,139.5,-136.5,-22.5,,x,,,,
428759,0.68666816,8.563613,-6.3187823,-2.2637339,7.804928,-2.911604,153.90001,-138.90001,-17.1,,x,,,,
428779,0.27873462,9.162952,-6.4437943,-1.684462,8.811031,-2.522882,149.1,-143.70001,-15.900001,,x,,,,
428799,-0.5580674,9.063063,-6.0974693,-1.6463519,7.8277936,-3.2317278,153.90001,-134.1,-16.5,,x,,,,
428823,-1.1035738,8.109024,-4.615271,-3.094532,5.5945477,-3.871976,156.3,-148.5,-14.1,,x,,,,
428863,-1.3727381,6.910944,-3.4901643,-3.437522,6.36437,-2.7744079,163.5,-148.5,-12.900001,,x,,,,
428887,-1.1221162,7.52404,-2.9566207,-3.422278,5.304912,-1.920744,163.5,-131.70001,-14.700001,,x,,,,
428928,-1.3547938,7.338018,-2.5498836,-2.339954,6.036624,-2.385686,153.90001,-141.3,-14.700001,,x,,,,
428948,-1.585677,7.055096,-2.0594063,-2.004586,5.03052,-2.919226,168.3,-143.70001,-11.700001,,x,,,,
428968,-2.1275945,7.090387,-2.0552192,-1.501534,5.571682,-2.6677,158.70001,-131.70001,-14.700001,,x,,,,
429028,-2.6168754,7.82371,-2.4158995,-1.661596,4.0472817,-1.989342,170.70001,-134.1,-9.900001,,x,,,,
429073,-2.4326475,8.920704,-2.2974672,-2.385686,3.513742,-1.98172,163.5,-136.5,-15.3,,x,,,,
429140,-2.9045823,9.686926,-2.8501513,-0.541162,1.250008,-0.67073596,170.70001,-136.5,-15.900001,,x,,,,
429196,-2.9643965,9.469201,-2.8728807,-1.250008,1.760682,-1.6006199,175.5,-143.70001,-11.1,,x,,,,
429297,-1.7722976,9.278394,-3.0266035,-0.41921,-0.442076,2.157026,165.90001,-134.1,-17.7,,x,,,,
429359,-1.154416,9.048707,-2.647979,-0.983238,-0.198172,1.516778,170.70001,-129.3,-14.1,,,,,,
429379,-1.154416,8.871058,-2.836394,-0.94512796,-0.099086,1.547266,158.70001,-131.70001,-13.500001,,,,,,
429439,-0.5425157,8.90575,-2.7837574,-0.053354,-1.211898,1.707328,161.1,-136.5,-20.1,,,,,,
429536,-0.27394947,9.11211,-3.0505292,-0.907018,-0.625004,1.204276,156.3,-162.90001,-12.3,,,,,,
429556,-0.34453034,9.040333,-3.0744548,-1.036592,-0.365856,1.29574,153.90001,-148.5,-18.300001,,,,,,
429599,-0.48569208,9.265235,-3.0888102,-0.67835796,-0.17530599,1.280496,141.90001,-150.90001,-12.900001,,,,,,
429619,-0.24284604,9.111512,-2.840581,-0.830798,-0.015244,1.310984,144.3,-134.1,-15.900001,,,,,,
429639,-0.18721876,9.22157,-2.7592335,-0.785066,0.67073596,1.684462,141.90001,-155.70001,-15.900001,,,,,,
429660,-0.50363636,9.381872,-2.962004,-1.013726,1.326228,1.821658,144.3,-146.1,-20.7,,,,,,
429680,-0.5473008,9.091773,-3.0104535,-0.975616,1.089946,1.692084,139.5,-146.1,-12.900001,,,,,,
429700,-0.59216154,8.602492,-2.9626021,-0.68597996,0.853664,1.745438,153.90001,-150.90001,-14.700001,,,,,,
429720,-0.27933276,8.761,-2.991313,-0.442076,0.30488,2.309466,137.1,-148.5,-13.500001,,,,,,
429740,-0.0059814295,9.247291,-2.966191,0.099086,0.137196,2.393308,132.3,-160.5,-12.900001,,,,,,
429760,0.124413736,9.3998165,-2.8555346,0.213416,0.03811,1.692084,127.50001,-160.5,-16.5,,,,,,
429780,0.2936882,9.079212,-2.5863702,0.22865999,0.03811,0.640248,137.1,-148.5,-16.5,,,,,,
429801,0.14953575,8.510977,-2.560052,0.23628199,0.67073596,0.007622,127.50001,-148.5,-12.900001,,,,,,
429821,0.092712164,9.634289,-2.996098,0.015244,1.044214,0.655492,139.5,-148.5,-11.700001,,,,,,
429844,-0.33795077,9.446472,-3.2353554,-0.442076,0.853664,-0.07622,132.3,-162.90001,-6.3,,,,,,
429906,-0.112450875,8.982911,-3.06309,-0.487808,-0.259148,-0.785066,137.1,-138.90001,-17.7,,x,,,,
429926,-0.037683006,9.311292,-3.3226843,-0.297258,-0.251526,-0.777444,156.3,-138.90001,-11.700001,,x,,,,
429986,0.49107537,8.93506,-2.2244937,-0.55640596,-2.149404,-1.234764,129.90001,-150.90001,-15.900001,,x,,,,
430079,-0.70221984,8.899769,-2.8017018,0.602138,0.975616,-0.82317597,139.5,-160.5,-17.7,,x,,,,
430099,-0.86910176,9.27301,-3.0020795,0.632626,0.67073596,-0.82317597,144.3,-150.90001,-12.900001,,x,,,,
430143,-1.0144504,8.706569,-2.6246514,0.259148,0.015244,-0.586894,146.70001,-143.70001,-12.900001,,x,,,,
430273,-3.4488924,10.968746,-1.3302699,-0.099086,0.198172,-1.75306,144.3,-155.70001,-15.900001,,x,,,,
430437,0.056225438,7.998368,-2.2974672,3.2241058,-7.195168,1.9131219,161.1,-141.3,-11.700001,,x,,,,
430458,0.13697474,8.118594,-2.1365666,2.606724,-7.492426,0.449698,146.70001,-148.5,-6.9,,x,,,,
430498,-0.5138048,5.692527,-1.7136797,0.22865999,-5.015276,-2.47715,158.70001,-141.3,-16.5,,x,,,,
430519,-0.83560574,4.639197,-2.5253596,2.644834,-5.25918,0.23628199,161.1,-136.5,-15.900001,,x,,,,
430539,-0.75665087,5.661423,-2.6641288,3.483254,-4.679908,3.064044,163.5,-141.3,-18.300001,,x,,,,
430582,-0.6459944,8.201736,-5.4317365,3.1936178,-1.150922,2.17227,163.5,-129.3,-17.7,,x,,,,
430614,1.2279875,11.467597,-7.8081584,2.560992,3.1859958,6.0442457,146.70001,-141.3,-20.7,,x,,,,
430677,2.6808767,11.850409,-9.306506,0.15244,-1.8673899,2.309466,132.3,-153.3,-6.3,,x,,,,
430697,2.7514577,11.809136,-8.966163,-0.40396598,-0.72409,1.699706,141.90001,-155.70001,-11.700001,,x,,,,
430717,2.8292162,11.650629,-8.793898,-1.684462,-0.518296,0.434454,137.1,-150.90001,-13.500001,,x,,,,
430737,2.9153488,11.1164875,-7.8853188,-3.513742,-0.16768399,-0.830798,125.100006,-148.5,-17.1,,x,,,,
430757,2.1066597,9.978819,-6.92829,-4.862836,1.204276,-2.027452,144.3,-141.3,-9.3,,x,,,,
430797,0.006579573,8.058182,-5.918625,-3.7347798,3.018312,-1.8521459,139.5,-165.3,-17.7,,x,,,,
430817,-0.30146405,8.007938,-4.8000975,-2.7896519,0.426832,-1.3567159,129.90001,-148.5,-17.7,,x,,,,
430837,-0.21114446,7.9427404,-2.280121,-3.7576458,2.89636,-2.416174,144.3,-155.70001,-13.500001,,x,,,,
430857,-0.5819931,7.342803,-2.5385187,-3.8109999,5.838452,-2.949714,129.90001,-150.90001,-12.900001,,x,,,,
430877,-1.1352754,7.01203,-3.1701577,-3.155508,6.798824,-2.461906,144.3,-158.1,-19.5,,x,,,,
430901,-1.9290111,7.0018616,-2.6336236,-1.8673899,5.045764,-2.6905658,153.90001,-131.70001,-10.5,,x,,,,
430925,-1.7256424,7.0233946,-2.2460268,-1.242386,3.551852,-2.408552,153.90001,-153.3,-15.900001,,x,,,,
430945,-1.5892658,6.95401,-1.5629476,-1.150922,2.583858,-2.2637339,141.90001,-146.1,-15.3,,x,,,,
430965,-1.7675124,7.0114317,-1.3105313,-0.998482,2.903982,-1.8826339,158.70001,-141.3,-13.500001,,x,,,,
430986,-1.5174887,7.6071825,-1.0240208,-0.72409,2.2332458,-1.150922,151.5,-143.70001,-9.900001,,x,,,,
431026,-1.5097128,8.359646,-1.4648521,-2.560992,5.304912,-1.585376,151.5,-138.90001,-19.5,,x,,,,
431047,-1.7459793,8.287271,-1.5282553,-2.2256238,5.266802,-1.554888,163.5,-138.90001,-12.3,,x,,,,
431067,-1.8943188,9.122278,-1.9816476,-1.036592,4.87808,-0.899396,161.1,-134.1,-12.900001,,x,,,,
431087,-2.2185123,9.654028,-2.1407537,-0.68597996,3.6738038,-0.975616,168.3,-136.5,-9.900001,,x,,,,
431107,-2.2143252,9.363928,-2.0570138,-1.089946,2.85825,-1.669218,168.3,-136.5,-19.5,,x,,,,
431127,-1.9415721,9.439893,-2.121015,-0.503052,1.661596,-1.097568,158.70001,-141.3,-18.900002,,x,,,,
431147,-2.2209048,9.199439,-2.1078558,-0.503052,1.570132,-1.150922,151.5,-143.70001,-12.900001,,x,,,,
431167,-2.4272642,9.370508,-2.3859923,-0.442076,1.67684,-0.64787,158.70001,-136.5,-12.900001,,x,,,,
431187,-2.3590758,10.0494,-2.6132867,-0.396344,1.539644,-0.45731997,163.5,-146.1,-13.500001,,x,,,,
431210,-2.6049128,9.299329,-2.8878343,-0.510674,1.150922,-0.69360197,146.70001,-146.1,-18.300001,,x,,,,
431230,-2.7251394,8.543276,-2.920732,-0.396344,0.518296,-0.083841994,151.5,-138.90001,-12.3,,x,,,,
431253,-2.091706,9.100147,-3.1109416,0.28201398,0.060976,1.417692,158.70001,-146.1,-22.5,,,,,,
431273,-1.5342367,9.383069,-3.174943,0.30488,-0.198172,1.75306,161.1,-143.70001,-15.3,,,,,,
431297,-0.995908,9.213196,-3.0822308,0.487808,-0.746956,2.065562,158.70001,-143.70001,-14.700001,,,,,,
431317,-0.6872663,9.072035,-2.866301,0.541162,-1.013726,1.8521459,141.90001,-138.90001,-18.900002,,,,,,
431337,-0.5072252,9.1192875,-2.8680956,0.442076,-0.655492,1.768304,137.1,-143.70001,-11.1,,,,,,
431359,-0.29009935,9.624121,-3.0266035,0.106708,-0.41921,1.18141,149.1,-153.3,-11.700001,,,,,,
431379,-0.54072124,9.214393,-3.1946816,-0.47256398,-0.274392,0.396344,149.1,-143.70001,-14.1,,,,,,
431400,-0.7751933,8.811842,-3.4327426,-0.213416,-0.373478,0.40396598,151.5,-153.3,-12.3,,,,,,
431420,-0.6447981,8.941041,-3.2658606,-0.068598,-0.891774,0.579272,151.5,-150.90001,-9.900001,,,,,,
431440,-0.4312611,9.209607,-3.0475385,0.129574,-0.80030996,0.899396,151.5,-143.70001,-8.700001,,,,,,
431460,-0.3409415,9.052296,-3.0248091,-0.30488,-0.289636,0.60976,139.5,-138.90001,-15.3,,,,,,
431480,-0.24703304,8.840553,-2.8692918,-0.46494198,0.053354,0.731712,144.3,-150.90001,-16.5,,,,,,
431500,-0.11903045,9.078016,-2.856731,-0.45731997,0.47256398,0.67835796,141.90001,-136.5,-14.1,,,,,,
431520,-0.14534874,9.049903,-2.8686936,-0.60976,0.70122397,0.198172,139.5,-158.1,-12.900001,,,,,,
431540,-0.4426258,9.136634,-3.0672772,-0.365856,0.87653,-0.129574,141.90001,-148.5,-11.1,,,,,,
431560,-0.53832865,8.920106,-3.209037,-0.20579399,0.259148,-0.53354,149.1,-153.3,-12.900001,,,,,,
431580,-0.53653425,8.908143,-3.0612957,0.007622,-0.243904,-0.17530599,137.1,-136.5,-16.5,,,,,,
431620,-0.42408335,9.007435,-2.8345995,-0.55640596,-0.03811,-0.053354,141.90001,-153.3,-18.900002,,,,,,
431695,-0.58378756,8.766981,-3.1857095,0.3811,0.022866,0.099086,151.5,-141.3,-15.3,,,,,,
431715,-0.26258478,9.041529,-2.8896286,0.22865999,0.07622,0.53354,146.70001,-153.3,-5.7000003,,,,,,
431757,-0.4019521,9.001453,-3.0947917,-0.365856,1.06708,-0.289636,132.3,-150.90001,-24.300001,,,,,,
431777,-0.41092423,8.789113,-3.1725502,-0.213416,0.99086,-0.053354,151.5,-143.70001,-15.900001,,,,,,
431797,-0.34153965,8.972144,-3.0002851,-0.22865999,0.754578,0.22865999,146.70001,-136.5,-5.1000004,,,,,,
431818,-0.14056359,9.423742,-2.9841354,-0.320124,0.868908,-0.030488,134.70001,-148.5,-15.3,,,,,,
431838,-0.31761393,9.063661,-3.1569986,-0.53354,0.967994,-0.640248,149.1,-155.70001,-15.900001,,,,,,
431858,-0.3439322,8.906349,-3.2449257,-0.045732,0.594516,-0.754578,141.90001,-146.1,-7.5000005,,,,,,
431878,-0.3660635,8.732289,-3.095988,-0.144818,0.213416,-0.449698,144.3,-148.5,-17.7,,,,,,
431898,-0.30565107,8.997267,-3.0577068,-0.121952,0.41921,-0.060976,151.5,-148.5,-8.700001,,,,,,
431920,-0.22609805,9.192261,-2.9925094,-0.327746,0.442076,-0.41158798,144.3,-150.90001,-11.1,,,,,,
431940,-0.20396675,8.982313,-2.8340013,-0.49543,0.57164997,-0.64787,146.70001,-148.5,-15.900001,,,,,,
431964,-0.38041893,8.497219,-2.5965385,-0.68597996,0.68597996,-0.663114,137.1,-146.1,-12.900001,,,,,,
431984,-0.35290435,8.464321,-2.1694646,-0.708846,1.021348,-0.274392,141.90001,-143.70001,-11.1,,,,,,
432007,-0.011364716,9.459631,-1.6137897,-0.53354,1.8369019,-0.53354,134.70001,-141.3,-11.1,,,,,,
432027,-0.69384587,8.8489275,-1.5719197,-0.739334,3.08691,-1.3872039,146.70001,-153.3,-14.1,,,,,,
432047,-1.3709437,8.519949,-1.6269488,-0.07622,3.528986,-1.1280559,151.5,-148.5,-20.7,,,,,,
432108,-3.669009,9.9285755,-3.1892984,1.18141,2.7591639,-2.01983,137.1,-136.5,-14.1,,x,,,,
432128,-3.73959,10.364621,-2.9015915,1.417692,0.716468,-0.739334,141.90001,-150.90001,-14.1,,x,,,,
432148,-3.9172382,10.821005,-2.8429735,0.243904,0.33536798,0.030488,139.5,-150.90001,-8.700001,,x,,,,
432168,-4.078139,10.029661,-3.1217082,-1.051836,0.3811,-0.251526,149.1,-150.90001,-6.3,,x,,,,
432191,-4.526746,8.694008,-3.6552517,-1.326228,-0.137196,-0.87653,134.70001,-131.70001,-11.700001,,x,,,,
432211,-3.2150185,8.399722,-3.1707559,-0.518296,-5.510706,0.663114,137.1,-143.70001,-16.5,,x,,,,
432232,-2.5283504,8.824403,-2.4553769,-0.746956,-6.753092,0.92988396,158.70001,-146.1,-9.900001,,x,,,,
432252,-2.761626,7.0915833,-2.472723,-0.846042,-5.495462,-1.196654,141.90001,-143.70001,-10.5,,x,,,,
432337,0.7602397,7.208221,-3.5870633,1.6234859,-8.163162,3.971062,146.70001,-143.70001,-19.5,,x,,,,
432357,1.5461996,7.2267632,-2.966191,1.02897,-10.533604,2.332332,144.3,-143.70001,-17.7,,x,,,,
432377,1.6514727,5.605796,-3.0343792,0.632626,-8.490908,1.783548,139.5,-148.5,-14.700001,,x,,,,
432419,2.552874,9.210205,-4.0895033,1.79117,-5.114362,5.60217,137.1,-146.1,-12.900001,,x,,,,
432459,2.7819629,10.628403,-6.0849085,1.6387299,0.503052,3.528986,129.90001,-153.3,-20.7,,x,,,,
432479,3.3860874,12.549638,-7.404412,2.2865999,3.079288,3.833866,125.100006,-155.70001,-17.7,,x,,,,
432499,3.2096353,12.687809,-8.713149,2.2789779,3.6966698,1.6006199,137.1,-155.70001,-15.900001,,x,,,,
432539,2.6736991,11.525019,-7.68195,-1.440558,0.663114,-1.6463519,125.100006,-155.70001,-14.700001,,x,,,,
432580,1.5868733,10.27191,-8.008536,-1.8902559,3.08691,-2.903982,117.9,-158.1,-17.7,,x,,,,
432620,-0.3271842,8.682045,-5.7332006,-2.408552,0.884152,-2.507638,125.100006,-150.90001,-11.1,,x,,,,
432658,-0.055627298,9.119885,-4.4830813,-1.8292799,2.2332458,-3.2774599,129.90001,-153.3,-15.900001,,x,,,,
432678,-0.0849363,8.541482,-3.5332305,-2.149404,2.949714,-4.53509,117.9,-148.5,-8.700001,,x,,,,
432720,-0.91755134,6.5030103,-2.551678,-2.2942219,4.352162,-3.871976,134.70001,-141.3,-21.900002,,x,,,,
432742,-1.071274,6.112423,-2.0265083,-1.699706,3.6890478,-3.6738038,134.70001,-155.70001,-18.300001,,x,,,,
432762,-0.40554094,7.145416,-1.7172685,-0.586894,2.51526,-2.530504,156.3,-146.1,-18.900002,,x,,,,
432782,-0.2906975,7.6741743,-0.99172103,-1.196654,1.585376,-2.888738,149.1,-148.5,-18.300001,,x,,,,
432844,-0.77280074,8.239419,-1.0981905,-1.310984,1.570132,-2.2180018,163.5,-134.1,-21.900002,,x,,,,
432958,-2.414105,9.203028,-2.262775,-1.814036,2.461906,-2.644834,151.5,-136.5,-17.1,,x,,,,
432980,-2.7981129,8.634792,-2.2286806,-1.29574,1.775926,-0.998482,165.90001,-134.1,-17.7,,x,,,,
433021,-2.3614686,9.768272,-2.765215,-0.442076,0.663114,-0.47256398,173.1,-146.1,-18.300001,,x,,,,
433041,-2.288495,9.167139,-2.6007257,-0.251526,-0.137196,-0.442076,182.70001,-134.1,-12.900001,,x,,,,
433063,-2.1993718,8.501406,-2.5995293,0.053354,-0.221038,0.19055,163.5,-141.3,-16.5,,x,,,,
433086,-1.9140575,9.066053,-2.6796806,0.47256398,-0.47256398,1.310984,170.70001,-150.90001,-18.300001,,x,,,,
433107,-1.7202592,9.277796,-2.9440596,0.518296,-0.40396598,1.33385,156.3,-141.3,-14.700001,,x,,,,
433128,-1.589864,9.122278,-2.8633103,0.586894,-0.80793196,1.310984,151.5,-138.90001,-20.7,,x,,,,
433150,-1.5055258,9.124073,-2.7747853,0.213416,-0.602138,1.242386,156.3,-136.5,-9.900001,,x,,,,
433192,-1.3099331,8.961378,-2.774187,-0.17530599,-0.22865999,1.585376,153.90001,-143.70001,-14.1,,x,,,,
433212,-1.1765472,9.349573,-2.89561,-0.365856,-0.053354,1.501534,144.3,-136.5,-11.1,,x,,,,
433232,-1.079648,9.131848,-2.8597217,-0.60976,-0.213416,0.777444,158.70001,-141.3,-14.700001,,,,,,
433253,-0.89661634,8.695803,-2.7885425,-0.373478,-0.17530599,0.663114,156.3,-143.70001,-10.5,,,,,,
433273,-0.50363636,9.3782835,-2.735906,-0.045732,-0.022866,1.02897,141.90001,-143.70001,-11.700001,,,,,,
433293,-0.46236452,9.481164,-2.8860397,-0.28201398,0.30488,0.625004,161.1,-143.70001,-14.1,,,,,,
433314,-0.4175038,9.335815,-2.9859297,-0.396344,0.41921,0.274392,158.70001,-143.70001,-20.1,,,,,,
433334,-0.1824336,9.276599,-3.2808142,-0.07622,0.602138,-0.07622,146.70001,-136.5,-10.5,,,,,,
433374,0.3786245,9.127662,-3.7096827,1.044214,-0.060976,1.288118,151.5,-160.5,-8.700001,,,,,,
433394,0.8397927,10.262938,-3.4112093,0.83842,-0.57164997,1.71495,149.1,-150.90001,-16.5,,,,,,
433414,1.0646945,10.343686,-3.4835846,0.144818,0.160062,1.036592,151.5,-150.90001,-14.700001,,,,,,
433434,1.0922091,10.067943,-3.527249,-0.26677,0.213416,0.40396598,146.70001,-153.3,-18.300001,,,,,,
433454,0.6764997,9.093568,-3.3346472,-0.41921,0.221038,-0.213416,153.90001,-148.5,-11.700001,,,,,,
433474,0.41451308,8.235232,-3.2473183,0.060976,0.11432999,0.182928,144.3,-141.3,-17.1,,,,,,
433495,0.30923992,8.205923,-2.932695,-0.091464,-0.11432999,0.87653,146.70001,-146.1,-22.5,,,,,,
433515,0.112450875,7.9630775,-2.8603196,-0.106708,0.213416,0.602138,149.1,-146.1,-13.500001,,,,,,
433535,-0.5694321,7.4068046,-3.0104535,-0.015244,0.67835796,0.40396598,139.5,-150.90001,-16.5,,,,,,
433578,0.029907148,9.860985,-3.3089268,1.158544,-1.044214,2.01983,132.3,-143.70001,-8.1,,,,,,
433674,-2.0169382,8.724513,-3.7551415,-0.068598,-0.94512796,-0.060976,137.1,-158.1,-12.3,,,,,,
433737,-1.8034011,8.821412,-2.8345995,-1.79117,1.684462,-1.06708,144.3,-143.70001,-17.7,,,,,,
433757,-2.2741396,7.8924966,-3.3161047,-0.754578,1.463424,-1.310984,134.70001,-150.90001,-15.3,,,,,,
433777,-2.3812072,7.589238,-2.9344895,0.053354,-0.129574,-0.251526,139.5,-148.5,-17.1,,,,,,
433799,-1.3936732,8.594716,-2.3830016,0.106708,-0.442076,0.967994,137.1,-131.70001,-14.700001,,,,,,
433840,-0.83740014,9.238916,-3.2867956,-0.243904,1.71495,-0.586894,129.90001,-143.70001,-16.5,,,,,,
433860,-0.7644267,8.965565,-2.9673872,0.068598,0.28201398,-0.975616,137.1,-143.70001,-9.3,,,,,,
433880,-0.4827014,8.675466,-2.987724,-0.091464,0.891774,-0.861286,137.1,-155.70001,-17.1,,,,,,
433900,0.2087519,10.011119,-3.0738568,0.510674,0.541162,-0.26677,153.90001,-148.5,-14.700001,,,,,,
433920,-0.51799184,8.954799,-3.3819003,-0.30488,1.158544,-1.8673899,137.1,-148.5,-16.5,,,,,,
433940,-0.75186574,7.7345867,-3.8041892,0.594516,0.830798,-1.6387299,149.1,-138.90001,-17.7,,,,,,
433960,-0.38998923,8.899769,-3.6253445,0.975616,-0.769822,0.03811,146.70001,-138.90001,-12.900001,,,,,,
433980,-0.16090046,9.264636,-3.6127834,0.426832,-0.259148,-0.16768399,146.70001,-153.3,-14.1,,,,,,
434003,0.008972145,9.574474,-3.8209374,0.106708,-0.16768399,-0.297258,146.70001,-162.90001,-9.3,,,,,,
434023,-0.024523862,9.213795,-3.535025,-0.358234,-0.251526,-1.3490939,149.1,-148.5,-14.1,,,,,,
434045,-0.12620817,8.943434,-3.2443275,-0.95274997,0.17530599,-1.074702,144.3,-141.3,-15.3,,,,,,
434065,0.34632477,9.7916,-3.3143103,-0.792688,0.67835796,-0.594516,149.1,-148.5,-14.700001,,,,,,
434107,-0.40972793,8.226858,-3.0595014,-0.853664,0.868908,-1.768304,156.3,-158.1,-11.700001,,,,,,
434127,-0.23207948,8.646156,-3.1031656,0.160062,0.60976,-0.731712,146.70001,-143.70001,-9.3,,,,,,
434148,-0.30445477,8.984107,-2.9374802,0.274392,0.80793196,-0.81555396,151.5,-143.70001,-9.900001,,,,,,
434172,-0.4731311,9.299329,-3.1205118,0.07622,1.150922,-1.044214,151.5,-138.90001,-8.700001,,,,,,
434192,-0.86910176,8.808253,-3.2790198,-0.144818,1.250008,-1.570132,156.3,-138.90001,-17.1,,,,,,
434212,-1.0006932,8.485256,-3.3729281,0.07622,0.95274997,-1.21952,146.70001,-138.90001,-8.700001,,,,,,
434234,-0.89601815,8.494826,-2.9129562,-0.28201398,0.655492,-0.426832,144.3,-129.3,-17.7,,,,,,
434254,-1.0162449,8.9356575,-3.129484,-0.07622,1.166166,-0.182928,149.1,-131.70001,-6.9,,,,,,
434274,-1.4570763,9.003846,-3.2939734,0.15244,0.907018,-0.83842,149.1,-136.5,-6.9,,,,,,
434338,-2.3076355,10.463315,-1.6538653,-0.26677,-1.272874,0.289636,161.1,-143.70001,-15.3,,x,,,,
434358,-2.8986008,12.134526,-0.5371324,-2.332332,-0.769822,-0.3811,165.90001,-143.70001,-12.3,,x,,,,
434401,-6.677668,7.297344,-2.3614686,-2.85825,2.32471,-2.2561119,161.1,-148.5,-18.900002,,x,,,,
434421,-5.342015,9.532604,-2.9883223,-1.547266,-2.004586,2.080806,149.1,-146.1,-10.5,,x,,,,
434443,-4.094887,9.152783,-1.8979076,-2.6981878,-6.692116,-0.15244,156.3,-148.5,-13.500001,,x,,,,
434466,-4.1947765,6.2852864,-3.184513,0.060976,-5.8765616,-0.92226195,163.5,-136.5,-18.900002,,x,,,,
434486,-1.6239581,7.4002247,-4.0057635,2.385686,-12.126602,3.35368,153.90001,-138.90001,-9.900001,,x,,,,
434506,-0.69085515,8.743654,-1.7166703,0.213416,-15.213511,3.498498,168.3,-136.5,-23.7,,x,,,,
434528,-0.6878644,6.3935504,-2.4242735,-0.083841994,-11.692148,0.625004,151.5,-150.90001,-23.1,,x,,,,
434548,-0.18542433,5.1302724,-2.4158995,1.692084,-13.330877,1.234764,153.90001,-141.3,-15.900001,,x,,,,
434568,0.68128484,5.5035133,-1.5988362,2.065562,-12.362884,2.446662,151.5,-131.70001,-14.700001,,x,,,,
434591,1.07905,7.1507993,-2.5409114,3.330814,-8.61286,3.140264,161.1,-134.1,-19.5,,x,,,,
434612,1.1789398,7.705876,-3.5667264,3.490876,-5.5183277,2.942092,153.90001,-158.1,-18.300001,,x,,,,
434632,1.3350551,8.404507,-4.7630124,3.330814,-2.987824,3.376546,149.1,-155.70001,-21.300001,,x,,,,
434653,1.9403758,10.063755,-5.2277694,3.08691,-2.522882,4.138746,134.70001,-143.70001,-17.1,,x,,,,
434673,1.6580523,12.200322,-5.78165,3.170752,0.907018,4.390272,144.3,-155.70001,-21.300001,,x,,,,
434693,1.8303175,13.99176,-8.003751,2.637212,5.0838737,2.7896519,149.1,-153.3,-11.1,,x,,,,
434713,1.9003003,11.799566,-9.162952,2.85825,2.7362978,-0.625004,146.70001,-138.90001,-12.3,,x,,,,
434733,1.7890456,11.114095,-8.409292,0.95274997,-2.050318,0.091464,141.90001,-146.1,-18.900002,,x,,,,
434753,1.8016067,12.194341,-7.408599,-0.099086,-0.129574,0.22865999,132.3,-158.1,-25.500002,,x,,,,
434813,-0.5150011,9.596007,-5.9694667,-1.707328,5.076252,-2.484772,132.3,-158.1,-21.900002,,x,,,,
434833,-1.2058562,9.582849,-5.879147,-1.806414,6.562542,-2.446662,144.3,-148.5,-18.900002,,x,,,,
434896,-1.2889981,8.3423,-3.0134442,-3.513742,5.8613176,-2.2561119,137.1,-150.90001,-15.900001,,x,,,,
434997,-1.2285857,6.4707108,-2.3279724,-1.211898,5.243936,-1.6463519,139.5,-150.90001,-14.700001,,x,,,,
435017,-1.0766573,7.0808163,-2.0265083,-0.274392,4.283564,-1.33385,146.70001,-143.70001,-17.1,,x,,,,
435057,-1.0132542,7.9965734,-2.392572,-0.80793196,6.02138,-1.821658,156.3,-143.70001,-14.700001,,x,,,,
435077,-1.3344569,8.180203,-2.9626021,-0.525918,5.960404,-1.974098,163.5,-143.70001,-14.700001,,x,,,,
435097,-1.4050379,8.394937,-2.86989,-0.07622,4.352162,-1.8445239,163.5,-138.90001,-8.700001,,x,,,,
435119,-1.5581625,8.493032,-2.0570138,-0.868908,4.253076,-2.088428,156.3,-141.3,-12.900001,,x,,,,
435139,-1.8452711,8.359048,-2.6288383,-1.18141,5.228692,-2.301844,158.70001,-131.70001,-12.900001,,x,,,,
435161,-2.0713692,8.650344,-2.669512,-0.594516,4.352162,-1.67684,151.5,-143.70001,-9.900001,,x,,,,
435181,-1.5964435,9.51466,-2.6342216,-0.20579399,3.589962,-1.006104,161.1,-138.90001,-5.7000003,,x,,,,
435201,-1.7142777,9.401611,-2.4027402,-0.15244,3.368924,-1.326228,153.90001,-126.9,-6.3,,x,,,,
435241,-2.4051328,10.164244,-3.246122,0.358234,2.881116,-1.196654,170.70001,-136.5,-14.700001,,x,,,,
435261,-2.539715,10.65173,-3.5792875,0.0,1.920744,-1.036592,153.90001,-141.3,-11.700001,,x,,,,
435281,-2.4272642,10.605673,-3.706692,-0.92988396,0.30488,-0.785066,156.3,-136.5,-7.5000005,,x,,,,
435304,-2.4960506,9.702477,-3.590054,-1.554888,-0.82317597,-0.64787,156.3,-134.1,-12.900001,,x,,,,
435346,-1.2375578,9.347778,-2.8980026,-0.91463995,-2.7591639,1.272874,170.70001,-134.1,-6.9,,,,,,
435366,-0.8553445,9.165345,-2.6868582,-0.92988396,-1.8597679,0.95274997,185.1,-143.70001,-11.700001,,,,,,
435389,-0.59933925,8.758009,-2.2914858,-0.594516,-1.417692,0.289636,153.90001,-136.5,-12.3,,,,,,
435450,-0.8685036,8.549855,-2.5576594,-0.16768399,0.891774,-0.388722,158.70001,-136.5,-12.900001,,,,,,
435476,-1.1974822,8.759206,-2.8860397,-0.045732,1.02897,-0.26677,149.1,-134.1,-17.7,,,,,,
435538,-0.6687238,9.261047,-2.9943037,-0.358234,0.57164997,-0.060976,158.70001,-155.70001,-9.3,,,,,,
435678,-0.56165624,9.136036,-2.978752,-0.297258,0.99086,-0.396344,161.1,-138.90001,-14.700001,,,,,,
435713,-0.8086893,8.944032,-2.820244,-0.503052,1.196654,-0.434454,151.5,-141.3,-12.900001,,,,,,
435775,-1.0240208,8.61266,-2.4260678,-0.579272,1.02897,-0.708846,161.1,-129.3,-14.700001,,,,,,
435959,-4.773779,10.37479,-1.954133,-0.967994,-0.99086,-0.030488,173.1,-138.90001,-14.1,,x,,,,
435979,-5.327061,9.61156,-2.3070374,-1.3719599,-0.55640596,-0.022866,168.3,-141.3,-16.5,,x,,,,
436019,-4.655347,9.438098,-2.5636408,-0.830798,-4.8857017,2.47715,161.1,-146.1,-12.3,,x,,,,
436043,-4.050026,7.7579145,-2.530743,-0.868908,-7.179924,1.097568,158.70001,-153.3,-18.900002,,x,,,,
436064,-3.4249666,5.484971,-3.154606,1.4024479,-9.664696,1.75306,161.1,-136.5,-17.1,,x,,,,
436084,-1.4283655,6.9133363,-2.074958,2.32471,-16.135773,5.419242,163.5,-143.70001,-18.300001,,x,,,,
436105,-0.55986184,6.8714666,-0.794932,1.6006199,-14.984852,4.321674,158.70001,-150.90001,-15.3,,x,,,,
436125,-0.18781689,6.606489,-2.2352602,2.423796,-12.591544,3.650938,163.5,-146.1,-21.300001,,x,,,,
436145,0.08254373,6.0334682,-2.4410214,3.2012398,-13.628136,3.094532,151.5,-141.3,-26.7,,x,,,,
436165,0.62326497,4.794116,-2.5175838,2.51526,-12.431481,2.370442,161.1,-150.90001,-23.1,,x,,,,
436205,2.2310734,7.686137,-6.426448,7.58389,-5.884184,6.8979096,120.3,-153.3,-13.500001,,x,,,,
436225,3.4817903,10.884408,-7.413384,6.0290017,-7.553402,6.577786,132.3,-150.90001,-16.5,,x,,,,
436246,3.7683008,11.011812,-6.154293,2.93447,-9.60372,2.59148,134.70001,-148.5,-20.7,,x,,,,
436270,3.091203,10.051793,-6.224874,1.730194,-3.7119138,1.6387299,134.70001,-160.5,-17.7,,x,,,,
436290,3.1121378,12.136919,-7.927189,1.989342,1.768304,2.675322,120.3,-150.90001,-16.5,,x,,,,
436310,3.438724,12.204509,-9.549353,2.2408679,0.81555396,-0.510674,144.3,-141.3,-11.1,,x,,,,
436351,3.0343792,12.217669,-7.9301796,-0.655492,0.792688,-1.1128119,134.70001,-148.5,-20.7,,x,,,,
436401,0.803306,9.759301,-8.470303,-3.2850819,8.300358,-2.7744079,134.70001,-141.3,-17.7,,x,,,,
436436,-0.3134269,8.769374,-6.0603848,-4.291186,6.890288,-0.960372,127.50001,-143.70001,-18.300001,,x,,,,
436457,-0.72076225,8.865077,-5.411998,-4.603688,8.26987,-1.3414719,127.50001,-160.5,-14.700001,,x,,,,
436499,-1.0551242,8.31,-4.0954847,-4.83997,8.567128,-3.551852,134.70001,-150.90001,-20.7,,x,,,,
436541,-1.5515828,7.238128,-3.359769,-3.2241058,6.70736,-2.454284,146.70001,-153.3,-14.700001,,x,,,,
436616,-1.3817103,7.0347595,-1.4026452,-1.166166,3.414656,-2.583858,151.5,-143.70001,-21.300001,,x,,,,
436637,-1.3829066,7.361346,-0.9857396,-1.33385,2.7134318,-2.179892,161.1,-131.70001,-19.5,,x,,,,
436677,-1.0006932,8.676064,-0.83859646,-2.164648,3.833866,-1.150922,153.90001,-141.3,-14.1,,x,,,,
436737,-1.9726756,8.67726,-1.4068322,-0.426832,2.873494,-1.303362,144.3,-148.5,-26.1,,x,,,,
436758,-2.0534248,9.408191,-1.4409264,-0.746956,2.865872,-1.425314,141.90001,-136.5,-15.3,,x,,,,
436800,-2.6228569,9.0002575,-2.339337,0.716468,1.570132,-1.326228,158.70001,-138.90001,-17.7,,x,,,,
436840,-2.535528,9.941136,-2.2011662,-0.137196,2.01983,-1.021348,165.90001,-138.90001,-13.500001,,x,,,,
436860,-2.8657029,9.491333,-2.8471606,-0.053354,2.065562,-1.227142,153.90001,-134.1,-21.900002,,x,,,,
436880,-2.9691818,9.377088,-3.2144203,0.510674,1.097568,-0.640248,156.3,-138.90001,-17.1,,x,,,,
436924,-2.0055733,9.538586,-2.9984908,-0.045732,-0.868908,0.853664,165.90001,-136.5,-16.5,,x,,,,
437000,-0.54072124,9.54696,-2.8465624,-0.312502,-1.425314,1.821658,156.3,-131.70001,-19.5,,,,,,
437055,-0.5401231,9.4428835,-2.5450983,-0.45731997,0.3811,-0.663114,161.1,-143.70001,-19.5,,,,,,
437120,-1.2154266,8.94762,-2.677886,-0.091464,1.059458,-0.70122397,158.70001,-146.1,-4.5,,,,,,
437160,-1.3117275,9.005042,-2.9099655,0.198172,0.41921,-0.068598,156.3,-141.3,-8.700001,,,,,,
437202,-0.96241206,9.034949,-2.7921314,0.091464,-0.26677,0.716468,156.3,-148.5,-18.300001,,,,,,
437281,-0.39357808,9.0511,-2.61867,-0.655492,-0.198172,0.251526,151.5,-136.5,-16.5,,,,,,
437302,-0.4163075,9.155774,-2.6180718,-0.663114,0.083841994,0.022866,146.70001,-138.90001,-18.300001,,,,,,
437322,-0.67291087,9.045118,-2.7263358,-0.56402797,0.26677,-0.53354,156.3,-134.1,-18.300001,,,,,,
437343,-0.6615461,9.0654545,-2.7137747,-0.396344,0.26677,-0.510674,149.1,-148.5,-23.1,,,,,,
437364,-0.71896785,9.165943,-2.7209523,-0.396344,0.503052,-0.548784,151.5,-138.90001,-15.900001,,,,,,
437384,-0.84517604,9.219776,-2.8465624,-0.30488,0.716468,-0.3811,149.1,-150.90001,-13.500001,,,,,,
437404,-0.81227815,9.1731205,-2.9015915,-0.221038,0.739334,-0.30488,153.90001,-148.5,-16.5,,,,,,
437426,-0.702818,9.085194,-2.7622242,-0.396344,0.7622,-0.106708,151.5,-146.1,-13.500001,,,,,,
437446,-0.74947315,8.955995,-2.7514577,-0.41158798,0.960372,0.022866,158.70001,-148.5,-18.900002,,,,,,
437466,-0.7010236,9.168336,-2.807085,-0.26677,0.891774,0.144818,165.90001,-153.3,-13.500001,,,,,,
437486,-0.6848737,9.094166,-2.8082812,-0.106708,0.83842,-0.030488,146.70001,-143.70001,-17.7,,,,,,
437506,-0.61847985,9.128858,-2.7711964,-0.07622,0.846042,-0.129574,149.1,-131.70001,-21.900002,,x,,,,
437530,-0.5640488,9.033155,-2.6198661,-0.099086,0.891774,-0.327746,153.90001,-148.5,-13.500001,,x,,,,
437593,-0.8762795,9.143213,-2.7221487,0.16768399,0.92988396,0.053354,161.1,-153.3,-18.900002,,x,,,,
437839,-3.3280675,6.8260074,-2.7406912,2.59148,-10.6708,2.080806,132.3,-150.90001,-17.7,,x,,,,
437877,-3.0600994,5.0949817,-2.4493954,4.207344,-14.984852,2.850628,151.5,-143.70001,-15.900001,,x,,,,
437896,-0.8924293,7.3057184,-1.5138998,4.893324,-17.919321,5.160094,132.3,-158.1,-18.300001,,x,,,,
437936,1.5737141,7.049713,-2.0629952,4.9543,-12.477214,3.62045,134.70001,-146.1,-17.1,,x,,,,
437996,3.0050702,6.2021446,-6.5616283,5.343022,3.6738038,3.384168,129.90001,-150.90001,-19.5,,x,,,,
438016,5.8121552,11.642853,-9.917211,7.8125496,1.75306,8.468041,122.700005,-160.5,-15.900001,,x,,,,
438058,4.3784065,12.649528,-9.435107,2.6829438,-1.097568,-3.2393498,115.50001,-160.5,-15.3,,x,,,,
438078,3.3352451,10.9113245,-9.649242,2.7820299,1.3490939,-3.117398,122.700005,-146.1,-15.3,,x,,,,
438098,3.155204,11.955682,-9.890294,0.327746,3.932952,-1.1051899,117.9,-148.5,-12.3,,x,,,,
438118,3.0319867,11.520233,-9.396228,-1.021348,3.452766,-2.484772,120.3,-160.5,-13.500001,,x,,,,
438138,2.4757137,9.920201,-7.6454635,-3.346058,4.169234,-3.025934,115.50001,-148.5,-8.700001,,x,,,,
438181,0.91695315,8.578567,-6.7590156,-5.015276,11.54733,-2.09605,113.100006,-146.1,-12.900001,,x,,,,
438202,0.1309933,8.219681,-5.826511,-4.740884,7.865904,-1.669218,122.700005,-155.70001,-11.700001,,x,,,,
438262,0.20157418,7.521648,-3.3944614,-3.3003259,6.9131536,-4.740884,127.50001,-150.90001,-14.1,,x,,,,
438298,-0.68606997,6.557441,-3.1097453,-2.073184,6.112844,-4.9619217,129.90001,-141.3,-8.1,,x,,,,
438318,-0.5090197,6.824213,-2.5492854,-1.432936,4.76375,-4.093014,146.70001,-158.1,-14.700001,,x,,,,
438358,-1.1143403,6.9713564,-2.2023625,-2.568614,7.4848037,-4.298808,127.50001,-148.5,-18.900002,,x,,,,
438378,-2.14195,6.3702226,-2.4918637,-2.2332458,6.714982,-4.0320377,134.70001,-153.3,-14.700001,,x,,,,
438418,-2.0606024,8.132352,-1.196286,-2.7058098,3.041178,-2.7820299,141.90001,-153.3,-14.700001,,x,,,,
438440,-2.3513,8.397329,-2.213129,-2.2713559,5.724122,-2.2180018,153.90001,-141.3,-8.700001,,x,,,,
438461,-2.9943037,8.5576315,-2.7323172,-1.1432999,4.222588,-1.8369019,146.70001,-141.3,-11.700001,,x,,,,
438481,-2.9003952,9.043921,-2.4452085,-0.23628199,1.669218,-1.044214,146.70001,-143.70001,-6.9,,x,,,,
438501,-2.4816952,10.320957,-1.8022047,-0.960372,0.289636,-0.70122397,158.70001,-138.90001,-11.1,,x,,,,
438521,-2.7269337,9.690515,-1.9637034,-1.006104,2.050318,-2.36282,158.70001,-129.3,-9.900001,,x,,,,
438541,-3.0301924,9.135438,-2.7095876,-0.46494198,1.539644,-1.951232,146.70001,-155.70001,-12.3,,x,,,,
438604,-2.355487,9.868761,-3.1342692,0.53354,-0.68597996,-0.251526,153.90001,-148.5,-18.300001,,x,,,,
438624,-2.0073678,9.2807865,-3.0385664,0.297258,-1.41007,0.068598,158.70001,-136.5,-17.7,,,,,,
438644,-1.5581625,8.786122,-2.8543382,-0.045732,-1.5244,0.579272,151.5,-138.90001,-14.1,,,,,,
438666,-0.90558845,8.695205,-2.7885425,-0.083841994,-1.554888,1.3567159,165.90001,-141.3,-12.3,,,,,,
438686,-0.5610581,8.926685,-2.6808767,-0.099086,-1.173788,1.585376,153.90001,-131.70001,-17.1,,,,,,
438708,-0.17884475,9.401611,-2.7054007,-0.144818,-0.87653,1.432936,156.3,-146.1,-15.3,,,,,,
438728,-0.18662061,9.390246,-2.546893,-0.358234,-0.55640596,0.69360197,165.90001,-131.70001,-9.3,,,,,,
438750,-0.48509395,8.913527,-2.6455863,-0.716468,-0.007622,0.007622,144.3,-143.70001,-18.300001,,,,,,
438770,-0.5012438,9.127662,-2.665923,-0.594516,0.045732,-0.091464,151.5,-148.5,-20.1,,,,,,
438790,-0.5819931,9.265833,-2.8280199,-0.625004,0.22865999,-0.16768399,151.5,-134.1,-14.1,,,,,,
438830,-0.51021594,9.168934,-2.5744073,-0.33536798,0.221038,-0.099086,139.5,-136.5,-13.500001,,,,,,
438853,-0.78655803,8.9464245,-2.7550466,-0.769822,0.746956,-0.503052,156.3,-141.3,-11.700001,,,,,,
438874,-0.9941136,8.64496,-3.2263832,-0.358234,0.830798,-0.22865999,151.5,-148.5,-14.1,,,,,,
438894,-0.7524639,9.036744,-3.1839151,0.23628199,-0.060976,0.11432999,168.3,-146.1,-9.900001,,,,,,
438914,-0.70640683,8.963172,-3.0828288,0.099086,-0.099086,0.144818,149.1,-148.5,-14.700001,,,,,,
438937,-0.66513497,9.0217905,-3.100773,-0.083841994,-0.015244,0.358234,170.70001,-136.5,-15.900001,,,,,,
438957,-0.70461243,9.398023,-3.175541,-0.19055,0.137196,0.26677,139.5,-143.70001,-21.300001,,,,,,
439019,-0.6310408,8.876442,-2.8040943,-0.792688,-0.030488,-0.94512796,153.90001,-129.3,-14.1,,,,,,
439041,-0.77938026,8.49363,-2.6276422,-0.518296,0.60976,-0.7622,153.90001,-141.3,-17.1,,,,,,
439061,-0.761436,9.109119,-3.0343792,0.030488,1.211898,0.15244,141.90001,-143.70001,-17.1,,,,,,
439081,-0.85355,8.950611,-2.882451,0.327746,0.99086,0.045732,156.3,-143.70001,-17.1,,,,,,
439101,-0.799119,8.711354,-3.0020795,0.480186,1.1280559,0.373478,163.5,-141.3,-22.5,,,,,,
439121,-0.5778061,9.320264,-3.0738568,0.41921,0.899396,0.7622,141.90001,-143.70001,-16.5,,,,,,
439141,-0.43185923,9.293945,-3.2078407,-0.030488,0.82317597,0.320124,146.70001,-141.3,-8.700001,,,,,,
439161,-0.27634206,9.261645,-3.1205118,-0.33536798,0.30488,-0.060976,141.90001,-138.90001,-14.1,,,,,,
439182,-0.14415246,9.199439,-2.9195359,-0.846042,0.16768399,-0.503052,141.90001,-138.90001,-14.1,,,,,,
439202,-0.16329303,9.027174,-2.9099655,-1.1051899,0.23628199,-0.80030996,139.5,-146.1,-12.900001,,,,,,
439222,-0.30266035,9.034949,-2.8046925,-1.082324,0.16768399,-1.1128119,146.70001,-141.3,-17.7,,,,,,
439242,-0.35350248,8.897975,-2.7137747,-1.189032,0.16768399,-1.272874,139.5,-155.70001,-15.3,,,,,,
439266,-0.31761393,9.081007,-2.6204643,-0.975616,0.442076,-1.06708,146.70001,-153.3,-14.1,,,,,,
439287,-0.63702226,8.653335,-2.539715,-1.166166,0.602138,-1.242386,156.3,-136.5,-12.900001,,,,,,
439307,-0.7961283,9.038538,-2.531341,-0.67835796,0.68597996,-0.80793196,144.3,-129.3,-13.500001,,,,,,
439327,-0.9701879,9.061866,-2.5450983,-0.81555396,0.769822,-1.1356779,158.70001,-141.3,-19.5,,,,,,
439349,-1.1328828,8.607876,-2.6384087,-0.68597996,0.769822,-0.960372,153.90001,-146.1,-14.1,,,,,,
439369,-1.2052581,8.7191305,-2.3770201,-0.030488,0.480186,-0.434454,158.70001,-138.90001,-12.3,,,,,,
439389,-1.4702355,9.352564,-2.3752258,0.34298998,0.55640596,0.07622,175.5,-131.70001,-16.5,,,,,,
439411,-2.0312936,9.767674,-2.1598942,0.23628199,0.41921,-0.129574,153.90001,-143.70001,-19.5,,,,,,
439475,-3.5416045,9.612158,-1.8685987,0.053354,-0.541162,0.57164997,153.90001,-148.5,-11.1,,,,,,
439495,-3.489566,9.239514,-1.3996545,-0.434454,-1.8521459,1.532022,151.5,-150.90001,-15.900001,,,,,,
439515,-3.3137121,9.536792,-1.3476161,-0.327746,-2.065562,1.989342,153.90001,-141.3,-12.900001,,,,,,
439555,-3.4656403,8.019302,-1.6933428,1.783548,-5.663146,0.34298998,141.90001,-141.3,-16.5,,x,,,,
439612,-3.505118,6.1770225,-2.8328052,5.114362,-11.105254,3.025934,153.90001,-136.5,-12.3,,x,,,,
439676,0.41451308,6.513777,-2.3082337,2.454284,-12.34764,6.1204658,134.70001,-146.1,-17.1,,x,,,,
439696,0.21533147,6.1154137,-3.024211,1.9054999,-9.664696,4.474114,141.90001,-136.5,-11.700001,,x,,,,
439716,0.81646514,5.7290134,-4.726526,3.330814,-6.150954,3.437522,141.90001,-155.70001,-14.700001,,x,,,,
439736,2.0324898,7.4373097,-5.9413543,4.123502,-8.07932,5.312534,129.90001,-150.90001,-9.3,,x,,,,
439756,2.1006782,9.095362,-5.3874736,2.416174,-7.77444,4.53509,129.90001,-150.90001,-18.900002,,x,,,,
439778,2.899199,10.297031,-6.6926217,3.88722,-2.080806,4.291186,125.100006,-155.70001,-20.1,,x,,,,
439798,3.8957052,12.360624,-8.263944,3.605206,1.089946,3.7347798,120.3,-153.3,-18.300001,,x,,,,
439861,3.2215981,12.357036,-9.902855,1.1432999,1.570132,0.830798,120.3,-148.5,-14.1,,x,,,,
439937,0.7010236,9.326245,-7.236334,-3.2698379,7.233278,-3.109776,113.100006,-146.1,-14.700001,,x,,,,
440036,-0.49586052,6.2529864,-2.8728807,-3.2698379,6.1052217,-4.291186,132.3,-153.3,-18.300001,,x,,,,
440057,-0.3588858,6.305623,-2.368048,-2.355198,5.83083,-3.833866,144.3,-143.70001,-15.900001,,x,,,,
440097,-0.32479164,6.814643,-1.6670245,-1.6539739,5.419242,-3.3079479,141.90001,-141.3,-14.1,,x,,,,
440117,-0.5963485,7.0042543,-1.4839927,-1.8521459,5.9070497,-3.597584,132.3,-146.1,-16.5,,x,,,,
440179,-1.3601772,7.940946,-1.9571238,-1.821658,5.480218,-3.612828,149.1,-141.3,-18.900002,,x,,,,
440219,-1.9589182,8.738271,-2.4236753,-1.730194,3.978684,-2.8048959,151.5,-146.1,-18.900002,,x,,,,
440239,-1.8093824,9.08639,-2.1401556,-1.539644,2.7362978,-2.408552,151.5,-148.5,-23.1,,x,,,,
440281,-2.3847961,8.58395,-2.5971367,-1.6387299,3.170752,-2.088428,139.5,-148.5,-14.1,,x,,,,
440323,-2.129389,10.151683,-2.7377005,-0.022866,1.48629,-0.198172,161.1,-150.90001,-11.1,,x,,,,
440421,-1.9942087,9.27002,-3.2676551,0.03811,-0.92988396,0.67073596,146.70001,-136.5,-11.700001,,,,,,
440519,-0.81646514,9.055884,-2.8393848,-0.548784,-0.70122397,1.1280559,144.3,-143.70001,-12.3,,,,,,
440539,-0.673509,9.204823,-2.8046925,-0.45731997,-0.518296,0.92226195,151.5,-148.5,-15.900001,,,,,,
440579,-0.58976895,8.7735615,-2.8052905,-0.586894,-0.11432999,0.213416,141.90001,-148.5,-5.1000004,,,,,,
440601,-0.54371196,8.694606,-2.9566207,-0.449698,0.121952,0.312502,144.3,-143.70001,-9.900001,,,,,,
440621,-0.58976895,8.940443,-3.1558022,-0.121952,0.221038,0.41158798,141.90001,-141.3,-14.1,,,,,,
440641,-0.58558196,8.899171,-3.2742345,0.106708,0.091464,0.22865999,156.3,-143.70001,-18.300001,,,,,,
440662,-0.48329952,9.091175,-3.2311683,0.213416,-0.213416,0.243904,137.1,-148.5,-11.700001,,,,,,
440702,-0.4396351,8.875245,-3.2736366,-0.35061198,0.091464,0.15244,156.3,-148.5,-16.5,,,,,,
440722,-0.40135393,8.856703,-3.1677651,-0.41921,0.060976,0.20579399,144.3,-148.5,-17.7,,,,,,
440782,-0.36247465,8.900368,-3.0768476,-0.731712,0.60976,-0.41158798,141.90001,-148.5,-18.300001,,,,,,
440939,-0.3702505,9.145606,-3.0134442,-0.182928,0.82317597,-0.525918,146.70001,-146.1,-8.700001,,x,,,,
440959,-0.4426258,8.758608,-2.8974047,-0.16768399,0.57164997,-0.80030996,170.70001,-143.70001,-24.300001,,x,,,,
440999,-0.8930275,8.753822,-2.7496634,-0.26677,0.60976,-0.3811,153.90001,-138.90001,-11.1,,x,,,,
441043,-1.1891083,8.566604,-2.0438545,0.56402797,-0.754578,-0.15244,146.70001,-141.3,-4.5,,x,,,,
441242,-3.3310583,7.7794476,-3.844863,1.775926,-8.300358,3.147886,156.3,-148.5,-17.7,,x,,,,
441284,-0.8397927,7.63051,-2.6952322,2.51526,-12.644897,4.245454,151.5,-141.3,-12.3,,x,,,,
441304,-0.28112718,7.099359,-3.13726,2.987824,-11.7150135,3.589962,141.90001,-141.3,-19.5,,x,,,,
441324,0.3858022,6.3696246,-3.2072427,3.54423,-11.593061,3.056422,139.5,-143.70001,-21.900002,,x,,,,
441344,1.1986785,6.2691364,-3.3244786,3.8109999,-10.602201,3.132642,132.3,-153.3,-17.7,,x,,,,
441410,3.1851113,8.517556,-5.4574566,2.568614,-3.50612,4.0015497,127.50001,-162.90001,-15.3,,x,,,,
441430,3.0236127,8.853712,-5.9389615,1.3872039,-2.13416,2.919226,134.70001,-146.1,-20.1,,x,,,,
441450,2.8525438,9.344788,-6.041842,0.884152,-0.99086,2.416174,129.90001,-155.70001,-13.500001,,x,,,,
441470,2.62824,10.937642,-6.6914253,1.250008,2.59148,1.8521459,110.700005,-158.1,-15.3,,x,,,,
441490,2.5839777,12.172808,-8.537892,1.94361,6.181442,1.150922,137.1,-150.90001,-16.5,,x,,,,
441514,3.0571086,12.230827,-10.072129,0.56402797,1.6387299,-0.792688,105.9,-158.1,-17.7,,x,,,,
441535,2.9344895,11.708649,-8.423648,-1.8826339,-1.539644,-1.966476,110.700005,-153.3,-16.5,,x,,,,
441555,2.0181344,10.569784,-7.083209,-3.8109999,1.98172,-3.376546,115.50001,-146.1,-14.1,,x,,,,
441575,1.2913907,9.15099,-7.275811,-4.4512477,6.608274,-3.567096,125.100006,-153.3,-14.700001,,x,,,,
441615,0.105871305,8.957789,-6.2063313,-3.84911,5.167716,-1.326228,120.3,-148.5,-20.7,,x,,,,
441654,-0.5263658,8.99966,-3.9028828,-4.321674,7.69822,-3.612828,129.90001,-146.1,-18.900002,,x,,,,
441678,-0.6124984,8.265738,-4.233656,-3.910086,8.80341,-4.260698,134.70001,-153.3,-18.300001,,x,,,,
441719,-1.4134119,7.4444876,-3.30474,-1.9131219,5.4268637,-2.6981878,141.90001,-148.5,-17.7,,x,,,,
441781,-1.0605075,6.5963206,-2.4051328,-1.4024479,5.5030837,-3.08691,139.5,-150.90001,-10.5,,x,,,,
441803,-0.90379405,6.806867,-1.6365192,-0.23628199,3.6661818,-2.2484899,132.3,-146.1,-16.5,,x,,,,
441823,-0.8768776,7.886515,-1.5904622,-0.510674,3.650938,-2.103672,149.1,-141.3,-18.300001,,x,,,,
441844,0.08852516,9.367517,-1.0509372,-1.227142,1.996964,-1.8369019,141.90001,-141.3,-15.3,,x,,,,
441865,-1.1280977,7.326055,-0.41870007,-3.384168,4.733262,-4.11588,149.1,-143.70001,-26.7,,x,,,,
441926,-1.6042194,8.622231,-1.6945391,-3.2698379,4.504602,-0.388722,153.90001,-143.70001,-16.5,,x,,,,
441956,-2.0552192,9.652233,-2.2872987,-2.126538,2.195136,-0.70122397,149.1,-136.5,-11.700001,,x,,,,
441976,-2.179035,9.077417,-1.5934529,-1.06708,0.846042,-1.6463519,141.90001,-143.70001,-6.3,,x,,,,
442016,-2.7173636,11.049495,-2.639605,-0.80793196,2.042696,-2.500016,158.70001,-146.1,-14.700001,,x,,,,
442038,-3.4291537,9.391443,-3.0846233,0.007622,1.173788,-3.628072,153.90001,-153.3,-14.700001,,x,,,,
442058,-3.4453034,9.093568,-2.8860397,0.899396,-0.56402797,-2.43904,156.3,-146.1,-12.3,,x,,,,
442082,-2.8399827,9.591821,-2.782561,0.358234,-0.99086,-0.57164997,180.3,-141.3,-16.5,,x,,,,
442102,-2.3650572,9.578063,-2.6748953,-0.198172,-1.1128119,0.548784,165.90001,-136.5,-12.3,,x,,,,
442122,-1.9403758,9.191663,-2.2292788,-0.518296,-0.95274997,1.303362,156.3,-141.3,-16.5,,x,,,,
442142,-1.4732262,8.846535,-2.1311834,-0.754578,-0.289636,1.6158639,137.1,-138.90001,-14.1,,x,,,,
442186,-0.77997845,9.213196,-2.1018744,-0.030488,0.30488,1.3643379,153.90001,-143.70001,-15.900001,,x,,,,
442208,-0.6573591,8.9464245,-2.1622868,0.015244,0.663114,0.602138,141.90001,-141.3,-15.3,,x,,,,
442229,-0.55746925,8.966163,-2.1927922,0.091464,0.69360197,0.373478,146.70001,-134.1,-20.7,,,,,,
442250,-0.5682358,8.612062,-2.3907773,0.213416,0.769822,0.198172,149.1,-148.5,-16.5,,,,,,
442333,-0.41152236,8.848329,-2.9524338,0.754578,0.46494198,0.17530599,149.1,-150.90001,-12.3,,,,,,
442373,-0.43066293,9.448865,-3.2413368,0.967994,0.251526,0.121952,151.5,-146.1,-15.3,,,,,,
442393,-0.4288685,9.552941,-3.2778234,0.7622,0.129574,-0.17530599,151.5,-150.90001,-9.900001,,,,,,
442434,-0.60651696,9.198242,-3.2192054,0.106708,0.20579399,-0.28201398,151.5,-146.1,-17.1,,,,,,
442454,-0.68606997,9.165345,-3.2580848,-0.129574,0.251526,-0.137196,151.5,-148.5,-9.900001,,,,,,
442477,-0.73810846,9.009828,-3.142045,-0.20579399,0.060976,-0.068598,151.5,-141.3,-12.900001,,,,,,
442497,-0.6794904,8.915321,-3.0272017,-0.243904,0.106708,0.015244,156.3,-143.70001,-11.700001,,,,,,
442582,-0.42348522,9.037342,-2.7347097,-0.41158798,0.373478,0.785066,144.3,-143.70001,-13.500001,,,,,,
442621,-0.4468128,9.49851,-2.9506392,-0.434454,1.013726,-0.099086,137.1,-146.1,-15.900001,,,,,,
442662,-0.27634206,9.256263,-2.7915332,0.198172,0.594516,-0.55640596,156.3,-143.70001,-14.1,,,,,,
442682,-0.5467027,9.162952,-2.8585253,-0.20579399,0.998482,-0.792688,149.1,-155.70001,-9.3,,x,,,,
442743,-0.46834594,9.015809,-2.5062191,-0.23628199,0.632626,-0.94512796,137.1,-155.70001,-17.7,,x,,,,
442763,-0.3869985,8.825002,-2.3207948,-0.434454,1.1432999,-0.663114,141.90001,-141.3,-18.300001,,x,,,,
442784,-0.20695747,8.921303,-2.1999698,-0.503052,1.432936,-0.259148,163.5,-143.70001,-10.5,,x,,,,
442826,-0.62446123,9.387854,-2.2837098,-0.243904,1.768304,-0.49543,141.90001,-141.3,-16.5,,x,,,,
442856,-1.7663162,9.243702,-1.6927446,-0.144818,0.503052,-0.83842,153.90001,-136.5,-11.700001,,x,,,,
442876,-2.0217233,9.478771,-1.6831744,-0.34298998,0.617382,-0.830798,151.5,-143.70001,-14.700001,,x,,,,
442918,-4.4579597,9.258057,-2.7054007,-0.480186,-0.373478,-0.19055,156.3,-146.1,-14.700001,,x,,,,
442979,-4.768994,9.743749,-3.5673246,-1.6311079,-0.632626,2.55337,163.5,-146.1,-8.1,,x,,,,
443001,-5.1135244,9.309497,-4.162477,-0.594516,-3.2698379,3.597584,158.70001,-146.1,-14.700001,,x,,,,
443041,-3.6169705,8.04921,-3.9250143,0.35061198,-8.224138,5.167716,137.1,-153.3,-12.3,,x,,,,
443061,-2.2603822,6.5532546,-3.9190328,2.179892,-10.807996,4.984788,146.70001,-153.3,-21.300001,,x,,,,
443081,-0.5694321,6.9193177,-2.9984908,2.85825,-13.330877,6.814068,132.3,-150.90001,-17.1,,x,,,,
443101,0.64120924,7.2231746,-2.9458542,2.926848,-12.012272,6.699738,122.700005,-148.5,-18.300001,,x,,,,
443124,1.7663162,7.7345867,-2.924321,2.843006,-11.783611,6.638762,132.3,-165.3,-21.900002,,x,,,,
443144,2.1527166,7.845243,-2.134174,1.9131219,-11.836966,5.266802,115.50001,-160.5,-23.1,,x,,,,
443165,2.255597,6.211117,-2.363263,1.250008,-9.893355,3.338436,117.9,-182.1,-17.7,,x,,,,
443225,2.5666316,6.178219,-3.7683008,1.29574,-5.79272,2.7286758,110.700005,-160.5,-20.7,,x,,,,
443277,3.3208897,10.660104,-5.7571263,-0.16768399,-0.106708,1.288118,93.9,-158.1,-20.1,,x,,,,
443297,3.6133816,12.028057,-7.635295,2.507638,3.559474,2.035074,103.50001,-162.90001,-14.700001,,x,,,,
443337,3.4626496,12.837344,-8.236428,-0.091464,-1.1432999,-1.478668,98.700005,-165.3,-19.5,,x,,,,
443357,2.865105,11.617133,-6.769184,-1.036592,-0.442076,-2.957336,96.3,-158.1,-18.300001,,x,,,,
443377,2.6838675,11.634479,-6.4330277,-2.355198,4.0472817,-3.384168,93.9,-155.70001,-9.3,,x,,,,
443397,1.6287433,10.552439,-6.3367267,-3.2850819,6.768336,-4.718018,91.5,-174.90001,-14.1,,x,,,,
443417,0.0053832866,9.055286,-5.882138,-3.2545938,8.11743,-5.0533857,108.3,-167.70001,-17.7,,x,,,,
443437,-1.0521334,8.409292,-5.8893156,-2.454284,8.658592,-4.085392,113.100006,-158.1,-12.3,,x,,,,
443457,-1.1424531,8.512771,-5.188292,-2.01983,5.670768,-3.0488,117.9,-167.70001,-18.300001,,x,,,,
443541,-0.4940661,6.535908,-2.8040943,-1.6387299,5.708878,-1.8597679,125.100006,-160.5,-20.1,,x,,,,
443579,0.37623194,7.52404,-1.6616411,-1.265252,4.9924097,-1.79117,115.50001,-162.90001,-19.5,,x,,,,
443639,-0.10228245,7.6981,-2.0510323,-0.083841994,5.4878397,-2.370442,129.90001,-150.90001,-23.1,,x,,,,
443662,-0.07716044,9.041529,-2.1389592,-0.518296,5.495462,-3.079288,122.700005,-153.3,-23.7,,x,,,,
443682,-0.11903045,8.874049,-2.0169382,-0.769822,5.37351,-3.879598,120.3,-146.1,-17.1,,x,,,,
443702,-0.7087994,8.857301,-2.301654,-0.87653,5.823208,-3.955818,134.70001,-148.5,-10.5,,x,,,,
443762,-1.6030232,9.158167,-1.790242,-0.983238,2.873494,-4.0167937,144.3,-153.3,-13.500001,,x,,,,
443782,-1.8817577,9.785021,-2.317206,-1.021348,4.969544,-3.88722,149.1,-141.3,-21.900002,,x,,,,
443802,-2.5708184,9.902257,-3.1725502,-0.45731997,5.22107,-3.6966698,146.70001,-146.1,-13.500001,,x,,,,
443822,-2.3991516,10.08828,-3.2365515,-0.426832,3.2927039,-2.7286758,163.5,-136.5,-14.1,,x,,,,
443842,-2.5259578,9.195251,-2.9566207,-0.510674,2.40093,-1.798792,158.70001,-150.90001,-16.5,,x,,,,
443882,-1.6371173,9.398023,-2.647979,-0.045732,0.198172,0.525918,163.5,-150.90001,-15.900001,,x,,,,
443946,-0.97377676,8.711354,-2.2849061,-0.899396,-0.541162,0.160062,163.5,-141.3,-9.3,,x,,,,
443966,-0.92891604,8.336319,-2.301654,-0.80793196,-0.45731997,0.503052,146.70001,-141.3,-16.5,,x,,,,
443986,-0.96241206,8.524136,-2.347711,-0.068598,-0.64787,0.868908,165.90001,-143.70001,-11.1,,x,,,,
444006,-0.7034161,9.214991,-2.2095401,0.480186,-1.02897,0.746956,156.3,-143.70001,-13.500001,,,,,,
444066,-0.744688,9.122278,-2.385394,0.099086,-0.007622,0.137196,139.5,-138.90001,-10.5,,,,,,
444138,-0.76741743,9.162952,-2.8968065,0.739334,-0.49543,0.22865999,158.70001,-138.90001,-13.500001,,,,,,
444238,-0.5167955,9.213196,-3.2395422,-0.030488,-0.388722,-0.373478,144.3,-141.3,-14.1,,,,,,
444259,-0.60472256,8.969752,-3.2335608,-0.137196,-0.068598,-0.251526,156.3,-148.5,-13.500001,,,,,,
444302,-0.75665087,9.276599,-3.2497108,-0.35061198,0.41921,-0.35061198,149.1,-148.5,-11.700001,,,,,,
444322,-0.7596416,9.019996,-3.188102,-0.41158798,0.365856,-0.23628199,149.1,-148.5,-18.900002,,,,,,
444382,-0.5849838,9.315478,-3.1558022,-0.099086,0.182928,0.060976,153.90001,-150.90001,-11.700001,,,,,,
444481,-0.35529694,8.991285,-2.8980026,-0.41158798,1.1280559,-0.312502,139.5,-136.5,-11.700001,,,,,,
444501,-0.28591233,9.022986,-2.8399827,-0.28201398,1.1280559,-0.510674,149.1,-143.70001,-20.7,,,,,,
444541,-0.50064564,8.865675,-2.7939258,-0.327746,1.234764,-0.769822,158.70001,-141.3,-12.900001,,x,,,,
444563,-0.6041244,8.779543,-2.8226366,-0.160062,1.1432999,-0.67835796,149.1,-146.1,-9.3,,x,,,,
444583,-0.55328226,8.61266,-2.6796806,-0.045732,0.884152,-0.480186,139.5,-143.70001,-10.5,,x,,,,
444605,-0.70221984,8.827394,-2.3752258,-0.106708,0.891774,-0.144818,149.1,-138.90001,-11.1,,x,,,,
444625,-0.96659905,9.329834,-2.5133967,-0.41158798,1.082324,-0.30488,163.5,-138.90001,-14.700001,,x,,,,
444685,-1.8590283,9.220972,-1.8339063,0.243904,0.46494198,0.251526,144.3,-148.5,-10.5,,x,,,,
444712,-2.756841,9.897471,-1.8512524,0.015244,0.769822,0.0,151.5,-138.90001,-15.3,,x,,,,
444732,-3.7336085,9.976427,-2.1030707,-0.442076,1.1051899,-0.16768399,149.1,-148.5,-8.1,,x,,,,
444797,-5.0172234,8.205923,-4.033278,0.579272,-1.6082419,2.080806,141.90001,-131.70001,-11.1,,x,,,,
444917,0.7315289,6.6950145,-2.5367243,-0.426832,-12.637276,3.7728899,137.1,-141.3,-14.700001,,x,,,,
445017,3.155204,8.052799,-2.0653877,1.1356779,-9.961954,1.3414719,125.100006,-150.90001,-15.3,,x,,,,
445078,1.9810495,8.405105,-3.9638934,-1.417692,-1.471046,0.56402797,113.100006,-158.1,-18.900002,,x,,,,
445098,1.8303175,9.949511,-5.456858,0.26677,0.396344,1.71495,125.100006,-165.3,-21.300001,,x,,,,
445118,1.8518506,11.063252,-4.9562125,-0.602138,-1.554888,0.19055,117.9,-158.1,-24.900002,,x,,,,
445139,1.6484821,11.400007,-5.6422825,-0.251526,2.2332458,0.182928,117.9,-158.1,-20.7,,x,,,,
445199,1.6574541,12.025066,-5.815146,-0.746956,3.08691,-1.958854,129.90001,-146.1,-15.3,,x,,,,
445244,0.04187001,9.212598,-5.635105,-1.996964,7.01224,-3.414656,120.3,-158.1,-21.300001,,x,,,,
445264,-0.48569208,8.772963,-5.548374,-1.318606,6.8369336,-2.7744079,144.3,-148.5,-21.300001,,x,,,,
445284,-0.36367092,8.536696,-4.857519,-1.06708,5.5183277,-2.614346,134.70001,-146.1,-19.5,,x,,,,
445308,-0.1573116,8.713149,-3.8795552,-1.3948259,5.205826,-2.911604,134.70001,-162.90001,-21.300001,,x,,,,
445328,-0.5724228,7.9517126,-4.049428,-1.48629,7.286632,-3.7500238,146.70001,-155.70001,-17.7,,x,,,,
445352,-0.8924293,7.408599,-4.129579,-0.998482,5.975648,-3.361302,141.90001,-131.70001,-23.7,,x,,,,
445372,-0.81646514,7.132855,-3.1348674,-0.861286,3.841488,-2.59148,132.3,-143.70001,-24.300001,,x,,,,
445393,-0.6214706,7.519255,-2.6120903,-1.707328,5.167716,-1.56251,149.1,-146.1,-21.900002,,x,,,,
445413,-0.78177285,7.4068046,-2.8399827,-1.669218,5.18296,-1.760682,153.90001,-138.90001,-17.1,,x,,,,
445433,-0.96839345,7.074237,-2.489471,-1.3567159,4.184478,-1.8978779,144.3,-160.5,-14.700001,,x,,,,
445453,-0.86790544,7.593425,-2.0982854,-0.81555396,3.483254,-1.471046,149.1,-150.90001,-21.300001,,x,,,,
445535,-1.1478363,9.576269,-1.6407062,-0.83842,2.500016,-1.051836,149.1,-146.1,-15.900001,,x,,,,
445555,-1.0904146,10.055382,-1.7130815,-1.1128119,3.2088618,-1.25763,137.1,-141.3,-18.900002,,x,,,,
445575,-1.5635457,9.50509,-1.8973095,-1.44818,3.559474,-2.47715,156.3,-148.5,-14.700001,,x,,,,
445656,-1.9989938,10.230638,-2.488873,-0.045732,2.2408679,-1.806414,149.1,-143.70001,-15.900001,,x,,,,
445696,-3.008061,8.294449,-3.174943,0.144818,1.6539739,-2.179892,153.90001,-131.70001,-22.5,,x,,,,
445802,-1.4235803,9.780834,-3.0487347,0.33536798,-1.272874,1.29574,151.5,-138.90001,-16.5,,,,,,
445823,-0.9660009,10.099644,-2.9626021,-0.068598,-0.960372,0.884152,163.5,-138.90001,-12.3,,,,,,
445863,-0.9229346,9.015211,-2.568426,-0.68597996,-0.35061198,0.510674,158.70001,-148.5,-5.1000004,,,,,,
445917,-0.70939755,8.580361,-2.710784,-0.19055,0.015244,0.602138,151.5,-129.3,-17.1,,,,,,
445937,-0.64120924,8.421853,-2.5594537,0.198172,-0.503052,0.769822,149.1,-141.3,-14.1,,,,,,
445981,-0.32479164,9.18927,-2.7000175,0.259148,0.46494198,0.625004,151.5,-148.5,-17.7,,,,,,
446001,-0.5317491,8.97035,-3.099577,0.251526,0.53354,0.068598,153.90001,-141.3,-20.7,,,,,,
446022,-0.5963485,8.796888,-3.0571086,0.594516,0.053354,0.121952,151.5,-146.1,-14.1,,,,,,
446042,-0.38400778,9.036744,-3.0295942,0.579272,0.129574,0.221038,168.3,-153.3,-17.1,,,,,,
446062,-0.43784064,9.2807865,-3.13726,0.320124,0.49543,0.198172,146.70001,-141.3,-13.500001,,,,,,
446082,-0.41810194,9.412976,-3.359171,0.068598,0.868908,-0.160062,144.3,-146.1,-19.5,,,,,,
446122,-0.6711164,9.089979,-3.3986483,-0.16768399,0.975616,-0.594516,146.70001,-141.3,-12.3,,,,,,
446159,-0.66334057,9.117494,-3.2646644,-0.312502,0.68597996,-0.19055,146.70001,-148.5,-12.900001,,,,,,
446179,-0.7219586,8.779543,-3.2389443,-0.754578,0.632626,-0.19055,161.1,-141.3,-10.5,,,,,,
446220,-0.37084866,9.101343,-3.0140424,-0.47256398,0.213416,0.099086,146.70001,-143.70001,-16.5,,,,,,
446240,-0.3409415,8.955995,-2.7185597,-0.7622,0.289636,0.045732,153.90001,-143.70001,-19.5,,,,,,
446260,-0.31163248,9.024781,-2.6970267,-0.899396,0.82317597,-0.060976,144.3,-143.70001,-11.700001,,,,,,
446304,-0.5161974,8.996669,-2.8124683,-0.853664,0.94512796,-0.69360197,146.70001,-146.1,-12.900001,,,,,,
446336,-0.58378756,8.936854,-2.5714166,-0.716468,0.67073596,-0.846042,151.5,-138.90001,-14.1,,,,,,
446356,-0.5706284,9.086988,-2.6294365,-0.716468,0.907018,-0.68597996,144.3,-141.3,-12.3,,,,,,
446396,-0.73751026,8.734084,-2.710784,-0.3811,0.81555396,-0.45731997,149.1,-148.5,-17.7,,,,,,
446539,-0.5664414,8.737075,-2.6090996,0.15244,0.67835796,-1.3795819,158.70001,-146.1,-7.5000005,,x,,,,
446721,-5.1942735,9.626513,-4.1277847,-0.632626,-2.2637339,1.570132,163.5,-129.3,-7.5000005,,x,,,,
446781,-3.1641762,7.994779,-2.9021897,-0.320124,-11.24245,2.47715,161.1,-136.5,-11.1,,x,,,,
446820,-1.4146081,7.6837444,-1.8512524,0.16768399,-11.814099,5.0838737,161.1,-150.90001,-17.1,,x,,,,
446841,-0.9366919,7.4869556,-1.5491903,0.72409,-12.865935,4.76375,144.3,-155.70001,-11.700001,,x,,,,
446881,0.18004103,7.076031,0.10288059,2.2103798,-14.359848,4.4360037,139.5,-141.3,-20.1,,x,,,,
446901,0.33376378,6.979132,0.14175989,2.195136,-13.475696,4.070148,151.5,-150.90001,-21.300001,,x,,,,
446941,1.0311985,6.3349323,-0.9354956,2.850628,-11.143364,3.376546,122.700005,-150.90001,-22.5,,x,,,,
446961,1.1717621,6.4551587,-1.83271,1.79117,-8.368956,3.62045,132.3,-155.70001,-24.300001,,x,,,,
446981,1.5336386,7.2799983,-3.5876615,2.431418,-5.167716,3.589962,134.70001,-158.1,-29.7,,x,,,,
447005,0.66513497,6.9103456,-6.697407,4.085392,1.8826339,1.29574,117.9,-146.1,-18.900002,,x,,,,
447045,3.6091948,12.511954,-6.513777,0.289636,-6.8598,4.0015497,120.3,-148.5,-17.1,,x,,,,
447066,3.1037638,12.680033,-7.3553643,2.141782,2.187514,0.899396,108.3,-148.5,-15.900001,,x,,,,
447086,2.4571714,12.051385,-9.335815,2.850628,6.775958,0.23628199,108.3,-155.70001,-20.7,,x,,,,
447108,2.2077458,12.243388,-9.8101425,0.998482,3.513742,-0.030488,127.50001,-158.1,-14.700001,,x,,,,
447128,2.1365666,12.541264,-8.219083,-0.388722,0.94512796,-1.1051899,115.50001,-155.70001,-21.900002,,x,,,,
447148,1.5150962,12.277483,-6.4055133,-2.55337,3.437522,-3.155508,103.50001,-165.3,-17.7,,x,,,,
447168,0.23566833,10.240208,-6.568806,-3.635694,9.329328,-5.274424,113.100006,-148.5,-17.7,,x,,,,
447188,-0.7710063,8.618044,-6.6710887,-3.7576458,9.199754,-5.18296,137.1,-160.5,-15.3,,x,,,,
447208,-1.347018,8.111417,-5.3617535,-3.971062,7.149436,-3.940574,127.50001,-150.90001,-20.1,,x,,,,
447272,-1.0934054,7.3182793,-3.3490026,-3.08691,8.68908,-2.7591639,120.3,-155.70001,-23.1,,x,,,,
447296,-1.2620816,6.791315,-3.1205118,-2.17227,8.46042,-1.989342,132.3,-146.1,-14.1,,x,,,,
447316,-1.0084691,7.496526,-2.8836472,-1.425314,7.644866,-1.5929979,137.1,-155.70001,-23.7,,x,,,,
447359,-0.74408984,7.1095276,-2.3746276,-1.669218,7.4543157,-2.378064,132.3,-143.70001,-21.900002,,x,,,,
447379,-0.761436,7.092779,-2.694036,-1.516778,7.797306,-1.79117,134.70001,-155.70001,-14.1,,x,,,,
447399,-0.8864479,7.7298017,-2.9213302,-0.72409,6.8826656,-1.3414719,134.70001,-138.90001,-20.1,,x,,,,
447419,-0.9354956,8.371011,-2.932097,-0.137196,5.5183277,-1.288118,139.5,-158.1,-18.900002,,x,,,,
447439,-0.53892684,8.742457,-2.376422,-0.602138,3.7881339,-1.760682,141.90001,-155.70001,-13.500001,,x,,,,
447459,-0.6310408,8.353664,-1.7465775,-1.417692,3.7500238,-2.2942219,127.50001,-148.5,-9.900001,,x,,,,
447479,-1.0347873,8.101249,-2.1945865,-1.67684,5.5793037,-2.378064,137.1,-143.70001,-6.9,,x,,,,
447501,-1.2860074,9.046314,-2.8639085,-0.92226195,4.0015497,-1.463424,146.70001,-136.5,-9.3,,x,,,,
447521,-1.025217,9.261047,-2.4111142,-0.60976,2.7591639,-1.227142,134.70001,-136.5,-15.3,,x,,,,
447543,-0.35110992,10.99327,-2.2095401,-0.754578,1.9131219,-0.67073596,158.70001,-141.3,-16.5,,x,,,,
447607,-1.585677,9.502099,-2.5791924,-0.640248,1.989342,-1.6539739,146.70001,-148.5,-12.900001,,,,,,
447627,-2.065986,9.158167,-2.8357959,-0.899396,1.737816,-1.745438,153.90001,-158.1,-15.3,,,,,,
447647,-2.2394474,8.972743,-3.0313885,-0.69360197,0.746956,-1.3567159,132.3,-146.1,-15.900001,,,,,,
447669,-1.903291,9.093568,-2.9297042,-0.41921,-0.358234,-0.632626,146.70001,-148.5,-16.5,,,,,,
447729,-1.0102634,8.914722,-2.6007257,-0.92226195,-0.754578,0.365856,141.90001,-153.3,-9.900001,,,,,,
447834,-0.9857396,8.697597,-2.72813,0.045732,-0.503052,-0.045732,144.3,-143.70001,-11.700001,,,,,,
447854,-0.82424104,8.933864,-2.7783742,0.480186,-0.739334,0.20579399,149.1,-155.70001,-20.7,,,,,,
447897,-0.6513777,9.168336,-2.7903368,0.60976,-0.67073596,0.20579399,151.5,-146.1,-15.3,,,,,,
447957,-0.6830793,9.290357,-2.9261155,0.11432999,-0.289636,0.213416,141.90001,-148.5,-14.1,,,,,,
447977,-0.64360183,9.095961,-2.9889205,-0.198172,-0.221038,0.17530599,146.70001,-138.90001,-16.5,,,,,,
448018,-0.35110992,9.105531,-2.819048,-0.144818,-0.106708,0.053354,141.90001,-143.70001,-13.500001,,,,,,
448038,-0.30684733,9.056482,-2.866301,-0.068598,0.022866,0.0,149.1,-141.3,-12.900001,,,,,,
448058,-0.3397452,8.96078,-2.8794603,0.121952,0.259148,-0.068598,151.5,-141.3,-17.7,,,,,,
448100,-0.47552365,8.899769,-3.0307903,0.289636,0.16768399,-0.121952,156.3,-134.1,-13.500001,,x,,,,
448160,-0.36845607,8.899769,-3.1575968,0.060976,0.579272,0.045732,139.5,-138.90001,-20.1,,x,,,,
448259,-0.3881948,9.152185,-2.9147508,-0.40396598,0.53354,-0.46494198,144.3,-136.5,-9.900001,,x,,,,
448280,-0.4151112,9.083998,-2.9303024,-0.426832,0.785066,-0.487808,153.90001,-146.1,-14.700001,,x,,,,
448323,-0.3188102,9.082203,-2.8435717,-0.144818,0.884152,-0.632626,153.90001,-146.1,-11.700001,,x,,,,
448518,-4.108644,8.917115,-2.5522761,1.94361,-1.8521459,0.625004,141.90001,-131.70001,-10.5,,x,,,,
448558,-3.3280675,9.177906,-3.3113196,2.7591639,-5.495462,2.065562,165.90001,-136.5,-15.900001,,x,,,,
448579,-3.1982706,8.266934,-3.748562,3.376546,-6.4177237,1.669218,139.5,-155.70001,-14.1,,x,,,,
448619,-2.3291688,6.547871,-3.0642865,4.260698,-13.193682,3.033556,132.3,-153.3,-7.5000005,,x,,,,
448675,-0.79373574,5.601011,-2.171259,3.132642,-10.876594,2.614346,158.70001,-141.3,-15.900001,,x,,,,
448695,0.08852516,5.680564,-2.6228569,3.147886,-9.1159115,3.361302,139.5,-136.5,-11.700001,,x,,,,
448735,1.2315763,5.2439194,-4.442408,4.298808,-5.9222937,4.207344,151.5,-148.5,-12.900001,,x,,,,
448755,2.1862125,6.7614083,-5.2193956,3.833866,-5.000032,6.6158957,134.70001,-143.70001,-8.1,,x,,,,
448795,2.68626,11.961065,-8.808253,4.146368,3.917708,4.740884,132.3,-153.3,-17.7,,x,,,,
448818,3.1516154,11.837848,-10.653524,4.76375,2.942092,2.7744079,120.3,-150.90001,-11.1,,x,,,,
448860,3.5511749,12.395317,-10.134934,0.92226195,-2.2865999,1.920744,120.3,-153.3,-5.1000004,,x,,,,
448880,3.589456,11.833062,-9.860387,1.166166,-1.554888,1.234764,115.50001,-150.90001,-8.1,,x,,,,
448900,3.6791775,12.231425,-8.829188,-1.478668,-1.974098,0.426832,108.3,-148.5,-11.700001,,x,,,,
448920,2.727532,11.194844,-7.351775,-4.0015497,0.92988396,-1.8369019,113.100006,-150.90001,-12.900001,,x,,,,
448987,-0.047253296,8.022293,-4.8347898,-5.29729,2.89636,-2.370442,117.9,-150.90001,-18.300001,,x,,,,
449007,-0.4372425,8.122782,-3.916042,-5.419242,5.282046,-2.873494,129.90001,-150.90001,-13.500001,,x,,,,
449027,-0.64180744,7.534209,-4.0153337,-5.266802,7.400962,-3.6966698,129.90001,-148.5,-13.500001,,x,,,,
449049,-1.1992767,6.639387,-3.999184,-4.939056,7.522914,-3.6738038,117.9,-153.3,-10.5,,x,,,,
449089,-0.6101058,6.9211125,-3.0134442,-4.100636,5.846074,-1.989342,132.3,-143.70001,-14.700001,,x,,,,
449109,-0.51978624,7.0257874,-3.1773355,-3.536608,7.0960817,-1.6006199,127.50001,-162.90001,-9.3,,x,,,,
449197,0.28890306,7.5605273,-1.58149,-2.812518,4.565578,-3.102154,132.3,-153.3,-14.1,,x,,,,
449217,-0.2380609,7.1268735,-2.0641913,-2.97258,5.815586,-3.528986,129.90001,-146.1,-14.700001,,x,,,,
449237,-0.76502484,7.425347,-2.447003,-2.088428,5.228692,-3.140264,134.70001,-148.5,-17.1,,x,,,,
449279,-0.7644267,9.165943,-1.4666466,-1.8521459,2.652456,-2.7820299,141.90001,-150.90001,-14.1,,x,,,,
449299,-1.4080286,9.066651,-1.719661,-2.05794,3.7576458,-3.071666,141.90001,-150.90001,-19.5,,x,,,,
449319,-1.079648,10.603879,-2.096491,-1.1432999,2.469528,-1.75306,139.5,-150.90001,-12.900001,,x,,,,
449339,-2.3070374,9.073829,-1.8458692,-1.539644,2.416174,-3.155508,139.5,-153.3,-17.1,,x,,,,
449362,-2.4248717,9.480566,-2.2442324,-0.33536798,1.56251,-1.25763,158.70001,-131.70001,-15.3,,x,,,,
449382,-2.5803888,9.407593,-2.2268863,-0.7622,1.958854,-1.554888,149.1,-143.70001,-12.900001,,x,,,,
449402,-2.5367243,9.466809,-2.648577,-0.15244,1.8750119,-1.150922,146.70001,-143.70001,-18.300001,,x,,,,
449422,-2.484686,9.399219,-2.8543382,-0.106708,1.432936,-0.983238,151.5,-131.70001,-6.9,,x,,,,
449484,-1.6855669,9.027174,-3.1564004,-0.17530599,-0.510674,0.99086,168.3,-138.90001,-13.500001,,x,,,,
449539,-0.8278299,9.101942,-2.6623344,-0.40396598,-1.9054999,0.55640596,141.90001,-155.70001,-11.700001,,,,,,
449654,-0.44023323,9.103736,-2.6294365,0.586894,-0.731712,0.11432999,144.3,-150.90001,-14.1,,,,,,
449698,-0.48449582,8.61924,-2.861516,0.975616,-0.82317597,0.632626,137.1,-141.3,-18.900002,,,,,,
449718,-0.37084866,9.462024,-3.071464,1.051836,-0.81555396,0.891774,139.5,-141.3,-11.700001,,,,,,
449758,-0.43245736,9.51466,-3.5613432,0.144818,-0.960372,0.083841994,141.90001,-141.3,-10.5,,,,,,
449782,-0.6806867,8.200541,-3.393265,0.26677,-1.692084,0.708846,144.3,-153.3,-15.900001,,,,,,
449802,-0.27873462,9.185083,-2.8752732,0.251526,-1.974098,1.3795819,153.90001,-165.3,-12.900001,,,,,,
449822,-0.099291734,9.667785,-3.1223063,-0.030488,-0.72409,0.82317597,134.70001,-134.1,-9.3,,,,,,
449842,-0.4456165,8.829188,-3.0894084,-0.198172,-0.57164997,-0.259148,137.1,-153.3,-17.1,,,,,,
449886,-0.8092874,8.488845,-3.24672,0.625004,-0.251526,0.373478,158.70001,-153.3,-16.5,,,,,,
449906,-0.29428634,9.719225,-3.317899,1.097568,-0.40396598,0.899396,146.70001,-150.90001,-15.3,,,,,,
449930,-0.43484995,8.873451,-3.2826085,0.297258,-0.198172,0.23628199,134.70001,-148.5,-12.900001,,,,,,
449970,-0.23088318,8.499014,-3.1139324,0.320124,0.068598,0.746956,134.70001,-134.1,-17.7,,,,,,
450015,0.26557547,9.383667,-3.3998446,0.548784,0.487808,0.03811,141.90001,-143.70001,-9.900001,,,,,,
450056,0.08972145,8.8602915,-3.3406284,-0.137196,0.92226195,-0.602138,137.1,-150.90001,-15.900001,,,,,,
450076,0.053832866,9.116297,-3.4273593,-0.17530599,1.1128119,-0.625004,137.1,-146.1,-9.900001,,,,,,
450116,-0.2506219,9.168336,-3.3579745,-0.327746,1.18141,-1.25763,149.1,-150.90001,-11.700001,,,,,,
450158,-0.52935654,8.463723,-3.2455237,-0.45731997,1.21952,-1.173788,141.90001,-131.70001,-17.1,,,,,,
450234,-0.8876442,8.823805,-3.4560702,-0.625004,1.3948259,-0.868908,151.5,-143.70001,-9.900001,,,,,,
450254,-1.0156468,9.017005,-3.4201815,-0.46494198,0.967994,-0.579272,149.1,-129.3,-15.900001,,,,,,
450294,-0.8649147,9.142615,-3.2790198,-0.69360197,0.007622,-0.518296,141.90001,-143.70001,-9.3,,x,,,,
450318,-0.75126755,8.779543,-3.1486247,-0.708846,0.030488,-0.358234,137.1,-148.5,-8.1,,x,,,,
450338,-0.71478087,8.606679,-3.1205118,-0.3811,0.060976,-0.068598,149.1,-143.70001,-11.700001,,x,,,,
450399,-0.43664438,8.83517,-2.987126,-0.49543,0.373478,-0.221038,132.3,-153.3,-15.3,,x,,,,
450419,-0.65795726,8.681447,-2.7538502,-0.518296,0.34298998,-0.007622,141.90001,-150.90001,-9.900001,,x,,,,
450439,-0.76502484,8.981715,-2.580987,-0.320124,0.320124,0.213416,149.1,-143.70001,-12.900001,,x,,,,
450479,-2.259186,10.474082,-1.7005205,0.297258,-0.708846,0.442076,132.3,-143.70001,-14.1,,x,,,,
450501,-3.7306178,10.65173,-0.73033255,-0.320124,-2.01983,-0.11432999,146.70001,-155.70001,-5.7000003,,x,,,,
450521,-5.0555043,8.5899315,0.28591233,-1.089946,-1.554888,-0.92226195,153.90001,-146.1,-16.5,,x,,,,
450541,-4.8730707,9.121082,-0.6782941,0.7622,0.41921,2.05794,134.70001,-143.70001,-6.9,,x,,,,
450561,-4.4166875,10.072129,-1.5324423,1.5244,0.373478,2.606724,146.70001,-143.70001,-15.900001,,x,,,,
450581,-4.054811,9.444079,-2.556463,2.065562,-1.280496,1.67684,139.5,-143.70001,-10.5,,x,,,,
450601,-3.0589032,7.3410087,-3.1946816,2.2713559,-3.841488,1.958854,134.70001,-143.70001,-18.900002,,x,,,,
450621,-1.506124,5.937167,-3.426163,2.7134318,-8.086942,4.0015497,141.90001,-141.3,-14.1,,x,,,,
450666,0.31522134,7.7704754,-3.9632952,3.8262439,-12.408616,4.61131,132.3,-148.5,-2.7,,x,,,,
450686,0.36905423,6.791315,-3.5314362,2.919226,-13.14795,2.36282,125.100006,-153.3,-12.3,,x,,,,
450707,1.1203218,5.8923063,-2.5456965,1.6158639,-13.933016,2.332332,127.50001,-143.70001,-18.300001,,x,,,,
450727,1.3195034,5.37252,-1.74897,0.106708,-11.471109,2.7058098,132.3,-155.70001,-15.3,,x,,,,
450747,0.6794904,5.5429907,-2.5540705,0.33536798,-7.9192576,3.2469718,141.90001,-141.3,-13.500001,,x,,,,
450767,0.577208,6.9133363,-3.8663962,1.5244,-5.541194,3.16313,139.5,-155.70001,-12.3,,x,,,,
450787,1.2746427,7.815934,-5.112328,2.583858,-3.589962,2.6981878,132.3,-146.1,-15.900001,,x,,,,
450807,2.162885,9.729992,-5.710471,2.6981878,-2.812518,3.399412,139.5,-146.1,-18.300001,,x,,,,
450827,1.7166703,10.902352,-6.6208444,2.317088,1.280496,2.911604,125.100006,-153.3,-13.500001,,x,,,,
450847,2.5474908,13.583229,-8.638979,3.6661818,4.474114,2.919226,122.700005,-150.90001,-20.7,,x,,,,
450887,2.1766422,12.841532,-10.109813,2.62959,2.6829438,-2.500016,120.3,-153.3,-14.700001,,x,,,,
450910,1.9684886,11.744537,-10.755807,3.056422,2.050318,-1.684462,125.100006,-153.3,-14.700001,,x,,,,
450952,2.6431937,11.72121,-8.96736,-2.7515419,-0.30488,-1.44818,127.50001,-155.70001,-15.3,,x,,,,
450972,1.640108,9.630102,-8.079117,-4.489358,2.454284,-2.36282,125.100006,-146.1,-13.500001,,x,,,,
450994,0.96241206,8.25856,-6.5466747,-5.693634,2.89636,-1.211898,122.700005,-143.70001,-13.500001,,x,,,,
451014,0.5796005,7.7303996,-5.1422353,-5.800342,4.169234,-1.326228,120.3,-150.90001,-18.300001,,x,,,,
451036,0.13996546,6.9851136,-4.5961304,-5.0381417,6.654006,-1.821658,137.1,-143.70001,-5.7000003,,x,,,,
451056,-0.020935005,6.6920238,-4.150514,-4.108258,6.6006517,-1.501534,132.3,-158.1,-14.1,,x,,,,
451078,0.0059814295,7.1807065,-3.204252,-3.8033779,5.22107,-1.71495,129.90001,-153.3,-15.900001,,x,,,,
451161,-0.3439322,6.995282,-1.8016067,-2.111294,5.121984,-2.484772,137.1,-153.3,-12.900001,,x,,,,
451257,-0.69384587,8.156876,-1.5886678,-0.87653,2.461906,-1.41007,141.90001,-153.3,-15.3,,x,,,,
451277,-1.3296719,8.575576,-0.6071151,-2.393308,3.7957559,-2.660078,146.70001,-158.1,-10.5,,x,,,,
451319,-2.61867,8.837563,-2.6551566,-0.49543,3.856732,-2.55337,146.70001,-146.1,-16.5,,x,,,,
451339,-2.1108465,9.436902,-2.1156316,-0.099086,1.6311079,-1.722572,151.5,-148.5,-20.1,,x,,,,
451359,-2.112043,9.342395,-1.7065018,-0.67073596,1.6158639,-1.570132,151.5,-143.70001,-15.900001,,x,,,,
451379,-1.7627274,10.020091,-2.677288,-0.28201398,2.59148,-0.80030996,137.1,-138.90001,-13.500001,,x,,,,
451399,-1.870393,10.484848,-3.0606976,0.137196,1.775926,-0.739334,137.1,-138.90001,-2.1000001,,x,,,,
451419,-2.024714,10.642757,-3.4464998,0.099086,0.830798,-0.792688,153.90001,-143.70001,-18.300001,,,,,,
451443,-2.1993718,9.675561,-3.3286657,-0.30488,-0.99086,-0.769822,137.1,-146.1,-12.3,,,,,,
451463,-1.8087844,9.219776,-3.246122,-0.53354,-1.554888,-0.060976,151.5,-143.70001,-19.5,,,,,,
451483,-1.1645844,9.306506,-3.0732586,-0.769822,-1.920744,0.81555396,151.5,-150.90001,-12.900001,,,,,,
451503,-0.849363,8.966762,-2.8232348,-1.021348,-1.585376,0.861286,144.3,-138.90001,-17.1,,,,,,
451523,-0.5203844,8.853114,-2.539715,-1.089946,-1.21952,1.166166,153.90001,-141.3,-17.7,,,,,,
451547,-0.28172535,8.655727,-2.5110042,-1.158544,-0.47256398,0.785066,151.5,-146.1,-17.1,,,,,,
451567,-0.32180092,8.414676,-2.5283504,-0.716468,-0.221038,0.69360197,141.90001,-153.3,-20.7,,,,,,
451629,-0.05443101,9.284973,-2.5217707,0.0,-0.144818,0.198172,141.90001,-136.5,-12.3,,,,,,
451758,-0.5496934,9.269422,-3.4560702,0.55640596,0.297258,-0.41921,144.3,-158.1,-12.900001,,,,,,
451820,-0.22490175,9.496118,-3.383695,-0.11432999,-0.312502,0.297258,137.1,-155.70001,-14.1,,,,,,
451860,-0.2560052,8.787916,-3.1360636,-0.746956,0.007622,-0.274392,139.5,-148.5,-16.5,,,,,,
451880,-0.21413518,8.778944,-3.0212202,-0.525918,0.198172,-0.259148,144.3,-148.5,-14.1,,,,,,
451923,-0.44800907,9.022388,-3.2706459,-0.23628199,0.3811,-0.449698,146.70001,-148.5,-11.1,,,,,,
451973,-0.043066293,8.972743,-2.8411791,-0.449698,0.213416,-0.030488,129.90001,-141.3,-14.1,,,,,,
451993,-0.1961909,8.8579,-2.9099655,-0.769822,0.541162,-0.388722,129.90001,-141.3,-14.700001,,,,,,
452034,-0.12321745,9.247889,-3.0218184,-0.312502,0.480186,-0.80030996,156.3,-141.3,-15.900001,,,,,,
452054,-0.12979703,9.201832,-2.8806565,-0.121952,0.3811,-0.861286,146.70001,-136.5,-8.700001,,,,,,
452074,-0.25779963,9.143213,-2.7855518,-0.289636,0.579272,-0.846042,139.5,-148.5,-13.500001,,,,,,
452094,-0.60173184,8.953602,-2.9614058,-0.396344,0.92988396,-0.830798,156.3,-138.90001,-13.500001,,,,,,
452178,-0.8278299,8.884816,-3.1276896,-0.34298998,0.19055,-0.274392,141.90001,-143.70001,-11.1,,x,,,,
452218,-0.3714468,8.7627945,-2.8561327,-0.297258,-0.35061198,0.297258,151.5,-134.1,-9.3,,x,,,,
452238,-0.2697625,9.178504,-2.8627121,-0.16768399,0.198172,0.3811,141.90001,-148.5,-21.300001,,x,,,,
452281,-1.1885101,8.67068,-3.3089268,0.35061198,0.060976,-0.41158798,129.90001,-146.1,-15.900001,,x,,,,
452321,-1.9062816,8.800478,-2.9931073,0.785066,-1.234764,0.221038,149.1,-138.90001,-12.3,,x,,,,
452519,-2.4338439,9.439893,-2.062397,1.18141,-8.292736,2.09605,127.50001,-136.5,-13.500001,,x,,,,
452539,-2.5361261,8.96736,-2.7622242,1.089946,-7.865904,0.28201398,149.1,-146.1,-16.5,,x,,,,
452585,-0.799119,6.84455,-2.5636408,1.775926,-14.32936,3.597584,146.70001,-160.5,-17.1,,x,,,,
452606,-0.5473008,5.9174285,-2.8226366,1.074702,-12.370505,3.445144,144.3,-143.70001,-27.900002,,x,,,,
452626,0.28710863,5.631516,-3.552371,2.416174,-13.18606,4.443626,144.3,-158.1,-15.3,,x,,,,
452646,0.9241309,5.5669165,-3.128886,2.2180018,-13.483317,4.664664,146.70001,-141.3,-19.5,,x,,,,
452670,1.4672447,5.7074804,-3.3077307,2.2256238,-12.2104435,4.771372,139.5,-138.90001,-22.5,,x,,,,
452690,1.5138998,5.899484,-3.7587304,2.050318,-9.466524,4.4817357,122.700005,-138.90001,-17.7,,x,,,,
452754,1.5408163,11.777435,-7.141229,-0.17530599,-3.7119138,-1.33385,132.3,-155.70001,-18.300001,,x,,,,
452774,1.4445152,11.175703,-7.4731984,0.57164997,0.47256398,-1.303362,129.90001,-146.1,-19.5,,x,,,,
452814,1.6664263,12.435392,-8.440395,0.640248,3.12502,-1.6006199,108.3,-153.3,-15.3,,x,,,,
452835,1.8291212,11.928167,-8.427237,1.044214,4.123502,-1.98172,125.100006,-158.1,-18.300001,,x,,,,
452856,1.6748003,11.806146,-8.037846,-0.487808,5.4268637,-2.576236,115.50001,-153.3,-23.7,,x,,,,
452876,1.3033535,10.995663,-7.6209397,-2.40093,7.149436,-3.3003259,125.100006,-141.3,-18.900002,,x,,,,
452937,-0.18662061,7.5629196,-5.0782337,-3.12502,10.472628,-2.926848,129.90001,-148.5,-23.1,,x,,,,
452999,-1.0527316,7.2100153,-3.7647119,-2.012208,10.929948,-3.2850819,137.1,-143.70001,-14.700001,,x,,,,
453021,-1.0072727,7.2399225,-3.1061563,-2.446662,11.349157,-3.071666,139.5,-160.5,-18.900002,,x,,,,
453041,-1.0030857,7.2859797,-2.970378,-2.576236,11.722635,-3.147886,141.90001,-155.70001,-16.5,,x,,,,
453064,-1.3613734,6.8469424,-3.0726604,-2.2561119,11.69977,-3.2393498,156.3,-143.70001,-10.5,,x,,,,
453124,-1.6634356,6.994086,-2.196979,-1.29574,7.339986,-3.407034,132.3,-150.90001,-8.1,,x,,,,
453146,-2.141352,6.903168,-2.0043771,-1.250008,6.486322,-2.812518,141.90001,-141.3,-14.700001,,x,,,,
453166,-1.9062816,8.28428,-2.3459167,-0.998482,4.9314337,-1.501534,141.90001,-136.5,-12.900001,,x,,,,
453186,-1.8829541,8.369815,-1.9320018,-1.326228,3.338436,-1.6234859,153.90001,-129.3,-12.900001,,x,,,,
453206,-1.4714317,8.61266,-1.8632153,-1.1204339,2.103672,-1.33385,153.90001,-141.3,-15.3,,x,,,,
453226,-1.4343468,9.036146,-1.8225416,-1.013726,1.9054999,-1.166166,144.3,-138.90001,-9.3,,,,,,
453246,-1.865608,9.5834465,-2.159296,-1.196654,2.36282,-1.4024479,144.3,-143.70001,-13.500001,,,,,,
453290,-1.9475535,10.094859,-2.7077932,-0.56402797,0.015244,-0.68597996,146.70001,-136.5,-14.700001,,,,,,
453310,-2.150922,9.651635,-2.8387866,-1.288118,-0.251526,-0.716468,132.3,-148.5,-12.3,,,,,,
453331,-2.2657657,8.700587,-2.7903368,-1.3719599,-0.739334,-0.548784,163.5,-143.70001,-12.3,,,,,,
453352,-2.1975772,9.007435,-2.8932176,-0.87653,-1.006104,0.45731997,151.5,-131.70001,-12.900001,,,,,,
453372,-2.2077458,9.031959,-2.9470503,-0.777444,-1.265252,0.510674,161.1,-138.90001,-18.900002,,,,,,
453392,-1.7585404,9.074427,-3.0469403,-0.297258,-1.463424,0.81555396,156.3,-148.5,-16.5,,,,,,
453412,-1.4104211,9.092371,-2.9566207,0.15244,-1.6463519,0.754578,158.70001,-138.90001,-12.900001,,,,,,
453432,-1.1424531,8.808851,-2.731719,0.22865999,-1.806414,1.166166,149.1,-143.70001,-14.1,,,,,,
453474,-0.70461243,9.133045,-2.7454762,-0.243904,-0.94512796,1.478668,153.90001,-136.5,-14.1,,,,,,
453556,-0.64898515,9.404602,-2.9733686,-0.045732,0.099086,-0.121952,144.3,-146.1,-14.700001,,,,,,
453799,-0.105871305,9.103138,-3.5254548,-0.45731997,0.45731997,-0.358234,141.90001,-143.70001,-14.700001,,,,,,
453918,-0.5108141,9.322059,-3.1910927,-0.56402797,0.49543,-0.7622,139.5,-148.5,-11.1,,,,,,
454073,-0.39776507,8.894984,-2.7670095,-0.160062,0.81555396,-0.442076,151.5,-146.1,-9.900001,,,,,,
454097,-0.62266684,8.988295,-2.890825,0.03811,0.594516,-0.56402797,146.70001,-148.5,-11.700001,,x,,,,
454139,-1.108957,9.371704,-2.3602722,0.129574,-0.030488,-0.69360197,149.1,-138.90001,-7.5000005,,x,,,,
454159,-1.5623494,9.436303,-1.9601145,-0.70122397,0.160062,-0.99086,146.70001,-134.1,-19.5,,x,,,,
454183,-2.0157418,9.781432,-1.6532671,-1.310984,0.358234,0.030488,151.5,-143.70001,-17.7,,x,,,,
454203,-2.8758714,10.029661,-1.5031333,-2.32471,1.265252,-0.289636,139.5,-150.90001,-12.3,,x,,,,
454285,-3.6163723,9.927977,-2.887236,0.754578,-3.6585598,1.4024479,146.70001,-141.3,-15.3,,x,,,,
454313,-3.4082186,9.091773,-2.5133967,0.655492,-6.051868,1.768304,139.5,-158.1,-15.900001,,x,,,,
454337,-2.9919112,8.1473055,-2.9901166,1.1051899,-7.782062,1.996964,127.50001,-148.5,-9.3,,x,,,,
454379,-1.2668668,7.9660683,-1.8141676,2.599102,-14.100699,1.79117,137.1,-148.5,-15.3,,x,,,,
454400,-0.49765494,6.923505,-1.6305377,3.536608,-14.169297,0.53354,146.70001,-148.5,-14.700001,,x,,,,
454421,0.0053832866,6.312801,-1.2363615,4.413138,-13.704355,0.320124,144.3,-148.5,-17.1,,x,,,,
454441,0.6250594,6.588545,-1.2022674,3.62045,-11.669282,0.777444,153.90001,-134.1,-14.700001,,x,,,,
454463,0.06998273,5.138048,-2.6120903,1.8673899,-6.623518,0.548784,146.70001,-146.1,-18.300001,,x,,,,
454483,0.1961909,5.1565905,-3.4417148,2.7591639,-5.5335717,1.33385,132.3,-155.70001,-18.300001,,x,,,,
454505,1.4008509,7.3027277,-5.8253145,3.993928,-4.138746,4.23021,161.1,-146.1,-17.1,,x,,,,
454525,1.447506,8.7735615,-5.9036713,2.332332,-5.114362,3.971062,132.3,-162.90001,-18.300001,,x,,,,
454545,1.7453812,10.024877,-6.824213,3.7652678,-1.3643379,4.4969797,139.5,-150.90001,-17.1,,x,,,,
454565,2.3225892,12.370194,-8.385366,2.903982,0.243904,3.986306,141.90001,-141.3,-15.900001,,x,,,,
454587,2.6288383,13.154959,-8.708364,1.1432999,-1.463424,1.539644,134.70001,-153.3,-14.700001,,x,,,,
454607,2.217316,11.97901,-7.9373574,0.861286,-1.966476,-0.480186,132.3,-141.3,-10.5,,x,,,,
454670,1.7256424,11.240901,-9.621728,1.44818,3.2012398,-0.72409,134.70001,-148.5,-9.900001,,x,,,,
454690,1.4887779,11.1769,-8.340506,-1.722572,1.547266,-0.70122397,117.9,-134.1,-12.3,,x,,,,
454714,0.36905423,9.19585,-7.215399,-3.628072,5.853696,-1.6082419,129.90001,-158.1,-10.5,,x,,,,
454734,-0.32538977,8.097061,-7.020404,-3.856732,7.210412,-1.539644,141.90001,-143.70001,-13.500001,,x,,,,
454754,0.22310732,8.863881,-6.246407,-3.993928,5.762232,-0.327746,125.100006,-155.70001,-10.5,,x,,,,
454776,-0.2560052,8.878835,-4.3126106,-5.266802,4.817104,-1.6387299,132.3,-153.3,-17.7,,x,,,,
454840,-0.7943339,6.547871,-3.1324747,-4.108258,7.50767,-3.841488,132.3,-153.3,-8.700001,,x,,,,
454860,-1.1532197,6.08132,-2.4176939,-3.08691,7.103704,-2.614346,129.90001,-143.70001,-20.7,,x,,,,
454880,-0.849363,7.4169726,-2.4990413,-2.446662,7.294254,-0.998482,132.3,-143.70001,-20.7,,x,,,,
454920,-1.3577845,6.7291083,-2.6587455,-1.532022,6.1204658,-1.806414,125.100006,-146.1,-15.900001,,x,,,,
454940,-1.3165127,7.016217,-2.4404233,-0.525918,4.214966,-1.768304,132.3,-150.90001,-16.5,,x,,,,
454960,-0.9241309,7.3780937,-2.095893,-0.198172,2.911604,-1.5244,129.90001,-134.1,-16.5,,x,,,,
454980,-0.57122654,8.560622,-1.9182445,-0.41158798,2.17227,-1.3643379,146.70001,-146.1,-11.1,,x,,,,
455000,-0.723753,8.464919,-1.8638135,-0.998482,2.82014,-2.309466,137.1,-146.1,-16.5,,x,,,,
455024,-1.0240208,8.080912,-1.953535,-1.1128119,2.7286758,-2.088428,137.1,-143.70001,-15.3,,x,,,,
455044,-1.3057461,8.440395,-2.079145,-1.089946,2.500016,-2.050318,149.1,-153.3,-11.700001,,x,,,,
455066,-1.782466,8.101847,-2.1820257,-1.036592,2.2103798,-1.94361,151.5,-146.1,-14.1,,x,,,,
455086,-1.6568561,9.438696,-2.3249817,-0.640248,1.684462,-1.006104,146.70001,-141.3,-19.5,,x,,,,
455106,-0.77758586,11.237312,-2.3160095,-0.80793196,1.196654,-0.868908,146.70001,-141.3,-14.1,,x,,,,
455126,-1.3332607,10.176805,-2.5038264,-1.02897,1.768304,-2.7972739,146.70001,-146.1,-12.900001,,x,,,,
455147,-2.196979,7.7722697,-2.7831593,-0.60976,1.577754,-2.7134318,156.3,-141.3,-14.700001,,x,,,,
455171,-1.6526691,9.497314,-2.4840877,0.617382,0.07622,0.091464,149.1,-143.70001,-9.900001,,x,,,,
455192,-1.6670245,10.093662,-2.7622242,-0.068598,0.81555396,-0.480186,151.5,-126.9,-9.900001,,x,,,,
455212,-1.9134594,9.609765,-3.107951,-0.434454,0.53354,-1.097568,137.1,-143.70001,-12.900001,,x,,,,
455232,-1.9768625,9.003846,-3.1270914,-0.41921,0.007622,-0.83842,151.5,-148.5,-20.1,,x,,,,
455273,-1.342831,8.859096,-2.932695,-0.442076,-0.777444,0.82317597,153.90001,-141.3,-11.1,,x,,,,
455293,-1.079648,8.842946,-2.845366,-0.40396598,-0.93750596,1.173788,151.5,-134.1,-8.700001,,x,,,,
455313,-0.88046646,8.755018,-2.9542282,-0.34298998,-0.907018,1.036592,151.5,-141.3,-12.3,,x,,,,
455333,-0.7291363,8.972743,-2.974565,-0.030488,-0.92226195,1.059458,151.5,-141.3,-11.1,,,,,,
455353,-0.52457136,9.117494,-3.015837,-0.045732,-0.853664,0.60976,139.5,-141.3,-11.1,,,,,,
455433,-0.593956,9.204823,-3.075053,-0.007622,-0.998482,-0.20579399,144.3,-146.1,-15.3,,,,,,
455456,-0.44023323,9.096559,-3.0224164,-0.19055,-0.83842,-0.46494198,144.3,-143.70001,-12.900001,,,,,,
455476,-0.47133666,8.981715,-3.0517254,-0.160062,-0.510674,-0.365856,151.5,-138.90001,-12.900001,,,,,,
455519,-0.64838696,9.142017,-3.2156167,-0.23628199,-0.198172,-0.388722,149.1,-155.70001,-9.900001,,,,,,
455539,-0.66992015,8.755018,-3.0272017,-0.525918,-0.121952,-0.594516,139.5,-150.90001,-11.1,,,,,,
455560,-0.5957504,9.002051,-2.9883223,-0.480186,0.106708,-0.198172,149.1,-143.70001,-14.1,,,,,,
455600,-0.7602397,8.915919,-3.1498208,-0.160062,0.312502,-0.617382,158.70001,-155.70001,-17.1,,,,,,
455657,-0.69504213,9.057679,-2.9943037,-0.251526,1.1128119,-0.129574,141.90001,-141.3,-15.900001,,,,,,
455703,-0.660948,8.926087,-3.0313885,0.045732,1.02897,-0.015244,151.5,-146.1,-8.700001,,x,,,,
455744,-0.46954224,9.139625,-2.7879443,-0.015244,1.1432999,-0.083841994,146.70001,-143.70001,-22.5,,x,,,,
455764,-0.57182467,8.907545,-2.949443,-0.259148,1.3719599,-0.40396598,151.5,-141.3,-15.3,,x,,,,
455784,-0.46296266,8.985902,-2.845366,0.03811,1.211898,-0.243904,146.70001,-146.1,-11.700001,,x,,,,
455826,-0.9253272,9.214991,-2.6533623,-0.022866,1.089946,-1.013726,137.1,-146.1,-9.900001,,x,,,,
455870,-1.2034637,8.888405,-2.484686,-0.137196,0.388722,-0.92988396,161.1,-138.90001,-14.700001,,x,,,,
456057,-2.856731,8.159866,-2.7586353,1.097568,-3.16313,2.088428,151.5,-141.3,-10.5,,x,,,,
456077,-2.6431937,8.068351,-2.9757612,0.960372,-3.8262439,2.2865999,144.3,-143.70001,-11.1,,x,,,,
456117,-1.7423905,7.108331,-3.2401404,2.035074,-8.338468,3.3155699,132.3,-141.3,-15.900001,,x,,,,
456137,-1.2273893,6.3271565,-3.1534097,2.500016,-10.320188,4.100636,146.70001,-138.90001,-10.5,,x,,,,
456157,0.5473008,7.233343,-2.5391169,2.637212,-13.780576,5.3963757,139.5,-141.3,-14.1,,x,,,,
456177,1.4235803,7.123883,-1.531246,1.432936,-13.955882,4.596066,146.70001,-153.3,-11.700001,,x,,,,
456241,0.9211402,7.384075,-2.5110042,0.0,-8.993959,1.684462,151.5,-143.70001,-13.500001,,x,,,,
456297,0.41032606,10.186973,-5.7475557,1.775926,-5.0228977,0.983238,132.3,-160.5,-21.300001,,x,,,,
456316,0.36008206,9.709655,-5.3695292,1.501534,-4.184478,-0.19055,137.1,-143.70001,-15.900001,,x,,,,
456356,0.06041244,11.833062,-7.8799357,3.7424018,5.67839,0.846042,134.70001,-146.1,-14.1,,x,,,,
456534,-1.1484345,9.097157,-4.86051,-2.431418,5.480218,-1.044214,141.90001,-143.70001,-14.700001,,x,,,,
456554,-1.1897063,8.5253315,-4.0679703,-2.317088,5.22107,-2.088428,151.5,-138.90001,-13.500001,,x,,,,
456594,-1.4504967,7.4522634,-3.5128937,-2.7896519,7.0808377,-2.2408679,141.90001,-158.1,-14.700001,,x,,,,
456657,-0.99889874,6.1088343,-2.2908876,-1.707328,5.556438,-0.754578,132.3,-146.1,-14.1,,x,,,,
456678,-0.5126085,6.6011057,-2.3195984,-0.792688,5.0991178,-0.41921,158.70001,-153.3,-19.5,,x,,,,
456698,-0.29488447,6.826606,-2.037873,-0.182928,4.329296,-0.907018,149.1,-143.70001,-13.500001,,x,,,,
456720,0.043066293,7.0850034,-1.6383137,0.11432999,3.833866,-1.516778,141.90001,-148.5,-14.1,,x,,,,
456760,0.3744375,7.609575,-1.1783416,-0.998482,5.213448,-2.82014,137.1,-148.5,-15.900001,,x,,,,
456780,-0.16329303,7.053302,-1.7178667,-1.272874,6.303394,-2.080806,139.5,-146.1,-9.3,,x,,,,
456800,-0.9444677,7.9678626,-1.873982,-1.1432999,5.9985137,-1.326228,144.3,-148.5,-13.500001,,x,,,,
456842,-0.5796005,11.350361,-2.375824,-2.652456,3.6585598,-4.634176,146.70001,-141.3,-16.5,,x,,,,
456862,-2.4733212,4.999279,-2.6503716,0.182928,4.15399,-5.8765616,141.90001,-134.1,-13.500001,,x,,,,
456885,-1.6604449,8.996669,-2.8525438,0.594516,1.1051899,1.707328,146.70001,-148.5,-7.5000005,,x,,,,
456905,-1.79084,11.60517,-2.4870784,-1.059458,2.050318,0.129574,141.90001,-134.1,-17.1,,,,,,
456969,-2.6085014,8.673073,-3.7742822,-0.297258,-0.785066,-1.440558,156.3,-141.3,-8.1,,,,,,
457159,-0.83141875,8.747841,-2.9817426,0.099086,-0.731712,0.053354,151.5,-138.90001,-8.1,,,,,,
457257,-0.25660333,8.698195,-3.1635783,0.160062,-0.487808,-0.03811,151.5,-150.90001,-13.500001,,,,,,
457278,-0.34453034,9.035547,-3.200065,-0.46494198,0.358234,0.373478,153.90001,-138.90001,-13.500001,,,,,,
457320,-0.48629025,9.201832,-3.4560702,-0.07622,0.030488,0.16768399,153.90001,-136.5,-22.5,,,,,,
457438,-0.5443101,8.781935,-3.015837,-0.160062,0.442076,-0.480186,156.3,-143.70001,-17.7,,,,,,
457458,-0.59275967,8.717934,-2.9344895,-0.40396598,1.150922,-0.60976,149.1,-153.3,-15.900001,,,,,,
457500,-0.7058087,9.243103,-3.2957678,-0.121952,1.707328,-0.586894,141.90001,-148.5,-9.900001,,x,,,,
457737,-1.7148759,8.790907,-2.4296567,-0.487808,-0.56402797,0.106708,149.1,-138.90001,-12.900001,,x,,,,
457757,-2.0653877,9.106129,-2.5923517,-0.15244,-0.769822,0.617382,161.1,-141.3,-17.1,,x,,,,
457799,-2.0857246,9.369311,-2.6372123,0.579272,-2.545748,0.663114,151.5,-146.1,-14.700001,,x,,,,
457841,-2.2490175,8.403909,-2.723345,0.426832,-4.176856,0.91463995,161.1,-138.90001,-12.3,,x,,,,
457881,-1.5258627,7.576677,-2.3662536,0.861286,-7.0503497,0.967994,139.5,-138.90001,-9.3,,x,,,,
457916,-1.2184173,6.359456,-2.4212828,1.94361,-9.5275,1.1432999,149.1,-141.3,-14.700001,,x,,,,
457936,-0.37324122,6.5251417,-1.5784993,1.242386,-11.211962,1.98172,146.70001,-131.70001,-15.3,,x,,,,
457976,-0.16389118,6.809858,-2.2861025,0.60976,-9.443658,2.2942219,141.90001,-136.5,-12.900001,,x,,,,
457996,0.19977975,7.501311,-2.7347097,1.044214,-9.1159115,2.2180018,146.70001,-138.90001,-11.700001,,x,,,,
458019,-0.12979703,7.200445,-3.5463896,0.144818,-7.0960817,1.806414,149.1,-148.5,-18.900002,,x,,,,
458039,-0.53892684,6.376204,-5.0405507,1.150922,-4.428382,1.951232,149.1,-148.5,-14.1,,x,,,,
458059,0.93071043,9.454846,-6.095077,2.545748,-6.13571,5.22107,146.70001,-146.1,-25.500002,,x,,,,
458079,0.94745845,13.281765,-6.3205767,0.998482,-3.62045,2.2408679,134.70001,-150.90001,-20.7,,x,,,,
458099,0.5209825,12.465898,-6.8415594,0.92988396,-2.492394,-0.106708,137.1,-150.90001,-20.1,,x,,,,
458160,-0.19678904,12.198527,-7.535405,0.57164997,2.027452,-1.8292799,134.70001,-155.70001,-7.5000005,,x,,,,
458182,-0.3481192,11.293537,-7.854215,0.617382,2.6905658,-2.2408679,151.5,-138.90001,-17.1,,x,,,,
458202,-0.66992015,10.5440645,-6.903766,-0.327746,2.6677,-1.951232,151.5,-138.90001,-19.5,,x,,,,
458222,-0.8487649,10.266526,-6.2996416,-1.33385,5.0228977,-1.75306,141.90001,-131.70001,-3.9,,x,,,,
458242,-1.3811121,9.220374,-6.409102,-1.730194,7.5457797,-1.996964,153.90001,-153.3,-9.3,,x,,,,
458305,-1.9840403,8.841749,-4.7594237,-1.493912,6.128088,-1.6082419,146.70001,-150.90001,-14.700001,,x,,,,
458398,-1.0874239,7.2285576,-2.9003952,-1.821658,4.4207597,0.525918,156.3,-141.3,-15.900001,,x,,,,
458461,-0.32180092,6.991693,-2.01634,0.23628199,1.8521459,-0.853664,153.90001,-141.3,-9.3,,x,,,,
458481,-0.32359535,7.031769,-1.6556598,0.030488,2.050318,-1.280496,153.90001,-148.5,-14.700001,,x,,,,
458501,-0.21054633,7.90745,-1.8506544,-0.106708,2.339954,-0.777444,137.1,-141.3,-8.1,,x,,,,
458521,0.032897864,8.702382,-1.4845909,-1.288118,2.2027578,-0.91463995,146.70001,-143.70001,-13.500001,,x,,,,
458541,-0.09869359,8.502005,-1.9003003,-2.164648,4.336918,-1.737816,158.70001,-143.70001,-11.700001,,x,,,,
458564,-0.92054206,7.6544356,-2.61867,-1.501534,4.26832,-1.501534,149.1,-141.3,-13.500001,,x,,,,
458584,-0.99052477,7.8428507,-2.5558648,-0.68597996,3.338436,-0.739334,146.70001,-136.5,-18.900002,,x,,,,
458646,0.38400778,11.142805,-3.1611855,0.129574,2.317088,-0.053354,137.1,-143.70001,-12.3,,x,,,,
458694,-0.732127,9.472192,-3.0606976,0.487808,-0.46494198,-0.297258,149.1,-143.70001,-14.1,,x,,,,
458714,-1.4229821,9.069642,-3.3872836,0.106708,0.083841994,-0.617382,149.1,-143.70001,-11.700001,,x,,,,
458754,-2.61867,9.250879,-3.530838,0.94512796,-2.05794,0.198172,149.1,-131.70001,-13.500001,,x,,,,
458814,-2.8040943,8.056986,-2.949443,-0.35061198,-1.760682,0.3811,158.70001,-153.3,-11.1,,,,,,
458834,-2.5133967,7.8290935,-3.0140424,0.144818,-1.920744,1.775926,161.1,-146.1,-11.700001,,,,,,
458894,-1.1484345,8.96078,-2.7311208,0.586894,-1.5244,2.17227,161.1,-146.1,-6.3,,,,,,
458936,-0.6872663,10.0171,-3.0313885,0.099086,-0.56402797,0.053354,144.3,-138.90001,-16.5,,,,,,
458956,-1.187912,9.024781,-3.263468,-0.41921,-0.20579399,-1.166166,156.3,-134.1,-13.500001,,,,,,
458996,-0.6041244,9.295142,-3.0642865,-0.022866,-0.68597996,-0.160062,141.90001,-143.70001,-4.5,,,,,,
459016,-0.3798208,9.150392,-2.9554243,-0.45731997,-0.022866,-0.716468,144.3,-136.5,-12.3,,,,,,
459036,-0.18662061,8.919508,-2.9655929,-0.56402797,0.56402797,-1.1432999,151.5,-141.3,-12.3,,,,,,
459076,-0.71418273,7.9218054,-3.6175687,-0.739334,2.2332458,-1.21952,141.90001,-148.5,-8.700001,,,,,,
459114,-0.8810646,8.984706,-4.3490977,-0.03811,2.7362978,-1.059458,137.1,-146.1,-14.1,,,,,,
459138,-0.62805015,9.770067,-5.145824,0.320124,2.080806,-1.1204339,165.90001,-141.3,-7.5000005,,,,,,
459201,-0.073571585,10.686422,-5.103954,0.884152,-0.144818,0.320124,156.3,-141.3,-21.300001,,x,,,,
459238,-0.13338588,9.19286,-4.200758,-0.137196,-1.006104,-0.80793196,151.5,-136.5,-4.5,,x,,,,
459258,-0.28890306,8.216092,-3.7096827,-0.41921,-0.92226195,-1.196654,151.5,-143.70001,-8.700001,,x,,,,
459298,-0.37324122,6.974347,-2.903984,-0.19055,-0.015244,-0.22865999,156.3,-136.5,-14.700001,,x,,,,
459318,-0.3409415,8.310598,-3.4112093,0.137196,0.907018,0.396344,149.1,-150.90001,-11.1,,x,,,,
459359,-0.62745196,7.920011,-3.1061563,-0.060976,0.15244,0.15244,149.1,-126.9,-11.700001,,x,,,,
459379,-0.6029281,8.270523,-3.138456,-0.480186,0.47256398,-0.068598,153.90001,-136.5,-8.1,,x,,,,
459399,-0.49885124,8.337515,-3.0451458,-0.67835796,0.40396598,-0.41921,156.3,-119.700005,-12.900001,,x,,,,
459421,-0.5191881,8.124576,-2.9512374,-0.92226195,0.746956,-0.503052,158.70001,-136.5,-5.7000003,,x,,,,
459501,-1.4564781,8.723317,-3.732412,-0.213416,2.149404,-1.692084,161.1,-129.3,-11.700001,,x,,,,
459739,-4.490259,8.806459,-3.6391017,0.259148,-3.1936178,2.835384,180.3,-148.5,-9.3,,x,,,,
459798,-1.7896438,7.145416,-3.777273,1.242386,-10.015307,2.926848,158.70001,-138.90001,-6.3,,x,,,,
459897,1.2046599,6.0986657,-1.7071,-1.089946,-9.939088,1.5929979,153.90001,-150.90001,-21.300001,,x,,,,
