time,sensor_accX,sensor_accY,sensor_accZ,sensor_gyroX,sensor_gyroY,sensor_gyroZ,sensor_magX,sensor_magY,sensor_magZ,label_Boxing_slip_left,label_Boxing_slip_right,label_Boxing_pullback,label_Boxing_roll_left,label_Boxing_roll_right,label_Boxing_recording_cut
1256105,0.39836323,8.970948,-2.469134,-4.9009457,1.516778,3.39179,81.9,-174.90001,-14.1,,,,,,
1256125,2.7161672,9.461426,-3.237748,-9.809514,7.172302,4.580822,74.700005,-177.3,-17.7,,,,,,
1256169,1.9182445,9.462024,-2.3686461,-3.2317278,1.798792,0.594516,69.9,-172.5,-12.3,,,,,,
1256189,1.9014965,9.078016,-2.3225892,-3.2622159,-0.099086,-0.129574,77.100006,-174.90001,-20.7,,,,,,
1256209,2.2203066,9.535595,-1.74897,-1.951232,-0.94512796,0.17530599,55.500004,-165.3,-13.500001,,,,,,
1256229,2.0779486,9.402807,-1.6102009,-3.8186219,0.030488,-0.594516,62.7,-165.3,-17.1,,,,,,
1256249,1.748372,8.820216,-1.5743123,-3.2088618,0.022866,-0.83842,48.300003,-170.1,-21.300001,,,,,,
1256292,1.7017168,8.765785,-1.2555021,-2.309466,0.198172,-0.80030996,72.3,-172.5,-18.300001,,,,,,
1256312,1.4367394,9.024183,-1.5952473,-1.48629,0.396344,-0.35061198,72.3,-165.3,-23.1,,,,,,
1256335,1.4217858,9.087586,-1.6598468,-0.769822,0.137196,-0.243904,67.5,-177.3,-21.900002,,,,,,
1256355,1.5444051,9.143811,-1.7226517,-0.365856,0.053354,-0.030488,48.300003,-165.3,-17.7,,,,,,
1256376,1.6502764,9.141419,-1.7130815,-0.121952,0.060976,0.121952,67.5,-170.1,-21.900002,,,,,,
1256396,1.6107991,9.045716,-1.7818679,-0.160062,0.182928,0.358234,65.100006,-167.70001,-23.7,,,,,,
1256416,1.6676226,9.232337,-1.8632153,0.045732,0.11432999,0.67835796,74.700005,-177.3,-24.300001,,,,,,
1256436,1.6939409,9.266431,-1.8554395,-0.015244,0.007622,0.632626,67.5,-170.1,-19.5,,,,,,
1256458,1.6520709,9.243103,-1.7962234,0.22865999,-0.007622,0.434454,81.9,-170.1,-23.7,,,,,,
1256478,1.3111295,8.163455,-5.3450055,12.7668495,0.289636,-0.449698,74.700005,-170.1,-20.1,,,,,,
1256498,2.1269965,10.63558,1.1119478,-4.596066,-3.025934,1.18141,72.3,-174.90001,-23.7,,,,,,
1256518,1.7244462,9.042128,-3.2102332,1.814036,2.500016,-0.33536798,65.100006,-165.3,-25.500002,,,,,,
1256538,1.6634356,9.186279,-2.36745,-0.099086,-0.579272,0.274392,67.5,-174.90001,-24.300001,,,,,,
1256558,1.8859448,9.142017,-2.1610906,-0.365856,-0.72409,0.106708,62.7,-158.1,-21.900002,,,,,,
1256578,2.0893135,9.091175,-1.7118852,-0.525918,-0.33536798,0.388722,60.300003,-186.90001,-12.900001,,,,,,
1256598,1.4881797,9.076221,-2.4344418,0.19055,1.1432999,0.121952,67.5,-160.5,-15.900001,,,,,,
1256621,1.7100908,9.087586,-2.577398,-0.213416,-1.318606,0.525918,79.5,-170.1,-22.5,,,,,,
1256642,2.0043771,9.350769,-1.8177565,-0.41158798,-1.06708,0.442076,57.9,-170.1,-23.1,,,,,,
1256663,1.6203693,9.086988,-2.3901794,-1.158544,-0.053354,0.617382,57.9,-172.5,-23.1,,,,,,
1256683,1.9331981,9.07024,-2.104865,-0.884152,-0.91463995,0.80030996,55.500004,-160.5,-25.500002,,,,,,
1256703,2.0390694,9.080408,-1.9966012,-1.1432999,-0.327746,0.68597996,62.7,-172.5,-19.5,,,,,,
1256723,1.9505442,9.181495,-2.104267,-1.3872039,-0.07622,0.632626,62.7,-160.5,-15.900001,,,,,,
1256745,2.1156316,9.16056,-2.0133493,-1.234764,-0.53354,0.47256398,60.300003,-155.70001,-24.300001,,,,,,
1256765,2.1927922,9.119885,-1.9026928,-1.33385,-0.16768399,0.221038,53.100002,-170.1,-23.1,,,,,,
1256785,2.146137,9.207214,-1.9840403,-1.737816,0.510674,0.121952,60.300003,-162.90001,-20.1,,,,,,
1256805,2.8561327,9.103736,-0.9863378,-3.948196,0.632626,-0.579272,65.100006,-162.90001,-21.900002,,,,,,
1256825,0.03469229,9.173718,-2.008564,-3.7195358,3.16313,-0.33536798,48.300003,-177.3,-22.5,,,,,,
1256845,2.2825136,9.369311,-2.994902,0.373478,0.358234,0.56402797,72.3,-184.5,-23.7,,,,,,
1256885,1.7262406,9.287964,-1.786653,-1.8369019,1.554888,0.160062,57.9,-172.5,-23.7,,,,,,
1256905,1.6879594,9.216785,-1.5246664,-0.67073596,0.17530599,0.320124,55.500004,-182.1,-20.1,,,,,,
1256925,1.7100908,9.214991,-1.5533773,-1.1128119,0.480186,0.35061198,60.300003,-177.3,-23.7,,,,,,
1256947,1.6096027,9.061268,-1.7202592,-0.891774,0.17530599,0.41921,60.300003,-174.90001,-19.5,,,,,,
1257009,1.9648997,9.177906,-1.6885576,-0.518296,-0.617382,1.25763,50.7,-174.90001,-23.7,,,,,,
1257071,2.2932801,9.223963,-1.5976399,-0.975616,-0.754578,0.92988396,53.100002,-177.3,-24.300001,,,,,,
1257091,2.3602722,9.040931,-1.4786094,-0.82317597,-0.853664,0.7622,57.9,-177.3,-21.900002,,,,,,
1257114,2.6138847,9.222767,-1.3524013,-0.160062,-1.044214,0.45731997,53.100002,-174.90001,-33.9,,,,,,
1257134,1.9170482,8.720924,-1.1227144,3.612828,-0.53354,-0.47256398,57.9,-172.5,-20.7,,,,,,
1257198,2.484686,9.034949,-1.2393522,-0.289636,1.8521459,0.007622,48.300003,-170.1,-27.300001,,,,,,
1257222,2.5869684,9.156373,-1.5844808,-1.6006199,4.0320377,0.70122397,48.300003,-160.5,-20.1,,,,,,
1257242,2.4063292,9.1946535,-1.753157,-0.60976,2.7591639,0.099086,38.7,-182.1,-14.1,,,,,,
1257262,2.2896912,9.173718,-1.5767049,-0.594516,1.951232,0.022866,50.7,-167.70001,-20.7,,,,,,
1257282,2.4715269,9.113306,-1.3374476,-0.92226195,2.355198,0.198172,36.300003,-174.90001,-27.300001,,,,,,
1257302,2.180231,8.972144,-1.5850788,0.03811,1.8597679,0.182928,38.7,-182.1,-24.300001,,,,,,
1257324,2.6467826,9.046912,-1.4546837,0.594516,1.1204339,0.396344,38.7,-165.3,-20.7,,,,,,
1257364,2.380609,8.998463,-1.5784993,0.20579399,1.928366,-0.69360197,45.9,-174.90001,-16.5,,,,,,
1257424,2.5636408,9.158765,-1.5988362,0.320124,1.554888,-0.41921,50.7,-160.5,-20.7,,,,,,
1257445,2.430255,8.997865,-1.7124833,0.015244,1.798792,-0.35061198,50.7,-155.70001,-17.7,,,,,,
1257465,2.4452085,8.97693,-1.8063917,-0.030488,0.861286,-0.251526,43.5,-167.70001,-21.300001,,,,,,
1257485,2.5720148,9.319666,-1.661043,0.221038,-0.60976,-0.426832,45.9,-167.70001,-26.1,,,,,,
1257549,2.250812,9.14441,-1.6197711,0.960372,-1.806414,-0.846042,50.7,-172.5,-27.300001,,,,,,
1257611,1.8979076,8.893189,-1.6072102,-0.777444,1.013726,0.899396,60.300003,-162.90001,-26.1,,,,,,
1257654,2.2992616,9.20243,-1.7555497,-0.861286,1.5244,1.036592,45.9,-172.5,-20.7,,,,,,
1257694,2.522967,9.199439,-1.7358109,-0.64787,1.48629,0.792688,45.9,-170.1,-17.1,,,,,,
1257789,2.4158995,9.3459835,-1.7035112,-0.030488,-2.408552,-1.699706,53.100002,-177.3,-21.900002,,,,,,
1257809,2.2950745,9.319068,-1.6090046,-0.373478,-2.13416,-2.2561119,50.7,-170.1,-14.700001,,,,,,
1257853,2.527154,9.06067,-1.5031333,-1.150922,-0.007622,-0.708846,55.500004,-174.90001,-26.1,,,,,,
1257894,2.1766422,8.915919,-1.4170007,-2.2561119,-0.289636,-0.640248,48.300003,-170.1,-24.300001,,,,,,
1257973,1.9278148,10.011717,-1.7609329,-0.198172,-0.518296,1.059458,50.7,-174.90001,-15.3,,,,,,
1257993,1.8147658,9.143213,-1.3894861,-0.449698,-0.23628199,0.0,50.7,-186.90001,-23.7,,,,,,
1258033,1.9296092,9.131848,-1.4080286,-0.396344,-0.56402797,0.0,55.500004,-179.70001,-24.300001,,,,,,
1258077,2.1317816,9.168336,-1.4175988,-0.091464,-0.49543,0.144818,57.9,-179.70001,-30.900002,,,,,,
1258097,2.2376528,9.210205,-1.4415245,-0.091464,-0.33536798,0.16768399,50.7,-167.70001,-22.5,,,,,,
1258117,2.1909976,9.182093,-1.5121055,-0.106708,-0.198172,0.091464,48.300003,-174.90001,-30.300001,,,,,,
1258157,2.254401,9.126466,-1.5587605,0.22865999,-0.297258,0.0,55.500004,-172.5,-26.7,,,,,,
1258273,2.4655454,9.156971,-1.2519132,0.449698,-0.442076,-0.47256398,55.500004,-174.90001,-22.5,,,,,,
1258315,2.2454288,9.231739,-1.2417448,-0.022866,-0.160062,-0.434454,60.300003,-172.5,-26.1,,,,,,
1258335,1.9517405,9.501501,-1.4313561,-0.121952,-0.007622,-0.434454,53.100002,-174.90001,-28.500002,,,,,,
1258355,1.8039992,9.25387,-1.6245563,-0.716468,-0.137196,-0.70122397,50.7,-174.90001,-26.1,,,,,,
1258375,1.7065018,9.134241,-1.577303,-0.007622,-0.45731997,-0.57164997,60.300003,-184.5,-25.500002,,,,,,
1258395,1.7657181,9.292151,-1.6843706,0.182928,-0.548784,-0.56402797,43.5,-172.5,-24.300001,,,,,,
1258415,1.7567459,9.127064,-1.6682208,0.251526,-0.632626,-0.602138,57.9,-167.70001,-24.900002,,,,,,
1258455,2.275934,10.639169,1.0497409,-5.282046,-4.4207597,-0.060976,62.7,-172.5,-20.7,,,,,,
1258475,1.8081862,8.315384,-3.2329628,2.812518,1.56251,-0.739334,60.300003,-182.1,-30.300001,,,,,,
1258495,2.0408638,9.595409,-1.5198812,-0.68597996,-2.317088,0.091464,53.100002,-172.5,-20.7,,,,,,
1258515,2.1700628,9.082801,-1.6945391,-2.7744079,0.579272,-0.083841994,57.9,-170.1,-17.1,,,,,,
1258535,1.8811597,9.309497,-1.9290111,-2.926848,0.853664,-0.213416,67.5,-174.90001,-17.1,,,,,,
1258555,1.8668042,9.384265,-2.167072,-0.007622,0.030488,-0.518296,74.700005,-174.90001,-30.300001,,,,,,
1258575,2.2932801,8.862684,-0.94805664,0.769822,-2.2256238,-0.53354,55.500004,-170.1,-23.1,,,,,,
1258595,1.8985058,9.207214,-1.8093824,-0.30488,1.532022,-0.41921,57.9,-174.90001,-26.7,,,,,,
1258616,1.8213453,9.010426,-1.7986159,1.3490939,-0.137196,-0.327746,67.5,-172.5,-24.900002,,,,,,
1258658,1.8751782,9.119885,-1.8010085,-0.426832,0.548784,-0.72409,72.3,-167.70001,-21.900002,,,,,,
1258706,1.8117751,9.153382,-1.8751782,0.80030996,-0.41921,-0.327746,79.5,-184.5,-20.1,,,,,,
1258770,1.9780588,9.539185,-1.9750681,0.57164997,-0.602138,0.144818,45.9,-170.1,-26.7,,,,,,
1258809,1.7310258,8.7843275,-1.9020946,0.55640596,-1.051836,0.49543,65.100006,-167.70001,-17.1,,,,,,
1258829,1.9373851,9.250281,-1.6323322,0.67073596,-1.242386,0.853664,53.100002,-179.70001,-18.900002,,,,,,
1258869,1.79084,9.393237,-1.6371173,-0.20579399,-0.3811,0.07622,48.300003,-174.90001,-17.7,,,,,,
1258889,1.5049278,9.206616,-1.7980177,0.030488,-0.60976,-0.503052,62.7,-191.70001,-18.900002,,,,,,
1258934,2.188605,9.774254,-1.4158044,1.089946,-1.48629,-1.166166,60.300003,-177.3,-25.500002,,,,,,
1258994,1.7920363,9.126466,-1.5635457,0.30488,-0.15244,-1.75306,67.5,-172.5,-20.7,,,,,,
1259014,1.9960032,9.33103,-1.5611532,0.655492,-0.274392,-1.432936,72.3,-184.5,-24.300001,,,,,,
1259059,1.9888253,8.88661,-1.5330404,0.34298998,0.33536798,-1.3567159,69.9,-165.3,-23.7,,,,,,
1259079,2.1772404,8.731093,-1.7752883,0.754578,0.137196,-1.204276,81.9,-184.5,-17.7,,,,,,
1259099,2.234064,8.391348,-1.5850788,0.602138,-0.045732,-1.204276,69.9,-177.3,-16.5,,,,,,
1259119,2.1030707,7.272222,-1.154416,-0.23628199,0.426832,-1.250008,69.9,-177.3,-17.1,,,,,,
1259139,2.221503,8.381179,-1.9858347,0.091464,2.484772,1.1280559,72.3,-170.1,-23.1,,,,,,
1259159,2.497845,9.910032,-3.0553143,0.35061198,4.275942,1.760682,67.5,-177.3,-18.900002,,,,,,
1259179,2.915947,10.2426,-3.5463896,0.106708,4.428382,1.5929979,65.100006,-170.1,-21.900002,,,,,,
1259199,2.1090522,8.749037,-3.3394322,0.083841994,2.309466,-0.33536798,57.9,-162.90001,-20.1,,,,,,
1259220,2.380609,9.517651,-3.9501362,1.5244,2.560992,0.60976,62.7,-167.70001,-16.5,,,,,,
1259240,2.4224792,10.176805,-4.1259904,1.71495,1.265252,-0.068598,62.7,-170.1,-21.300001,,,,,,
1259283,2.179633,8.781337,-3.3902743,1.074702,-0.388722,-1.440558,62.7,-174.90001,-15.900001,,,,,,
1259305,2.070771,8.235232,-3.1474283,0.68597996,-0.388722,-0.891774,72.3,-162.90001,-14.700001,,,,,,
1259326,2.0869207,8.139529,-2.9895186,-0.007622,-0.388722,0.137196,77.100006,-165.3,-17.1,,,,,,
1259346,2.2161198,8.273514,-2.790935,-0.57164997,-0.289636,0.967994,72.3,-177.3,-18.300001,,,,,,
1259409,2.4709287,8.253775,-2.584576,-0.87653,-0.510674,1.1280559,69.9,-165.3,-17.1,,,,,,
1259430,2.4416196,8.374599,-2.7311208,-0.67835796,-0.426832,0.769822,57.9,-170.1,-20.7,,,,,,
1259450,2.4739194,8.402114,-2.7251394,-0.49543,-0.594516,0.510674,79.5,-167.70001,-19.5,,,,,,
1259471,2.715569,8.906349,-2.7759814,-0.17530599,-0.69360197,0.503052,72.3,-162.90001,-20.1,,,,,,
1259492,2.6808767,8.765187,-2.7185597,-0.434454,-0.46494198,-0.091464,60.300003,-174.90001,-17.7,,,,,,
1259532,2.4547787,8.445779,-2.7221487,-0.03811,-0.518296,0.129574,72.3,-160.5,-19.5,,,,,,
1259553,2.8208423,9.960875,-3.0008833,0.94512796,-0.47256398,1.41007,74.700005,-186.90001,-14.1,,,,,,
1259573,2.9632003,10.127159,-2.9171433,-0.28201398,-1.3414719,0.55640596,62.7,-167.70001,-15.900001,,,,,,
1259593,1.865608,7.8793373,-2.3112245,-0.388722,-1.272874,-0.15244,69.9,-165.3,-19.5,,,,,,
1259616,1.7561477,8.622231,-2.668316,0.198172,-1.730194,2.2332458,57.9,-174.90001,-22.5,,,,,,
1259636,1.7914382,9.280189,-2.6264458,-0.213416,-1.79117,2.36282,65.100006,-158.1,-21.300001,,,,,,
1259656,2.2490175,11.069234,-2.9811447,0.785066,-2.7896519,3.422278,60.300003,-170.1,-14.700001,,,,,,
1259676,1.1562104,9.259851,-2.137763,-0.960372,-2.461906,0.899396,53.100002,-174.90001,-15.3,,,,,,
1259696,1.7268387,10.918502,-2.7526538,0.480186,-2.2103798,2.652456,53.100002,-170.1,-13.500001,,,,,,
1259717,1.2249968,9.786217,-2.363263,-0.93750596,-1.920744,-0.297258,57.9,-174.90001,-18.300001,,,,,,
1259738,0.7763896,9.07024,-2.22569,-0.327746,-1.8673899,0.091464,48.300003,-177.3,-20.1,,,,,,
1259780,0.2697625,8.906947,-2.1018744,-0.33536798,-0.830798,-0.49543,57.9,-165.3,-20.1,,,,,,
1259800,0.42946666,9.1408205,-2.4374325,0.26677,-0.60976,-0.525918,62.7,-177.3,-16.5,,,,,,
1259820,0.59754485,9.07024,-2.338739,0.503052,-0.7622,-0.92226195,43.5,-172.5,-16.5,,,,,,
1259844,0.3367545,8.539687,-2.1724553,0.373478,-0.47256398,-1.196654,62.7,-167.70001,-20.1,,,,,,
1259864,0.34871736,8.829786,-2.4272642,0.503052,-0.17530599,-0.53354,57.9,-170.1,-20.1,,,,,,
1259884,0.44142953,8.731093,-2.3166077,0.182928,-0.19055,-0.45731997,50.7,-165.3,-19.5,,,,,,
1259949,0.68606997,8.949415,-2.2615786,-0.82317597,0.221038,-0.47256398,53.100002,-179.70001,-18.300001,,,,,,
1259969,0.9994969,9.27959,-2.1557074,-0.586894,0.11432999,-0.586894,53.100002,-162.90001,-20.1,,,,,,
1259989,0.99291736,8.792104,-2.024714,-1.044214,0.68597996,-1.166166,65.100006,-177.3,-15.900001,,,,,,
1260010,1.2321745,9.537988,-2.2567935,-0.365856,0.92226195,-0.746956,57.9,-172.5,-23.1,,,,,,
1260072,1.1532197,8.658718,-2.6503716,-0.015244,1.455802,-1.9131219,65.100006,-172.5,-21.300001,,,,,,
1260095,1.4421227,8.27471,-2.7508595,0.083841994,1.6234859,-1.33385,72.3,-158.1,-18.900002,,,,,,
1260116,1.940974,8.601295,-2.8776658,-0.259148,1.806414,-0.68597996,69.9,-172.5,-15.900001,,,,,,
1260136,2.2831118,8.86089,-3.2024574,-0.56402797,2.416174,-0.57164997,62.7,-162.90001,-20.7,,,,,,
1260199,3.292777,9.785619,-3.4118075,-1.265252,1.082324,-1.166166,62.7,-162.90001,-20.7,,,,,,
1260249,2.4948545,7.6831465,-2.7831593,0.16768399,-0.7622,-0.47256398,55.500004,-158.1,-17.7,,,,,,
1260269,2.790935,8.664101,-2.5570612,0.396344,-1.1128119,0.57164997,57.9,-172.5,-20.7,,,,,,
1260312,2.32558,8.1365385,-2.1503239,-0.87653,-0.69360197,-1.25763,55.500004,-160.5,-18.300001,,,,,,
1260332,1.9212352,7.555144,-1.5503865,-0.777444,-0.53354,-0.92988396,60.300003,-165.3,-18.900002,,,,,,
1260356,2.4571714,10.605673,-2.4954524,-0.396344,0.960372,0.7622,72.3,-153.3,-15.900001,,,,,,
1260380,1.2459319,8.560024,-2.4344418,-0.716468,0.998482,-2.507638,69.9,-160.5,-15.3,,,,,,
1260401,0.9073829,8.083902,-2.6491752,1.3872039,-0.22865999,-0.884152,67.5,-167.70001,-24.900002,,,,,,
1260421,1.5204794,9.813133,-2.4153013,1.9054999,-1.3567159,0.746956,65.100006,-179.70001,-15.900001,,,,,,
1260441,1.6825762,10.4579315,-2.3704405,1.021348,-0.45731997,-0.259148,77.100006,-162.90001,-14.700001,,,,,,
1260507,1.3189052,9.235328,-2.7502613,1.18141,0.45731997,-0.56402797,69.9,-170.1,-20.7,,,,,,
1260670,1.1956878,9.055884,-3.1564004,-0.525918,-0.632626,-0.960372,72.3,-162.90001,-23.1,,,,,,
1260692,1.2644743,9.19286,-2.9685836,-0.640248,-0.663114,-0.967994,84.3,-162.90001,-21.300001,,,,,,
1260733,1.3296719,8.96078,-2.72813,-0.594516,0.121952,-0.708846,77.100006,-165.3,-15.900001,,,,,,
1260775,1.4403282,9.031959,-2.589361,-0.663114,0.975616,-0.434454,72.3,-170.1,-19.5,,,,,,
1261152,1.5085166,9.167139,-2.9380782,0.449698,0.160062,-0.327746,84.3,-165.3,-17.1,,,,,,
1261172,1.5013388,8.883021,-2.9338913,0.49543,-0.274392,-0.55640596,79.5,-167.70001,-24.300001,,,,,,
1261217,1.7830642,8.886012,-2.714971,0.708846,-0.3811,-0.091464,81.9,-165.3,-22.5,,,,,,
1261258,1.4451134,8.733485,-2.9135544,-0.144818,0.198172,-1.242386,86.700005,-158.1,-23.1,,,,,,
1261414,1.1478363,7.47918,-2.7083914,-0.884152,-1.3643379,-1.44818,84.3,-150.90001,-15.900001,,,,,,
1261749,-0.21592961,8.160464,-2.8011036,0.17530599,-0.69360197,-0.22865999,103.50001,-160.5,-19.5,,,,,,
1261769,0.31701577,9.235328,-2.6623344,-0.358234,0.129574,0.67073596,81.9,-155.70001,-16.5,,,,,,
1261810,1.4570763,11.353352,-3.2389443,-1.8369019,1.730194,-0.70122397,91.5,-153.3,-9.900001,,,,,,
1261831,0.9438696,9.592419,-2.8022997,-1.8521459,1.189032,-2.675322,96.3,-158.1,-19.5,,,,,,
1261851,0.8810646,8.889003,-2.564239,-1.21952,1.3414719,-1.532022,81.9,-172.5,-14.700001,,,,,,
1261871,0.815867,9.087586,-2.7927296,-0.907018,1.8750119,-0.716468,98.700005,-150.90001,-24.300001,,,,,,
1261891,0.41810194,8.378188,-2.866301,-0.28201398,1.501534,-0.861286,91.5,-158.1,-17.7,,,,,,
1261934,0.39477435,8.646755,-3.2778234,0.541162,0.221038,0.396344,96.3,-158.1,-16.5,,,,,,
1261995,1.2261931,8.963771,-3.1157267,-0.16768399,-0.358234,0.579272,89.100006,-162.90001,-14.700001,,,,,,
1262017,1.4481041,9.177308,-3.0427532,-0.297258,-0.083841994,0.655492,98.700005,-167.70001,-13.500001,,,,,,
1262057,1.3338588,9.112708,-3.0433514,-0.868908,0.754578,-0.07622,101.100006,-155.70001,-11.700001,,,,,,
1262111,0.93729,8.965565,-3.070866,-0.182928,0.663114,-0.221038,84.3,-162.90001,-14.700001,,,,,,
1262131,0.87328875,8.965565,-3.0929973,-0.03811,0.49543,-0.099086,86.700005,-167.70001,-12.900001,,,,,,
1262174,0.94028074,8.577969,-2.9356856,0.060976,-0.022866,0.56402797,89.100006,-165.3,-13.500001,,,,,,
1262198,1.1263032,9.030165,-2.9362838,-0.106708,0.15244,0.92988396,105.9,-165.3,-18.300001,,,,,,
1262218,1.1239107,9.008033,-3.058305,-0.49543,0.22865999,0.617382,69.9,-160.5,-26.7,,,,,,
1262238,1.2070525,8.93506,-3.0182295,-0.46494198,-0.015244,0.53354,89.100006,-158.1,-12.3,,,,,,
1262258,1.2333708,8.7191305,-2.7981129,-0.49543,-0.07622,0.41921,91.5,-155.70001,-20.1,,,,,,
1262278,1.3559902,9.253272,-2.8142626,-0.297258,-0.03811,0.541162,86.700005,-167.70001,-14.1,,,,,,
1262298,1.242343,9.019398,-2.8256273,-0.739334,0.26677,-0.091464,77.100006,-158.1,-9.900001,,,,,,
1262321,1.146042,8.741859,-2.9105637,-0.47256398,0.213416,-0.19055,91.5,-155.70001,-16.5,,,,,,
1262341,1.1388642,8.956593,-2.8692918,-0.068598,0.099086,0.0,84.3,-160.5,-18.900002,,,,,,
1262361,1.1221162,9.229346,-2.9081712,-0.129574,0.17530599,0.007622,101.100006,-172.5,-16.5,,,,,,
1262384,0.94566405,9.209009,-2.9279099,-0.33536798,0.182928,-0.28201398,86.700005,-162.90001,-18.900002,,,,,,
1262405,0.782371,9.041529,-2.883049,-0.40396598,0.15244,-0.22865999,91.5,-162.90001,-15.900001,,,,,,
1262425,0.8039042,9.296338,-2.6844656,-0.28201398,-0.15244,0.060976,93.9,-160.5,-19.5,,,,,x,
1262445,0.66752756,9.668982,-2.5654352,-0.70122397,-0.373478,0.160062,91.5,-172.5,-11.700001,,,,,x,
1262465,0.38041893,9.564306,-2.2442324,-0.708846,-1.021348,0.137196,91.5,-162.90001,-14.700001,,,,,x,
1262485,0.535338,9.131848,-1.7244462,-1.097568,-2.2713559,-0.015244,84.3,-165.3,-12.3,,,,,x,
1262505,0.83740014,8.05579,-0.83141875,-1.3643379,-3.056422,0.388722,93.9,-162.90001,-16.5,,,,,x,
1262529,0.72136045,7.677165,-0.04605701,-1.44818,-3.2241058,1.554888,98.700005,-160.5,-13.500001,,,,,x,
1262550,0.5819931,7.474395,-0.012561003,-1.79117,-2.43904,1.951232,89.100006,-162.90001,-23.1,,,,,x,
1262570,0.18183546,6.887616,-0.26258478,-1.280496,-3.368924,1.3872039,86.700005,-162.90001,-21.300001,,,,,x,
1262590,-0.25301448,6.057394,-0.05682358,-0.144818,-5.510706,1.1128119,81.9,-158.1,-12.3,,,,,x,
1262654,1.1221162,5.21162,0.15850788,0.320124,-10.045795,2.7744079,77.100006,-162.90001,-22.5,,,,,x,
1262674,1.2537076,4.585364,-0.10706759,0.07622,-10.495494,2.339954,84.3,-150.90001,-21.900002,,,,,x,
1262694,1.238156,3.7258325,-0.1824336,0.289636,-11.39489,1.6539739,74.700005,-172.5,-20.1,,,,,x,
1262717,1.4199914,3.2730384,-0.17346147,0.160062,-12.088491,2.118916,67.5,-167.70001,-22.5,,,,,x,
1262757,2.1999698,3.9315937,-0.7692119,-2.118916,-9.314084,0.82317597,72.3,-160.5,-14.700001,,,,,x,
1262780,2.4996395,3.9088643,-2.7885425,-0.541162,-6.0899777,-2.370442,91.5,-158.1,-23.1,,,,,x,
1262800,2.661138,4.761218,-3.831704,0.60976,-5.4573517,-2.195136,79.5,-167.70001,-26.7,,,,,x,
1262860,4.1870008,10.412473,-7.1807065,1.577754,2.6677,0.57164997,84.3,-153.3,-21.900002,,,,,x,
1262889,2.7143729,9.348376,-6.99588,-2.088428,1.288118,-8.338468,103.50001,-158.1,-24.300001,,,,,x,
1262909,0.89183116,4.7247314,-6.032272,1.722572,1.471046,-10.6708,101.100006,-165.3,-23.1,,,,,x,
1262952,2.192194,14.192139,-7.3739066,-1.966476,10.754642,-5.37351,110.700005,-165.3,-21.300001,,,,,x,
1262994,-1.8440747,6.108236,-8.910536,4.679908,12.301908,-15.899491,129.90001,-153.3,-8.700001,,,,,x,
1263129,-5.0650744,14.9176855,-6.7027903,-0.30488,12.72874,-13.03362,163.5,-138.90001,-8.700001,,,,,x,
1263150,-5.228368,11.105123,-9.003248,4.199722,17.22572,-10.190614,170.70001,-126.9,-18.300001,,,,,x,
1263190,-3.3244786,16.557196,-8.521743,-4.672286,6.143332,-1.775926,170.70001,-124.50001,-8.700001,,,,,x,
1263250,-4.575196,14.781309,-6.56761,-1.501534,15.937602,-2.6829438,175.5,-119.700005,-13.500001,,,,,x,
1263270,-4.015932,13.980994,-7.3344293,-1.272874,12.27142,-4.024416,180.3,-114.9,-2.1000001,,,,,x,
1263313,-6.3361287,12.482646,-5.828903,-1.8826339,9.939088,-1.097568,182.70001,-117.3,-3.3000002,,,,,x,
1263372,-6.26794,11.912616,-4.3813972,-2.7744079,7.92688,1.234764,158.70001,-126.9,0.3,,,,,x,
1263392,-5.316893,12.431804,-5.1703477,-2.6905658,5.701256,4.0167937,158.70001,-124.50001,-2.7,,,,,x,
1263434,-4.688245,12.776334,-2.615081,-4.314052,-0.82317597,5.137228,158.70001,-129.3,-3.3000002,,,,,x,
1263455,-4.7133665,11.669769,-2.280719,-5.617414,0.487808,4.72564,149.1,-141.3,-7.5000005,,,,,x,
1263475,-4.4442024,10.773153,-2.3279724,-6.333882,-0.87653,4.756128,151.5,-126.9,-6.9,,,,,x,
1263495,-4.099074,9.57268,-1.6221638,-6.3567476,-3.7881339,4.169234,149.1,-134.1,-11.700001,,,,,x,
1263517,-3.606204,7.785429,-0.26677176,-5.617414,-6.4329677,3.399412,153.90001,-153.3,-1.5,,,,,x,
1263537,-3.1486247,6.5706005,-0.24344419,-4.222588,-6.219552,4.30643,139.5,-150.90001,-8.1,,,,,x,
1263557,-2.2908876,6.422261,-0.0029907147,-3.384168,-7.477182,5.769854,129.90001,-143.70001,-13.500001,,,,,x,
1263620,-0.49526238,4.8186398,-0.21592961,-0.19055,-9.618964,7.4238276,127.50001,-153.3,-13.500001,,,,,x,
1263669,0.8834572,4.5488772,-0.17166704,0.137196,-8.910118,7.2409,105.9,-160.5,-17.7,,,,,x,
1263689,1.3344569,3.9004903,0.117236026,0.853664,-8.262248,5.724122,89.100006,-165.3,-20.7,,,,,x,
1263731,2.1868107,4.0895033,-0.3786245,1.41007,-4.984788,5.213448,86.700005,-160.5,-21.300001,,,,,x,
1263751,2.280121,3.99081,-1.3254849,2.141782,-2.7820299,3.3155699,93.9,-162.90001,-17.7,,,,,x,
1263771,2.2472231,3.9136496,-1.6544634,2.454284,-2.964958,3.109776,91.5,-167.70001,-19.5,,,,,x,
1263791,2.60252,4.4406133,-1.827925,2.2561119,-3.948196,3.978684,86.700005,-170.1,-17.1,,,,,x,
1263811,3.0176313,5.363548,-1.7435868,1.8292799,-4.443626,4.298808,84.3,-167.70001,-23.7,,,,,x,
1263831,3.6504664,5.980233,-1.8841504,1.471046,-4.275942,4.03966,86.700005,-170.1,-15.3,,,,,x,
1263851,4.254591,6.6956124,-2.318402,0.983238,-2.522882,3.12502,67.5,-167.70001,-18.900002,,,,,x,
1263874,4.5482793,8.047416,-3.1205118,1.097568,-1.966476,2.2561119,74.700005,-165.3,-20.1,,,,,x,
1263894,3.928603,8.101847,-2.8860397,-0.022866,-1.097568,0.72409,72.3,-177.3,-10.5,,,,,x,
1263917,3.30474,8.433218,-3.3645542,0.045732,0.69360197,-0.274392,84.3,-172.5,-12.900001,,,,,x,
1263937,2.7957203,8.796888,-4.14872,0.625004,1.204276,-0.625004,69.9,-158.1,-17.7,,,,,x,
1263957,2.45119,8.827394,-4.0889053,0.663114,0.480186,-1.089946,79.5,-170.1,-11.1,,,,,,
1263977,2.2861025,9.182093,-4.3072276,0.92226195,-0.289636,-0.503052,77.100006,-162.90001,-15.900001,,,,,,
1264020,2.6629324,9.557128,-3.9094625,0.03811,-0.47256398,-0.56402797,69.9,-170.1,-14.1,,,,,,
1264044,2.2448306,8.868068,-3.573306,0.33536798,0.198172,-1.669218,77.100006,-172.5,-17.1,,,,,,
1264086,1.8668042,8.675466,-3.3250768,-0.449698,1.417692,-2.01983,74.700005,-158.1,-15.900001,,,,,,
1264106,1.4570763,8.346487,-3.2521033,-0.030488,1.532022,-2.17227,81.9,-158.1,-11.700001,,,,,,
1264126,1.4002527,8.592324,-3.2652624,-0.15244,1.440558,-1.21952,74.700005,-170.1,-15.900001,,,,,,
1264187,1.4947593,8.5468645,-2.677288,-0.55640596,1.1204339,-0.830798,81.9,-170.1,-18.300001,,,,,,
1264209,1.5784993,9.06067,-3.008061,-0.746956,1.9131219,-0.327746,86.700005,-162.90001,-21.900002,,,,,,
1264229,1.4253747,8.825002,-3.0439496,-0.586894,1.79117,-0.899396,74.700005,-160.5,-15.3,,,,,,
1264272,1.5282553,9.229944,-2.8591235,-0.312502,0.792688,-0.396344,91.5,-162.90001,-19.5,,,,,,
1264312,1.338644,8.953004,-2.9105637,-0.26677,1.196654,-1.074702,72.3,-160.5,-15.900001,,,,,,
1264334,1.0288059,9.07981,-3.1025677,-0.259148,1.166166,-1.097568,89.100006,-162.90001,-17.1,,,,,,
1264354,0.9253272,9.01222,-3.0212202,-0.20579399,0.503052,-0.861286,89.100006,-167.70001,-13.500001,,,,,,
1264395,0.92472905,8.82859,-2.828618,-0.434454,0.137196,-0.67835796,84.3,-158.1,-15.900001,,,,,,
1264415,1.029404,9.265235,-2.9069748,-0.251526,0.243904,-0.45731997,89.100006,-160.5,-17.7,,,,,,
1264435,0.89661634,9.063063,-3.0565107,-0.846042,0.213416,-0.830798,93.9,-155.70001,-14.1,,,,,,
1264455,0.9911229,9.127064,-3.0720623,-0.16768399,-0.297258,-0.221038,84.3,-162.90001,-17.7,,,,,,
1264519,1.1484345,9.340002,-2.9153488,-0.41921,-0.22865999,-0.182928,74.700005,-155.70001,-11.1,,,,,,
1264539,1.1185274,9.220972,-2.91176,-0.426832,0.28201398,-0.487808,96.3,-162.90001,-23.1,,,,,,
1264559,0.96420646,8.75442,-2.932097,-0.663114,0.49543,-0.67073596,84.3,-160.5,-13.500001,,,,,,
1264581,1.0395725,8.995472,-2.7819629,-0.67835796,0.449698,0.060976,84.3,-158.1,-18.300001,,,,,,
1264602,1.0742648,8.919508,-2.856731,-0.632626,1.06708,-0.20579399,79.5,-170.1,-9.900001,,,,,,
1264622,1.0527316,8.952406,-3.1492229,-0.28201398,1.059458,-0.221038,96.3,-167.70001,-17.1,,,,,,
1264642,0.99231917,8.901564,-3.049931,-0.15244,0.434454,-0.259148,86.700005,-160.5,-11.700001,,,,,,
1264665,0.98035634,8.541482,-2.8788621,-0.015244,0.41158798,-0.480186,89.100006,-158.1,-12.900001,,,,,,
1264685,1.1819305,9.145606,-2.8854418,0.03811,0.480186,0.060976,96.3,-162.90001,-16.5,,,,,,
1264705,1.3027554,9.466809,-2.8920212,-0.243904,0.792688,-0.46494198,86.700005,-167.70001,-16.5,,,,,,
1264725,1.1915008,9.360937,-3.0894084,-0.41921,1.166166,-0.94512796,77.100006,-155.70001,-13.500001,,,,,,
1264745,1.0192356,8.93506,-3.087614,-0.388722,0.95274997,-1.288118,86.700005,-150.90001,-8.700001,,,,,,
1264765,1.0054784,8.766383,-3.0612957,-0.46494198,0.663114,-0.899396,98.700005,-170.1,-14.700001,,,,,,
1264788,1.0874239,8.790907,-2.836992,-0.663114,0.312502,-0.480186,91.5,-170.1,-14.700001,,,,,x,
1264808,1.1699677,8.953004,-2.8292162,-0.70122397,0.503052,-0.449698,101.100006,-162.90001,-17.7,,,,,x,
1264828,1.2028655,9.095961,-2.828618,-0.510674,0.480186,-0.41921,93.9,-167.70001,-12.900001,,,,,x,
1264848,1.1263032,8.889003,-2.8040943,-0.41921,0.449698,-0.579272,89.100006,-155.70001,-17.7,,,,,x,
1264871,0.9241309,9.090577,-2.8633103,-0.144818,0.327746,-0.23628199,93.9,-160.5,-18.300001,,,,,x,
1264891,0.6992291,9.456042,-2.844768,0.07622,-0.198172,-0.243904,98.700005,-162.90001,-17.7,,,,,x,
1264911,0.4163075,8.959583,-2.723345,0.03811,-0.754578,-0.49543,93.9,-167.70001,-21.300001,,,,,x,
1264931,0.36905423,9.296338,-2.3800108,0.396344,-1.6463519,-0.022866,98.700005,-146.1,-15.3,,,,,x,
1264955,0.39357808,10.027867,-1.8129714,-0.045732,-2.843006,0.320124,89.100006,-167.70001,-11.700001,,,,,x,
1264995,-0.18482618,8.198746,-1.1580048,-2.17227,-2.583858,0.68597996,98.700005,-153.3,-15.3,,,,,x,
1265017,-0.13996546,8.359048,-1.1179292,-1.6082419,-3.650938,2.080806,69.9,-160.5,-20.1,,,,,x,
1265037,-0.1016843,8.021695,-0.84996116,-1.3490939,-5.4268637,2.660078,81.9,-165.3,-20.7,,,,,x,
1265057,-0.13876916,6.649555,-0.44860724,-0.899396,-8.292736,3.12502,93.9,-160.5,-24.300001,,,,,x,
1265077,0.22729433,6.267342,0.044860724,-0.449698,-10.091528,3.894842,86.700005,-172.5,-15.900001,,,,,x,
1265140,1.2907926,5.322276,-0.011364716,-2.118916,-10.221102,3.018312,77.100006,-170.1,-20.1,,,,,x,
1265170,1.1813323,3.3705356,0.03409415,-2.09605,-11.532085,1.006104,69.9,-158.1,-21.900002,,,,,x,
1265190,1.3506068,2.3124208,0.0640013,-1.8369019,-11.692148,0.312502,81.9,-167.70001,-23.1,,,,,x,
1265230,2.9835372,4.056606,-1.150229,-0.975616,-8.757678,-0.17530599,77.100006,-179.70001,-23.1,,,,,x,
1265250,3.1067545,5.0261955,-1.9003003,0.17530599,-7.339986,-1.554888,69.9,-165.3,-25.500002,,,,,x,
1265294,3.0098555,4.7815547,-4.1427383,1.326228,-3.361302,-3.6966698,81.9,-165.3,-23.7,,,,,x,
1265314,3.9339864,7.207623,-4.8192377,2.2408679,-2.17227,-1.509156,81.9,-162.90001,-23.7,,,,,x,
1265356,1.954133,5.3683333,-6.2805014,-0.091464,2.995446,-6.4482117,93.9,-162.90001,-27.300001,,,,,x,
1265418,1.5234702,11.337202,-7.7004924,-2.088428,3.2164838,-7.629622,105.9,-162.90001,-31.500002,,,,,x,
1265468,0.6029281,12.031646,-9.304114,-0.632626,7.9802337,-5.670768,122.700005,-150.90001,-22.5,,,,,x,
1265534,-3.2814124,9.512268,-6.722529,-2.118916,12.7668495,-8.6509695,144.3,-146.1,-26.7,,,,,x,
1265554,-2.7454762,12.357036,-7.7321944,-0.87653,13.7196,-4.740884,141.90001,-150.90001,-26.7,,,,,x,
1265574,-2.3243835,14.54265,-7.622734,-0.632626,10.510737,-4.397894,163.5,-150.90001,-24.300001,,,,,x,
1265594,-4.0811296,13.582032,-6.0101404,-0.93750596,9.352194,-6.204308,139.5,-138.90001,-24.300001,,,,,x,
1265616,-5.1990585,13.695082,-5.5310283,-1.471046,13.551916,-5.9222937,165.90001,-129.3,-20.7,,,,,x,
1265656,-5.376109,14.232812,-6.8541203,0.91463995,11.211962,-2.583858,173.1,-146.1,-17.7,,,,,x,
1265676,-4.4956427,15.818489,-4.297059,-2.012208,6.036624,-1.585376,165.90001,-126.9,-9.3,,,,,x,
1265719,-5.3737164,16.911894,-6.413887,0.70122397,18.582436,-3.54423,161.1,-129.3,-17.7,,,,,x,
1265739,-5.0572987,17.188835,-6.6627145,1.074702,8.91774,-1.48629,163.5,-134.1,-8.1,,,,,x,
1265759,-5.225975,17.033318,-3.6684108,-0.594516,5.061008,-1.996964,161.1,-136.5,-9.3,,,,,x,
1265779,-5.4239607,15.223935,-4.7582273,0.396344,11.28056,-2.7134318,163.5,-119.700005,-7.5000005,,,,,x,
1265839,-4.7977047,13.979199,-3.8221335,-3.612828,4.100636,0.830798,163.5,-129.3,-6.9,,,,,x,
1265859,-4.835986,12.046001,-3.9632952,-3.948196,4.64942,1.455802,156.3,-136.5,-3.9,,,,,x,
1265879,-4.593738,10.429221,-3.0379682,-4.0167937,1.67684,2.522882,151.5,-131.70001,-3.9,,,,,x,
1265899,-4.405921,9.207813,-1.9888253,-3.483254,0.17530599,3.7957559,158.70001,-141.3,-0.90000004,,,,,x,
1265919,-4.0739517,9.591821,-2.1192205,-2.926848,1.6539739,5.6097918,134.70001,-148.5,-9.900001,,,,,x,
1265943,-3.3460119,8.621633,-1.8267286,-3.079288,-0.518296,5.83083,139.5,-143.70001,-6.3,,,,,x,
1265963,-2.832207,7.82371,-1.1992767,-3.2164838,-1.6082419,5.5945477,134.70001,-155.70001,-8.1,,,,,x,
1265983,-2.2908876,6.979132,-1.2226043,-3.376546,-1.989342,4.771372,134.70001,-134.1,-6.3,,,,,x,
1266007,-1.978657,5.9180264,-1.1484345,-2.957336,-3.559474,3.940574,127.50001,-155.70001,-15.900001,,,,,x,
1266027,-1.4175988,5.1853013,-0.799119,-2.7820299,-5.647902,3.856732,129.90001,-158.1,-11.1,,,,,x,
1266048,-1.1203218,4.5506716,-0.64240557,-3.025934,-6.654006,4.38265,120.3,-150.90001,-14.1,,,,,x,
1266068,-0.4827014,4.3574715,-0.85235375,-3.003068,-7.400962,5.4725957,122.700005,-162.90001,-18.300001,,,,,x,
1266132,1.2698575,3.6391017,-0.2781365,-1.71495,-9.664696,6.547298,113.100006,-165.3,-18.300001,,,,,x,
1266152,1.602425,4.003371,-0.40494278,-1.425314,-9.344572,6.341504,101.100006,-150.90001,-16.5,,,,,x,
1266172,2.3740294,4.2510023,-0.5275621,-1.29574,-9.207376,6.02138,84.3,-160.5,-20.7,,,,,x,
1266212,3.6953273,5.5202613,-0.28591233,-0.045732,-8.23176,5.205826,74.700005,-158.1,-18.900002,,,,,x,
1266251,3.9549212,6.3774004,-0.58558196,0.60976,-4.893324,3.2393498,77.100006,-174.90001,-19.5,,,,,x,
1266271,4.2731333,7.5060964,-0.90798104,1.3567159,-3.597584,2.850628,74.700005,-170.1,-22.5,,,,,x,
1266312,2.933293,8.587539,-2.6503716,1.440558,0.998482,-0.198172,72.3,-162.90001,-13.500001,,,,,x,
1266333,2.330365,7.5790696,-3.5332305,2.599102,1.471046,-2.2561119,77.100006,-172.5,-23.7,,,,,x,
1266353,2.7472706,8.573183,-3.8215353,3.513742,-1.547266,0.297258,86.700005,-167.70001,-23.7,,,,,x,
1266373,2.3309631,10.021886,-3.162382,1.425314,-1.425314,0.47256398,74.700005,-158.1,-18.900002,,,,,x,
1266393,2.1269965,9.344788,-3.907668,-0.312502,0.40396598,-1.585376,86.700005,-172.5,-11.700001,,,,,,
1266454,2.021125,8.883021,-3.1534097,0.55640596,-0.3811,-1.33385,93.9,-170.1,-22.5,,,,,,
1266489,1.552181,8.570192,-3.024211,0.594516,0.365856,-1.044214,81.9,-177.3,-18.900002,,,,,,
1266552,1.6999223,9.032557,-2.6982229,0.289636,1.25763,-0.57164997,91.5,-165.3,-18.300001,,,,,,
1266632,0.96241206,8.614455,-2.823833,-0.327746,1.4024479,-0.487808,91.5,-160.5,-17.1,,,,,,
1266671,1.4696373,9.458435,-2.6372123,-0.060976,0.846042,-0.160062,81.9,-160.5,-15.3,,,,,,
1266691,1.1280977,9.210205,-2.7849536,-0.510674,1.082324,-0.846042,91.5,-170.1,-14.1,,,,,,
1266731,1.146042,9.106129,-2.8375902,0.17530599,0.40396598,-0.34298998,89.100006,-160.5,-12.900001,,,,,,
1266754,1.0551242,9.101343,-2.8226366,0.19055,0.442076,-0.297258,96.3,-158.1,-16.5,,,,,,
1266774,1.2034637,9.2484865,-2.8411791,0.53354,0.373478,-0.35061198,77.100006,-174.90001,-15.900001,,,,,,
1266798,1.2656705,9.2484865,-2.522369,0.221038,0.23628199,-0.45731997,74.700005,-165.3,-23.1,,,,,,
1266818,1.1974822,9.299927,-2.7137747,-0.23628199,0.548784,-0.121952,74.700005,-170.1,-9.900001,,,,,,
1266840,1.1574067,8.950611,-2.4565732,-0.64787,0.358234,-0.373478,77.100006,-179.70001,-11.700001,,,,,,
1266860,1.3069423,8.997865,-2.3190002,-0.525918,0.26677,-0.251526,81.9,-158.1,-14.700001,,,,,,
1266882,1.4624596,9.223963,-2.259186,-0.49543,0.17530599,-0.34298998,77.100006,-165.3,-12.900001,,,,,,
1266902,1.4187951,9.230542,-2.1598942,-0.594516,0.320124,-0.594516,91.5,-167.70001,-20.1,,,,,,
1266922,1.3105313,8.961976,-2.2436342,-0.625004,0.35061198,-0.769822,103.50001,-162.90001,-12.3,,,,,,
1266945,1.1239107,8.1150055,-2.079145,-0.518296,0.46494198,-0.884152,96.3,-165.3,-11.1,,,,,x,
1266965,1.0018895,8.622231,-2.2825136,0.91463995,0.373478,-0.045732,89.100006,-167.70001,-16.5,,,,,x,
1267047,-0.12561002,10.059568,-2.5133967,0.442076,-1.33385,1.958854,98.700005,-172.5,-17.7,,,,,x,
1267272,4.405323,3.7802637,-0.2548089,-2.393308,-11.227205,3.7042918,41.100002,-170.1,-21.300001,,,,,x,
1267292,3.949538,3.6115873,-0.8667092,-2.195136,-9.474146,1.3490939,45.9,-179.70001,-31.500002,,,,,x,
1267334,3.3723302,2.96978,-0.23985533,0.099086,-8.833898,-0.998482,57.9,-174.90001,-23.7,,,,,x,
1267376,0.7943339,3.5715117,-1.6161823,2.09605,-1.1128119,-4.314052,55.500004,-162.90001,-28.500002,,,,,x,
1267396,1.4397302,4.673889,-3.2706459,4.131124,-0.739334,-3.094532,69.9,-174.90001,-29.1,,,,,x,
1267459,3.083427,7.7662883,-5.80737,3.475632,5.5183277,-3.170752,53.100002,-167.70001,-25.500002,,,,,x,
1267591,0.5514878,9.602588,-8.073135,2.47715,8.048832,-7.713464,93.9,-150.90001,-15.900001,,,,,x,
1267626,0.35290435,12.411467,-7.9463296,1.227142,13.87204,-6.181442,93.9,-158.1,-24.900002,,,,,x,
1267649,-0.1794429,10.429221,-9.438098,4.756128,17.027548,-8.811031,108.3,-155.70001,-9.900001,,,,,x,
1267689,-0.44621465,12.171013,-7.3691216,-5.419242,0.487808,0.11432999,105.9,-160.5,-12.900001,,,,,x,
1267749,-0.6459944,11.059664,-8.890199,3.551852,14.939119,-3.0488,101.100006,-150.90001,-5.7000003,,,,,x,
1267806,-1.6209675,11.912616,-6.6878366,3.635694,14.077834,-9.733294,125.100006,-153.3,-13.500001,,,,,x,
1267826,-2.0510323,12.837344,-8.771169,3.978684,16.250103,-4.45887,122.700005,-141.3,-12.900001,,,,,x,
1267870,-0.5401231,17.150553,-7.092779,-1.577754,5.25918,-6.5701637,125.100006,-141.3,-2.7,,,,,x,
1267931,-2.513995,13.918787,-8.3524685,-2.378064,5.7165,-1.1432999,127.50001,-131.70001,-3.9,,,,,x,
1267991,-2.878264,11.535786,-4.7456665,-4.5579557,-3.513742,-1.234764,137.1,-141.3,-7.5000005,,,,,x,
1268011,-3.192887,10.930465,-2.372235,-5.617414,-1.669218,-0.967994,132.3,-134.1,-3.9,,,,,x,
1268051,-1.1298921,11.658404,-1.3236904,-2.332332,-3.7881339,3.346058,134.70001,-141.3,-5.1000004,,,,,x,
1268075,-4.023708,10.320957,-0.5586655,-4.291186,7.0655937,-0.91463995,127.50001,-148.5,-11.700001,,,,,x,
1268095,-4.061391,9.280189,-3.877761,-2.40093,6.5701637,1.8292799,120.3,-136.5,-12.900001,,,,,x,
1268119,-3.405826,9.99437,-2.292682,-2.111294,-4.5122237,4.695152,127.50001,-148.5,-10.5,,,,,x,
1268139,-2.9596114,9.404602,-1.2459319,-2.522882,-3.978684,3.54423,125.100006,-160.5,-10.5,,,,,x,
1268159,-2.6073053,8.888405,-2.3752258,-2.01983,-3.8109999,3.6661818,122.700005,-162.90001,-10.5,,,,,x,
1268226,-1.2142302,5.664414,-1.2363615,-2.6829438,-7.50767,3.460388,105.9,-158.1,-8.700001,,,,,x,
1268288,-0.15611531,3.9268086,-0.82364285,-3.856732,-7.8125496,5.190582,105.9,-160.5,-9.3,,,,,x,
1268309,0.42707407,3.4118075,-1.0389743,-2.431418,-8.399444,5.556438,96.3,-155.70001,-14.1,,,,,x,
1268329,1.0599093,3.4249666,-0.75904346,-1.928366,-8.57475,6.4482117,89.100006,-150.90001,-18.900002,,,,,x,
1268349,1.485189,4.0883074,-0.65077955,-1.265252,-7.6524878,6.9436417,96.3,-155.70001,-12.900001,,,,,x,
1268369,2.2813172,4.920324,-0.840989,-0.80030996,-6.8521776,6.303394,77.100006,-162.90001,-17.1,,,,,x,
1268389,2.6629324,4.703198,-0.9887303,-0.525918,-5.746988,4.4664917,81.9,-172.5,-21.900002,,,,,x,
1268409,3.003874,4.713965,-1.1059663,0.731712,-4.923812,3.986306,86.700005,-167.70001,-14.1,,,,,x,
1268429,3.8939106,5.848642,-1.430758,1.48629,-4.375028,4.855214,69.9,-172.5,-20.7,,,,,x,
1268453,5.100365,7.6287155,-1.7848586,1.234764,-1.8597679,3.54423,72.3,-165.3,-15.3,,,,,x,
1268473,5.008251,8.128763,-2.1688664,0.792688,-0.80030996,1.310984,48.300003,-162.90001,-12.3,,,,,x,
1268494,3.9345844,7.5485644,-2.477508,0.69360197,0.015244,-1.455802,72.3,-153.3,-24.300001,,,,,x,
1268514,3.5487823,7.5862474,-3.0230145,1.25763,-0.53354,-1.425314,65.100006,-172.5,-13.500001,,,,,x,
1268534,2.9721725,8.608474,-2.9739668,0.640248,-1.280496,-1.189032,74.700005,-170.1,-21.900002,,,,,x,
1268554,2.827422,8.79629,-3.142045,0.49543,-0.67835796,-2.088428,77.100006,-160.5,-10.5,,,,,x,
1268574,2.4272642,9.232935,-3.493155,0.91463995,-0.525918,-2.050318,62.7,-165.3,-17.7,,,,,x,
1268594,1.3996545,8.396731,-3.698318,0.182928,-0.16768399,-2.621968,79.5,-162.90001,-11.1,,,,,x,
1268618,1.7232499,8.783132,-3.3627598,1.036592,-1.67684,-0.17530599,79.5,-160.5,-18.300001,,,,,x,
1268638,1.8859448,9.188672,-3.1109416,0.594516,-1.265252,-0.137196,84.3,-167.70001,-21.300001,,,,,x,
1268661,1.5390218,8.930873,-3.5499785,-0.30488,0.998482,-1.570132,77.100006,-174.90001,-20.1,,,,,x,
1268681,1.5874715,9.33103,-3.5134919,0.251526,0.731712,-1.661596,69.9,-160.5,-20.1,,,,,,
1268701,1.2985684,8.929078,-3.434537,-0.53354,1.4024479,-2.149404,84.3,-167.70001,-23.1,,,,,,
1268765,1.1340791,8.41946,-2.8465624,-0.083841994,-0.243904,-1.18141,79.5,-172.5,-14.1,,,,,,
1268788,1.271652,9.046912,-2.8794603,-0.426832,0.426832,-0.3811,72.3,-160.5,-17.7,,,,,,
1268809,1.3673549,8.697597,-2.8890305,-0.777444,0.365856,-0.80030996,86.700005,-165.3,-12.3,,,,,x,
1268829,1.155014,8.585744,-3.0032759,-0.35061198,0.853664,-0.487808,86.700005,-160.5,-14.1,,,,,x,
1268912,1.3643641,8.799879,-2.940471,-0.3811,1.044214,0.297258,74.700005,-162.90001,-11.1,,,,,x,
1269008,1.2184173,8.568996,-2.9428635,-0.594516,0.785066,-0.586894,84.3,-155.70001,-13.500001,,,,,x,
1269028,1.1388642,8.774757,-2.9799483,-0.16768399,0.861286,-0.251526,96.3,-160.5,-19.5,,,,,x,
1269068,1.2883999,8.769374,-2.936882,-0.198172,1.006104,-0.373478,79.5,-160.5,-23.7,,,,,x,
1269151,0.55208594,8.440993,-2.8986008,-0.23628199,0.41921,-0.56402797,84.3,-153.3,-20.7,,,,,x,
1269371,1.1280977,5.4179792,1.2973721,-1.18141,-11.638794,2.606724,79.5,-158.1,-15.900001,,,,,x,
1269391,1.6795855,4.346107,1.0975924,-1.48629,-11.265316,1.8826339,62.7,-174.90001,-22.5,,,,,x,
1269432,2.0396676,2.962004,0.047851436,-0.34298998,-9.18451,1.25763,67.5,-160.5,-26.7,,,,,x,
1269453,2.51878,3.7874413,-0.99172103,0.442076,-7.4695597,1.265252,69.9,-177.3,-17.1,,,,,x,
1269474,3.2449257,4.2569838,-2.4840877,-0.983238,-3.7805119,-1.234764,81.9,-179.70001,-23.1,,,,,x,
1269494,3.4782014,3.2921789,-3.359769,1.051836,-1.3414719,-2.339954,72.3,-165.3,-20.1,,,,,x,
1269514,4.5596437,6.217696,-4.6308227,2.423796,0.95274997,0.57164997,74.700005,-172.5,-19.5,,,,,x,
1269534,2.7353077,5.489158,-5.577683,0.47256398,2.865872,-3.536608,65.100006,-162.90001,-28.500002,,,,,x,
1269554,1.7298294,4.2037487,-5.1482167,0.846042,0.40396598,-4.923812,89.100006,-172.5,-22.5,,,,,x,
1269575,2.0779486,5.814548,-4.811462,1.189032,-0.777444,-2.644834,79.5,-177.3,-15.900001,,,,,x,
1269595,2.5038264,7.200445,-5.124291,0.068598,1.1356779,-3.8109999,93.9,-172.5,-28.500002,,,,,x,
1269637,2.2185123,9.139625,-6.924701,2.926848,2.827762,-4.0472817,81.9,-160.5,-20.1,,,,,x,
1269667,1.62336,7.998368,-5.784641,-0.663114,4.4817357,-8.056454,101.100006,-165.3,-17.1,,,,,x,
1269688,0.9043922,7.7632976,-6.5801706,1.036592,8.056454,-6.8598,98.700005,-155.70001,-20.7,,,,,x,
1269728,1.313522,13.009609,-7.922404,-1.920744,8.132674,-4.939056,115.50001,-155.70001,-21.300001,,,,,x,
1269748,-0.004785144,11.383259,-7.196856,-2.187514,6.966508,-9.1159115,103.50001,-158.1,-12.3,,,,,x,
1269770,-1.7543533,8.710158,-6.9169254,0.503052,7.568646,-9.984819,127.50001,-148.5,-17.7,,,,,x,
1269790,-0.5682358,10.978914,-7.276409,-0.015244,10.411652,-3.1783738,129.90001,-150.90001,-18.900002,,,,,x,
1269811,-0.8182596,13.99834,-8.225662,-0.40396598,13.803442,-1.189032,127.50001,-148.5,-12.3,,,,,x,
1269832,-1.233969,12.129143,-7.9182167,-0.198172,6.829312,-8.201272,122.700005,-150.90001,-19.5,,,,,x,
1269853,-2.8387866,11.069234,-6.3732133,-0.87653,7.5915117,-5.670768,137.1,-143.70001,-23.1,,,,,x,
1269893,-0.28830492,17.796547,-10.079308,2.530504,14.268384,0.663114,144.3,-143.70001,-9.3,,,,,x,
1269975,-4.1104383,16.76834,-5.0561028,-1.3795819,5.495462,-6.0976,125.100006,-141.3,-12.900001,,,,,x,
1270031,-3.6809719,14.844712,-4.058998,-2.2256238,6.219552,-3.559474,149.1,-146.1,-7.5000005,,,,,x,
1270051,-4.2061415,14.350646,-6.1644616,-0.632626,10.335432,-0.41921,134.70001,-131.70001,-11.1,,,,,x,
1270093,-3.322086,13.108901,-3.6767848,-3.932952,3.6966698,0.16768399,127.50001,-141.3,-11.700001,,,,,x,
1270113,-3.0397625,11.488532,-3.3824985,-3.1859958,4.275942,-0.35061198,137.1,-136.5,-10.5,,,,,x,
1270153,-2.7185597,10.190562,-2.7837574,-2.385686,1.211898,0.213416,122.700005,-134.1,-12.900001,,,,,x,
1270230,-2.1646795,7.408599,-0.8571389,-4.710396,-3.7652678,-1.211898,139.5,-143.70001,-12.3,,,,,x,
1270330,-0.39836323,6.0544033,-0.4175038,-3.384168,-5.304912,2.012208,117.9,-162.90001,-12.900001,,,,,x,
1270350,-0.15551718,5.258275,-0.63522786,-2.2942219,-5.708878,0.99086,117.9,-150.90001,-23.1,,,,,x,
1270390,-0.29009935,3.648672,-0.21054633,-1.6082419,-7.294254,-0.045732,115.50001,-162.90001,-17.7,,,,,x,
1270411,0.17047074,2.8794603,-0.22729433,-0.69360197,-7.522914,1.4024479,103.50001,-160.5,-17.7,,,,,x,
1270474,1.6903521,4.0129414,-0.61190027,-0.160062,-5.5030837,3.84911,113.100006,-148.5,-21.900002,,,,,x,
1270514,3.045744,5.9515224,-1.0228245,0.830798,-3.8262439,4.176856,115.50001,-158.1,-17.7,,,,,x,
1270534,3.0678754,6.1554894,-1.5629476,1.6234859,-3.2393498,2.995446,98.700005,-160.5,-15.3,,,,,,
1270574,3.7718897,7.8960853,-1.6042194,2.111294,-2.09605,2.964958,86.700005,-165.3,-17.1,,,,,,
1270594,3.0194256,8.173624,-2.3058412,1.196654,-0.320124,0.80793196,84.3,-158.1,-20.1,,,,,,
1270614,2.3040466,8.176615,-2.9859297,2.035074,0.792688,0.853664,91.5,-158.1,-22.5,,,,,,
1270634,1.6598468,9.350769,-4.141542,2.423796,1.463424,1.8521459,81.9,-165.3,-14.1,,,,,,
1270694,2.2322695,9.064259,-3.24672,0.93750596,-1.577754,1.806414,84.3,-179.70001,-15.3,,,,,x,
1270734,2.3859923,8.880031,-3.0989788,0.28201398,-0.55640596,0.297258,79.5,-174.90001,-18.900002,,,,,x,
1270774,2.074958,8.250186,-3.0762494,-0.426832,0.68597996,-0.312502,67.5,-179.70001,-13.500001,,,,,x,
1271071,0.9241309,8.652138,-2.740093,-0.632626,0.998482,-2.32471,77.100006,-172.5,-10.5,,,,,x,
1271226,0.75126755,9.043921,-2.9183395,-0.015244,0.16768399,-0.045732,86.700005,-160.5,-15.900001,,,,,x,
1271246,0.5754135,9.420154,-2.714971,0.091464,-0.030488,0.312502,81.9,-170.1,-18.900002,,,,,x,
1271291,0.28830492,9.9070425,-1.7459793,-0.57164997,-1.272874,0.83842,77.100006,-162.90001,-17.1,,,,,x,
1271353,-0.025122005,7.07005,-0.2033686,-1.577754,-4.969544,2.660078,79.5,-167.70001,-15.3,,,,,x,
1271374,0.062206868,6.5161695,-0.15910603,-1.56251,-6.5091877,2.614346,74.700005,-160.5,-15.900001,,,,,x,
1271415,0.8391946,5.016625,0.49466425,-0.594516,-9.580853,3.2393498,72.3,-167.70001,-23.1,,,,,x,
1271489,1.6048176,3.301151,0.28890306,-1.722572,-8.910118,0.82317597,74.700005,-165.3,-24.300001,,,,,x,
1271593,3.568521,5.7619114,-3.166569,1.745438,-3.2850819,0.426832,69.9,-162.90001,-24.300001,,,,,x,
1271633,3.4285555,4.6798706,-5.425755,2.370442,3.475632,-3.521364,77.100006,-165.3,-17.7,,,,,x,
1271707,5.258275,11.288753,-7.501311,2.51526,5.14485,-2.40093,77.100006,-162.90001,-24.300001,,,,,x,
1271767,1.8991039,10.523129,-8.900966,2.446662,7.690598,-5.44973,96.3,-170.1,-14.700001,,,,,x,
1271787,1.7734939,13.360122,-8.225662,0.22865999,7.9497457,-2.7972739,93.9,-165.3,-20.7,,,,,x,
1271807,0.899607,12.2074995,-8.984107,2.2637339,10.739398,-7.911636,96.3,-153.3,-9.3,,,,,x,
1271827,1.3332607,11.422736,-9.149793,2.2637339,9.100668,-7.743952,91.5,-153.3,-17.7,,,,,x,
1271847,0.8110819,12.371989,-8.140128,-0.510674,6.0976,-4.26832,101.100006,-158.1,-6.9,,,,,x,
1271867,0.06041244,14.5265,-7.342205,-0.3811,8.910118,-3.521364,110.700005,-155.70001,-18.900002,,,,,x,
1271887,0.49944937,14.251952,-6.869672,0.33536798,7.01224,-9.18451,113.100006,-153.3,-20.1,,,,,x,
1271907,-0.77758586,13.751307,-6.2547812,0.548784,6.74547,-9.557988,115.50001,-148.5,-15.900001,,,,,x,
1271927,-2.121015,15.523604,-6.527534,1.082324,10.55647,-6.562542,129.90001,-141.3,-13.500001,,,,,x,
1271950,-1.8422804,16.934624,-7.0323668,0.26677,11.425378,-7.0960817,139.5,-131.70001,-14.700001,,,,,x,
1272013,-0.9139625,19.59935,-7.4917407,-3.2241058,4.0320377,0.67835796,139.5,-136.5,-9.900001,,,,,x,
1272033,-3.5278473,16.538055,-5.2451158,-2.995446,6.4939437,-7.759196,134.70001,-150.90001,-4.5,,,,,x,
1272055,-4.7343016,12.75181,-7.0604796,0.40396598,11.0519,-6.333882,134.70001,-136.5,-5.7000003,,,,,x,
1272075,-4.154103,12.644144,-7.4307303,-2.2637339,5.4421077,-0.289636,144.3,-136.5,-8.700001,,,,,x,
1272095,-2.4170957,14.842917,-5.1888905,-3.894842,0.144818,2.835384,144.3,-136.5,-9.900001,,,,,x,
1272115,-3.1241007,12.928861,-4.4035287,-2.903982,2.40093,-1.1204339,127.50001,-126.9,-12.900001,,,,,x,
1272138,-2.346515,11.241499,-4.4824834,-2.614346,0.983238,0.518296,122.700005,-146.1,-7.5000005,,,,,x,
1272159,-2.970378,11.075813,-2.0432563,-3.84911,0.746956,1.303362,125.100006,-141.3,-14.1,,,,,x,
1272179,-3.5870633,10.691806,-2.7664113,-2.957336,3.6966698,1.02897,141.90001,-150.90001,-11.1,,,,,x,
1272199,-1.8596265,10.9980545,-3.3089268,-2.347576,-2.530504,3.6814258,127.50001,-150.90001,-10.5,,,,,x,
1272222,-2.0606024,9.770665,-1.5617512,-3.894842,-3.597584,1.9054999,146.70001,-150.90001,-5.7000003,,,,,x,
1272242,-2.3507018,8.394937,-1.9044873,-3.1783738,-1.798792,1.6311079,122.700005,-155.70001,-13.500001,,,,,x,
1272262,-1.7495682,8.908143,-1.8668042,-3.1936178,-3.368924,4.0167937,117.9,-143.70001,-12.3,,,,,x,
1272282,-1.7597367,8.581557,-1.4020472,-4.740884,-4.070148,2.7362978,127.50001,-153.3,-9.3,,,,,x,
1272306,-2.1557074,6.8272038,-1.2136321,-4.61131,-5.625036,1.798792,129.90001,-158.1,-16.5,,,,,x,
1272326,-1.828523,6.510188,-0.8248392,-3.92533,-7.134192,5.663146,120.3,-148.5,-11.1,,,,,x,
1272348,-0.83321315,6.7416697,-0.6101058,-4.504602,-6.4634557,7.9192576,117.9,-165.3,-20.1,,,,,x,
1272368,-0.37084866,6.6130686,-0.40972793,-3.8109999,-6.981752,7.0960817,91.5,-158.1,-18.300001,,,,,x,
1272388,-0.0640013,5.9975796,-0.3062492,-3.475632,-6.760714,5.3354,98.700005,-160.5,-25.500002,,,,,x,
1272412,0.04187001,5.1482167,-0.34991363,-2.073184,-6.8369336,3.8033779,86.700005,-165.3,-16.5,,,,,x,
1272432,-0.086132586,4.054213,-0.35948393,-1.265252,-6.9436417,3.0488,93.9,-153.3,-25.500002,,,,,x,
1272495,1.6239581,4.6188602,-0.1614986,0.518296,-6.981752,6.379614,77.100006,-167.70001,-25.500002,,,,,x,
1272515,2.263373,4.890417,-0.1363766,0.625004,-6.295772,5.853696,93.9,-177.3,-29.1,,,,,x,
1272535,2.9105637,5.0884023,-0.2906975,0.92988396,-5.14485,5.175338,65.100006,-165.3,-16.5,,,,,x,
1272557,3.7730858,5.3773055,-0.48389766,1.1128119,-3.6966698,4.596066,60.300003,-177.3,-24.300001,,,,,x,
1272577,4.5153813,6.3779984,-0.8511574,1.1128119,-2.378064,4.291186,55.500004,-172.5,-21.300001,,,,,x,
1272597,4.344312,6.1853967,-1.2285857,0.94512796,-0.87653,2.042696,62.7,-170.1,-24.300001,,,,,x,
1272617,4.7247314,6.3738117,-1.640108,2.09605,-0.746956,1.707328,48.300003,-189.3,-15.3,,,,,x,
1272639,4.9107537,7.4450855,-1.5784993,1.768304,-1.463424,1.532022,67.5,-184.5,-23.7,,,,,x,
1272659,5.8001924,8.945827,-1.677791,1.684462,-0.640248,1.440558,62.7,-162.90001,-17.1,,,,,x,
1272679,4.7510495,8.933266,-2.1784368,0.045732,0.967994,-1.8978779,53.100002,-172.5,-24.300001,,,,,,
1272702,3.614578,7.30512,-2.8232348,0.830798,2.568614,-4.260698,48.300003,-172.5,-20.1,,,,,,
1272722,3.184513,7.90745,-3.7473657,2.62959,0.853664,-1.737816,60.300003,-174.90001,-17.1,,,,,,
1272742,3.0301924,9.816723,-3.4291537,1.471046,-0.365856,-0.388722,55.500004,-170.1,-21.900002,,,,,,
1272762,2.8471606,9.251477,-3.5069122,0.525918,0.518296,-2.09605,60.300003,-165.3,-23.1,,,,,,
1272782,2.6623344,9.217383,-3.4524813,1.501534,0.426832,-2.416174,57.9,-160.5,-27.900002,,,,,,
1272806,2.321991,9.237122,-3.7922266,1.3643379,0.617382,-2.347576,57.9,-172.5,-13.500001,,,,,,
1272889,1.4247766,9.067847,-3.2814124,-0.34298998,2.2332458,-2.065562,72.3,-179.70001,-11.1,,,,,,
1272909,1.1956878,9.00923,-3.292777,-0.41921,1.699706,-1.814036,69.9,-150.90001,-26.7,,,,,,
1272929,0.958225,8.482265,-2.9919112,-0.449698,1.18141,-1.974098,69.9,-165.3,-15.3,,,,,,
1272971,1.159201,8.830384,-2.6880546,0.015244,0.41158798,-0.480186,77.100006,-165.3,-18.300001,,,,,,
1273051,0.6406111,8.402114,-2.941069,0.884152,-1.288118,0.022866,74.700005,-170.1,-14.1,,,,,,
1273091,1.4110193,9.584643,-2.9596114,-0.28201398,-1.021348,-0.144818,69.9,-172.5,-15.900001,,,,,,
1273110,1.9714792,9.808349,-3.099577,-0.198172,-0.7622,-0.15244,79.5,-170.1,-20.1,,,,,,
1273152,2.0797431,9.278992,-2.8148608,-0.7622,0.69360197,-1.1204339,86.700005,-172.5,-11.700001,,,,,x,
1273172,1.7501663,8.517556,-2.552874,-0.53354,1.074702,-0.99086,72.3,-162.90001,-12.900001,,,,,x,
1273270,0.9019996,8.586343,-2.7538502,-0.655492,0.625004,-1.265252,74.700005,-172.5,-14.700001,,,,,x,
1273314,1.4110193,9.204823,-2.7849536,-0.70122397,0.68597996,-0.55640596,81.9,-165.3,-14.1,,,,,x,
1273354,1.3308681,8.725112,-2.761028,-0.17530599,0.510674,-0.830798,79.5,-160.5,-13.500001,,,,,x,
1273394,1.2507169,8.999061,-2.7682056,-0.099086,0.746956,-0.754578,72.3,-162.90001,-12.900001,,,,,x,
1273414,0.7805766,8.973341,-2.8298144,0.22865999,0.64787,-0.632626,79.5,-160.5,-14.1,,,,,x,
1273454,0.5796005,9.426135,-2.192194,0.144818,-1.227142,-0.23628199,91.5,-172.5,-9.900001,,,,,x,
1273474,0.4246815,8.92848,-1.7226517,-0.221038,-1.9054999,0.144818,77.100006,-167.70001,-19.5,,,,,x,
1273494,0.57601166,9.146204,-1.0940034,-0.541162,-3.612828,0.93750596,79.5,-170.1,-12.900001,,,,,x,
1273536,-0.7434917,6.7632027,-0.5568711,-1.760682,-5.495462,0.388722,74.700005,-162.90001,-16.5,,,,,x,
1273592,0.2757439,5.9880095,-0.085534446,0.19055,-12.69063,2.01983,79.5,-165.3,-20.7,,,,,x,
1273631,0.9731786,3.9920063,0.4815051,-0.60976,-15.907114,2.652456,96.3,-165.3,-15.3,,,,,x,
1273651,1.2519132,3.6678126,0.6872663,-0.47256398,-16.15864,2.980202,74.700005,-167.70001,-17.7,,,,,x,
1273694,1.418197,3.8329,0.11544159,0.198172,-15.099182,3.650938,69.9,-172.5,-27.300001,,,,,x,
1273734,2.3453186,2.782561,-1.2901944,-0.92226195,-11.562573,0.480186,84.3,-170.1,-24.900002,,,,,x,
1273754,2.5283504,3.4841828,-2.2573917,-0.20579399,-9.283596,0.20579399,72.3,-160.5,-22.5,,,,,x,
1273778,3.0678754,5.0226064,-3.2784216,1.71495,-4.634176,1.18141,79.5,-165.3,-21.900002,,,,,x,
1273818,1.3649622,4.1218033,-5.6016088,0.95274997,0.30488,-6.204308,60.300003,-167.70001,-21.900002,,,,,x,
1273838,2.368048,6.877448,-6.75124,3.986306,-0.55640596,0.243904,81.9,-160.5,-20.7,,,,,x,
1273878,2.488873,9.71145,-5.7212377,-1.6463519,3.361302,-6.486322,81.9,-170.1,-26.7,,,,,x,
1273901,0.7016217,7.142425,-7.53062,3.597584,7.77444,-9.542744,91.5,-165.3,-17.1,,,,,x,
1273921,1.0682833,9.817919,-7.0891905,1.6387299,7.27901,-6.112844,89.100006,-160.5,-23.1,,,,,x,
1273941,0.6124984,11.257648,-6.596919,1.692084,9.512256,-8.437553,98.700005,-172.5,-25.500002,,,,,x,
1274003,-1.4696373,15.580428,-9.645654,2.812518,19.405611,-4.298808,127.50001,-153.3,-17.1,,,,,x,
1274111,-1.3691492,13.530592,-10.078709,3.35368,17.972675,-7.58389,134.70001,-134.1,-10.5,,,,,x,
1274174,-2.208942,14.543846,-9.140223,-3.1859958,7.9040136,-7.2409,132.3,-134.1,-5.7000003,,,,,x,
1274216,-2.4948545,14.271093,-13.11907,4.0167937,11.859832,-2.980202,139.5,-129.3,-0.3,,,,,x,
1274286,-4.121205,14.423619,-7.003058,-7.3476076,-3.879598,-1.6539739,144.3,-136.5,-7.5000005,,,,,x,
1274306,-4.947839,13.044302,-5.8755584,-6.70736,1.6387299,-1.478668,153.90001,-124.50001,-3.3000002,,,,,x,
1274350,-5.454466,11.268415,-3.2215981,-6.02138,-7.759196,-0.060976,163.5,-129.3,-6.3,,,,,x,
1274372,-4.6080933,10.685824,0.124413736,-6.4634557,-5.663146,2.332332,151.5,-143.70001,-9.3,,,,,x,
1274392,-5.2786117,8.388955,-0.5078234,-7.134192,3.01069,1.265252,141.90001,-138.90001,-7.5000005,,,,,x,
1274412,-4.71217,8.285477,-1.7788771,-6.181442,1.1204339,2.7210538,149.1,-134.1,-11.700001,,,,,x,
1274496,-1.2973721,5.885727,0.40554094,-2.835384,-4.550334,5.5488157,137.1,-148.5,-11.700001,,,,,x,
1274551,-0.11005831,4.025502,0.631639,-1.8750119,-4.4969797,3.7271578,122.700005,-158.1,-16.5,,,,,x,
1274646,1.3817103,3.9208272,-0.16748004,3.041178,-5.693634,-0.11432999,120.3,-141.3,-16.5,,,,,x,
1274669,2.6868582,5.513084,-0.1447506,2.835384,-4.794238,0.41921,129.90001,-155.70001,-22.5,,,,,x,
1274709,3.116923,5.2433214,-0.77758586,1.577754,-1.547266,-0.426832,132.3,-146.1,-17.7,,,,,x,
1274732,3.6050076,6.3558674,-1.1556122,2.164648,-1.318606,1.783548,129.90001,-153.3,-14.1,,,,,x,
1274772,3.3627598,7.6239305,-1.9840403,0.602138,0.068598,1.684462,139.5,-160.5,-19.5,,,,,x,
1274792,3.1348674,7.7836347,-2.1395574,0.983238,-0.396344,2.332332,120.3,-158.1,-17.1,,,,,x,
1274812,2.7646167,9.878331,-3.1187174,0.785066,1.539644,3.452766,122.700005,-153.3,-16.5,,,,,x,
1274852,2.07436,9.701879,-4.433436,0.40396598,-1.242386,0.297258,110.700005,-150.90001,-14.1,,,,,,
1274890,-0.4246815,9.008033,-5.107543,0.289636,2.919226,-2.09605,115.50001,-148.5,-12.3,,,,,,
1274911,-0.22609805,8.179007,-5.6249366,1.150922,-0.87653,-1.3948259,120.3,-146.1,-21.900002,,,,,x,
1274951,0.45578495,9.65642,-3.3543859,-0.579272,-0.28201398,0.60976,117.9,-148.5,-21.300001,,,,,x,
1274971,0.34991363,8.868068,-3.657046,-0.94512796,0.625004,-1.051836,113.100006,-141.3,-18.900002,,,,,x,
1274991,-0.18781689,8.116202,-3.1492229,-0.16768399,0.373478,-1.432936,115.50001,-162.90001,-16.5,,,,,x,
1275011,-0.043066293,8.620437,-3.2180092,-0.022866,1.928366,-0.663114,122.700005,-160.5,-18.900002,,,,,x,
1275031,-0.0891233,9.036146,-3.5870633,0.297258,2.035074,-0.899396,113.100006,-136.5,-17.1,,,,,x,
1275071,-0.5957504,8.909938,-3.7880394,0.541162,1.227142,-0.045732,125.100006,-160.5,-14.700001,,,,,x,
1275093,-0.40972793,8.506191,-3.2347572,0.625004,-0.015244,0.274392,120.3,-158.1,-10.5,,,,,x,
1275113,-0.037084863,9.168934,-2.9805465,0.20579399,0.830798,0.975616,110.700005,-141.3,-9.900001,,,,,x,
1275133,-0.117236026,9.280189,-3.6576443,-0.579272,2.2789779,0.144818,122.700005,-155.70001,-11.700001,,,,,x,
1275153,-0.12620817,9.071436,-3.701907,-0.510674,1.9054999,-0.07622,129.90001,-150.90001,-16.5,,,,,x,
1275173,-0.13817103,8.423648,-3.3286657,0.068598,0.80793196,-0.030488,122.700005,-155.70001,-10.5,,,,,x,
1275197,0.066992015,9.124671,-3.091203,0.091464,0.716468,0.602138,117.9,-162.90001,-14.1,,,,,x,
1275217,0.20576118,9.292749,-2.9937055,-0.213416,0.640248,-0.060976,125.100006,-153.3,-13.500001,,,,,x,
1275277,0.07716044,8.780141,-2.8645067,-0.23628199,0.777444,-0.045732,117.9,-153.3,-13.500001,,,,,x,
1275315,-0.24583676,9.439294,-3.4321444,-0.64787,1.1432999,-0.777444,113.100006,-146.1,-15.900001,,,,,x,
1275356,-0.32120278,8.806459,-2.9219284,-0.40396598,0.144818,-0.67073596,122.700005,-160.5,-8.700001,,,,,x,
1275431,-0.39178365,8.428432,-1.5360311,-0.55640596,-2.89636,0.015244,115.50001,-158.1,-12.900001,,,,,x,
1275451,-0.5305528,7.9965734,-1.1095552,-0.7622,-2.980202,0.182928,115.50001,-155.70001,-18.300001,,,,,x,
1275494,0.3104362,7.4498706,-0.23865904,-0.28201398,-4.809482,0.632626,113.100006,-153.3,-13.500001,,,,,x,
1275571,-0.17645217,5.927597,0.56225437,-0.03811,-7.743952,1.509156,132.3,-148.5,-18.300001,,,,,x,
1275631,-0.47731808,4.082326,0.36367092,-1.29574,-11.326292,0.830798,122.700005,-160.5,-18.300001,,,,,x,
1275666,-1.0557224,2.5098078,-0.33854893,-1.745438,-9.893355,0.708846,120.3,-158.1,-28.500002,,,,,x,
1275686,-0.76801556,3.3412266,-1.5737141,0.442076,-8.277492,1.196654,117.9,-158.1,-17.7,,,,,x,
1275730,0.31223062,5.789426,-3.8879292,1.806414,-6.920776,-0.87653,113.100006,-150.90001,-17.7,,,,,x,
1275750,0.95463616,6.564021,-5.4245586,2.317088,-3.597584,-0.106708,113.100006,-150.90001,-24.300001,,,,,x,
1275772,1.2453337,6.3235674,-6.6352,1.745438,-3.2927039,-1.974098,113.100006,-155.70001,-31.500002,,,,,x,
1275792,1.6060139,6.348091,-6.656733,1.440558,-3.7728899,-1.6006199,122.700005,-150.90001,-21.900002,,,,,x,
1275875,1.8099806,10.573373,-8.173025,1.3490939,4.009172,-3.361302,122.700005,-148.5,-14.700001,,,,,x,
1275931,0.5191881,11.701471,-8.412283,0.983238,9.45128,-5.777476,146.70001,-143.70001,-17.7,,,,,x,
1275969,-0.39597064,12.035832,-10.765975,2.13416,13.437586,-6.722604,151.5,-129.3,-15.900001,,,,,x,
1275989,-1.2710538,10.773751,-10.653524,0.17530599,8.3842,-7.370474,158.70001,-146.1,-22.5,,,,,x,
1276032,-0.719566,15.513436,-11.609357,0.64787,9.5275,-4.009172,156.3,-122.100006,-14.700001,,,,,x,
1276074,-5.437718,13.198623,-8.203531,-2.469528,6.227174,-7.1113257,173.1,-126.9,-13.500001,,,,,x,
1276150,-5.6955175,14.862059,-9.518847,-2.2637339,7.881148,-2.332332,182.70001,-114.9,-6.3,,,,,x,
1276170,-6.464131,14.787889,-5.8749604,-6.3719916,-1.211898,-3.650938,173.1,-119.700005,-11.1,,,,,x,
1276212,-6.3020344,13.432497,-6.473103,-3.635694,9.862867,-1.02897,177.90001,-112.50001,-12.3,,,,,x,
1276254,-6.459346,12.692594,-2.0360787,-3.475632,6.036624,1.509156,182.70001,-122.100006,-4.5,,,,,x,
1276274,-6.406709,13.278774,-3.9985857,-3.3155699,10.160126,1.806414,187.5,-117.3,-9.3,,,,,x,
1276315,-5.7595186,10.434604,-0.9983006,-3.993928,3.0488,2.530504,182.70001,-129.3,-10.5,,,,,x,
1276335,-5.27263,10.734872,-2.0606024,-4.009172,7.3780956,4.245454,173.1,-126.9,-9.900001,,,,,x,
1276357,-4.7253294,9.705468,-2.3154113,-2.82014,1.318606,3.155508,168.3,-138.90001,-9.3,,,,,x,
1276377,-3.8412743,7.9678626,-1.3613734,-2.614346,-0.396344,3.2012398,161.1,-131.70001,-8.1,,,,,x,
1276439,-2.5869684,6.0472255,-0.93190676,-2.7896519,-4.26832,2.82014,146.70001,-131.70001,-8.700001,,,,,x,
1276459,-1.9888253,5.9880095,-0.24045348,-2.583858,-5.114362,5.312534,139.5,-143.70001,-15.3,,,,,x,
1276479,-1.7555497,6.2523885,-0.5556748,-2.942092,-3.018312,6.112844,151.5,-138.90001,-16.5,,,,,x,
1276521,-0.80510044,5.492747,-0.8780739,-1.3414719,-5.5945477,4.207344,134.70001,-150.90001,-17.7,,,,,x,
1276541,-0.04067372,4.945446,-0.4312611,-1.06708,-6.8521776,3.841488,137.1,-153.3,-18.900002,,,,,x,
1276561,-0.48808467,3.6929348,-0.2841179,-1.41007,-5.899428,2.7667859,137.1,-153.3,-21.300001,,,,,x,
1276583,-0.3074455,2.9093673,-0.65795726,-0.708846,-5.975648,3.46801,132.3,-150.90001,-16.5,,,,,x,
1276643,2.029499,4.7432737,-0.79134315,0.144818,-4.657042,4.207344,117.9,-155.70001,-23.7,,,,,x,
1276689,3.383695,6.6352,-1.0916109,0.83842,-3.650938,2.987824,113.100006,-167.70001,-18.300001,,,,,x,
1276709,3.6803737,6.9635806,-1.1286958,0.243904,-2.500016,0.69360197,115.50001,-155.70001,-24.300001,,,,,x,
1276752,3.3699374,7.8721595,-1.8757764,0.594516,-0.93750596,0.69360197,115.50001,-162.90001,-10.5,,,,,x,
1276792,1.7286332,8.682045,-3.191691,0.213416,1.821658,-0.602138,115.50001,-155.70001,-15.900001,,,,,x,
1276812,0.82364285,8.024088,-3.8293114,0.518296,2.2332458,-1.547266,115.50001,-160.5,-18.900002,,,,,,
1276836,1.2399504,9.653429,-4.544092,2.2561119,-0.426832,0.83842,122.700005,-162.90001,-20.7,,,,,,
1276856,1.121518,9.969249,-3.3783114,1.211898,-1.768304,0.312502,113.100006,-153.3,-16.5,,,,,,
1276920,0.5072252,9.462622,-4.004567,1.1051899,0.365856,-0.35061198,113.100006,-162.90001,-14.1,,,,,,
1276940,0.6172835,10.215684,-3.7198513,0.80793196,-0.45731997,-0.525918,122.700005,-160.5,-15.900001,,,,,,
1276960,0.3493155,8.978126,-3.4524813,-0.792688,0.33536798,-1.8292799,115.50001,-160.5,-16.5,,,,,,
1276983,0.2895012,9.164148,-3.3723302,-0.099086,0.769822,-0.754578,120.3,-141.3,-11.700001,,,,,,
1277005,0.09031959,9.198242,-3.3274693,-0.57164997,1.288118,-1.158544,115.50001,-153.3,-12.3,,,,,,
1277025,-0.15551718,8.634193,-3.3603673,-0.716468,1.013726,-1.326228,110.700005,-167.70001,-17.7,,,,,,
1277045,-0.35410064,8.144913,-2.999687,-0.41921,0.60976,-0.617382,113.100006,-146.1,-13.500001,,,,,,
1277069,-0.07117901,9.055884,-3.0612957,-0.137196,0.80793196,0.17530599,117.9,-160.5,-20.1,,,,,,
1277090,0.2895012,9.063063,-2.982939,-0.083841994,0.373478,-0.121952,117.9,-158.1,-17.1,,,,,,
1277153,0.27095875,8.851319,-3.0738568,0.099086,1.196654,0.358234,120.3,-162.90001,-13.500001,,,,,,
1277173,0.19738717,8.711952,-3.1396525,0.19055,0.72409,0.358234,120.3,-155.70001,-14.700001,,,,,,
1277193,0.20635933,8.880629,-2.9470503,0.327746,-0.091464,0.41921,127.50001,-148.5,-14.1,,,,,,
1277213,0.30385664,9.584643,-3.0606976,0.198172,0.106708,0.434454,110.700005,-158.1,-12.3,,,,,,
1277277,0.18123733,8.539089,-3.1707559,-0.480186,0.259148,0.182928,113.100006,-153.3,-16.5,,,,,,
1277351,0.1501339,8.822609,-2.9171433,0.015244,0.40396598,0.586894,110.700005,-153.3,-17.1,,,,,,
1277371,0.09091773,9.132447,-3.0301924,0.20579399,0.510674,0.967994,120.3,-160.5,-15.900001,,,,,,
1277411,-0.32778236,9.4859495,-2.3166077,-0.327746,-0.525918,0.480186,113.100006,-167.70001,-18.900002,,,,,x,
1277434,-0.37922263,9.370508,-1.8207473,-0.785066,-1.227142,1.021348,113.100006,-160.5,-14.1,,,,,x,
1277454,-0.849363,9.053492,-1.000095,-1.3643379,-1.8826339,1.3490939,108.3,-158.1,-12.3,,,,,x,
1277495,-0.64898515,9.308899,-0.8092874,-2.17227,-3.056422,1.722572,105.9,-160.5,-11.700001,,,,,x,
1277531,-1.4738243,7.6006026,-0.59694666,-2.660078,-7.5610237,4.0167937,103.50001,-158.1,-17.1,,,,,x,
1277552,-1.1867156,7.384673,-0.70700496,-3.094532,-10.243968,3.628072,93.9,-153.3,-26.7,,,,,x,
1277596,0.51978624,5.053112,0.13936731,-1.6463519,-17.03517,1.265252,93.9,-165.3,-19.5,,,,,x,
1277646,1.2441374,1.8949169,0.93370116,-2.111294,-14.740948,0.17530599,89.100006,-162.90001,-29.1,,,,,x,
1277669,1.7340164,1.5007408,0.32538977,-1.1204339,-12.896423,0.083841994,110.700005,-162.90001,-24.300001,,,,,x,
1277711,3.0379682,3.966286,-1.4152063,2.301844,-9.07018,-0.007622,115.50001,-170.1,-26.7,,,,,x,
1277731,2.9859297,4.495044,-2.4966488,1.3643379,-5.853696,-1.8445239,93.9,-186.90001,-26.1,,,,,x,
1277751,2.6037164,4.6834593,-3.861013,1.570132,-0.830798,-3.109776,98.700005,-153.3,-26.1,,,,,x,
1277771,3.672598,6.201546,-5.559739,2.469528,-0.053354,-3.2241058,98.700005,-160.5,-24.900002,,,,,x,
1277791,3.155204,5.8540254,-4.9813347,0.769822,-1.425314,-5.37351,108.3,-162.90001,-29.7,,,,,x,
1277812,2.2705507,5.861203,-5.1398425,1.814036,1.98172,-6.547298,115.50001,-158.1,-26.7,,,,,x,
1277872,0.8756813,10.980709,-9.143811,0.594516,11.318669,-10.266833,120.3,-155.70001,-27.900002,,,,,x,
1277894,-1.2279875,6.6543407,-8.461928,1.699706,7.759196,-14.02448,149.1,-143.70001,-19.5,,,,,x,
1277915,-0.8439797,10.383762,-8.62582,2.942092,8.498529,-4.824726,144.3,-141.3,-20.1,,,,,x,
1277935,-0.45638308,16.118158,-8.7520275,-0.70122397,12.507702,-4.199722,151.5,-141.3,-20.7,,,,,x,
1278041,-3.8293114,10.25875,-9.454247,-0.083841994,11.28056,-11.417756,185.1,-117.3,-15.900001,,,,,x,
1278071,-4.4992313,15.189242,-10.942428,0.975616,14.2226515,3.2393498,185.1,-119.700005,-6.9,,,,,x,
1278091,-2.1192205,19.59935,-10.568588,-4.603688,8.978716,-0.053354,175.5,-126.9,-12.900001,,,,,x,
1278132,-7.1190977,10.934053,-8.1796055,0.82317597,13.52905,-4.5579557,180.3,-122.100006,-12.900001,,,,,x,
1278152,-4.3311534,16.693573,-10.278489,-0.663114,12.141846,1.8978779,168.3,-119.700005,-12.900001,,,,,x,
1278172,-3.9028828,17.127825,-7.484563,-4.824726,1.8902559,-2.7820299,182.70001,-126.9,-9.3,,,,,x,
1278192,-6.6920238,12.739847,-5.577085,-3.071666,10.274456,-5.274424,180.3,-114.9,-8.1,,,,,x,
1278236,-6.093282,13.434889,-7.123883,-4.0625257,4.908568,-1.8826339,177.90001,-112.50001,-3.3000002,,,,,x,
1278313,-5.974252,10.189963,-2.902788,-4.672286,-1.173788,0.548784,175.5,-105.3,-6.3,,,,,x,
1278333,-6.462935,10.880818,-1.2644743,-5.03052,0.91463995,3.650938,158.70001,-136.5,-8.1,,,,,x,
1278353,-6.2386312,10.852108,-3.0439496,-5.266802,4.085392,3.1859958,177.90001,-136.5,-9.900001,,,,,x,
1278418,-4.2282724,9.107923,-1.0700778,-4.1921,-1.463424,8.696702,163.5,-143.70001,-15.3,,,,,x,
1278438,-3.2144203,9.57268,-0.7458843,-4.626554,-3.513742,7.92688,149.1,-150.90001,-11.1,,,,,x,
1278481,-1.8680005,6.288277,-0.8152689,-4.146368,-5.556438,2.32471,137.1,-141.3,-7.5000005,,,,,x,
1278501,-1.5306479,3.9214253,0.42408335,-1.958854,-9.37506,2.2865999,146.70001,-143.70001,-14.1,,,,,x,
1278523,-0.681883,4.4788947,1.0383762,-1.1280559,-8.910118,6.196686,134.70001,-153.3,-17.7,,,,,x,
1278543,0.026318291,5.7457614,0.3911855,-1.661596,-7.3323636,6.93602,129.90001,-155.70001,-20.7,,,,,x,
1278563,0.21054633,5.53043,-0.06878644,-0.891774,-7.50767,5.266802,125.100006,-162.90001,-16.5,,,,,x,
1278583,0.5305528,4.9065666,0.111254595,0.35061198,-8.68908,4.176856,113.100006,-162.90001,-24.900002,,,,,x,
1278603,0.9785619,4.5494757,0.34632477,1.059458,-8.795788,3.39179,120.3,-162.90001,-21.300001,,,,,x,
1278623,0.8589333,3.1025677,0.062206868,0.708846,-7.294254,1.783548,122.700005,-165.3,-18.300001,,,,,x,
1278643,1.9762644,3.268253,-0.74229544,2.13416,-6.8979096,3.8186219,117.9,-146.1,-20.7,,,,,x,
1278665,2.6216607,5.2158065,-0.52457136,1.661596,-6.265284,4.8857017,108.3,-153.3,-17.1,,,,,x,
1278725,3.3352451,5.845053,-1.6891557,2.13416,-3.056422,2.62959,98.700005,-165.3,-23.7,,,,,x,
1278786,3.706692,8.366824,-2.7514577,1.8597679,-2.85825,2.149404,98.700005,-172.5,-19.5,,,,,,
1278806,3.3244786,8.753822,-3.1241007,0.792688,0.327746,0.625004,105.9,-155.70001,-11.1,,,,,,
1278826,2.338739,8.7933,-4.261769,1.1128119,2.2332458,-1.173788,103.50001,-165.3,-23.7,,,,,,
1278848,2.2890933,7.792607,-4.8288083,1.532022,0.708846,-1.722572,103.50001,-160.5,-17.7,,,,,,
1278869,1.8727857,8.776552,-4.094887,1.730194,-1.6234859,0.221038,96.3,-165.3,-17.1,,,,,,
1278909,1.2507169,9.832872,-4.9322867,0.81555396,0.907018,-2.126538,98.700005,-167.70001,-16.5,,,,,,
1278929,1.1526215,8.9356575,-3.982436,-0.373478,-0.3811,-2.55337,96.3,-158.1,-14.700001,,,,,,
1278969,0.7339214,8.673671,-4.207338,-0.92226195,1.768304,-1.1204339,96.3,-155.70001,-17.7,,,,,,
1278989,0.8511574,9.313684,-3.9979875,-0.617382,1.242386,-0.47256398,108.3,-153.3,-16.5,,,,,,
1279009,0.68367743,9.182691,-3.4303498,-1.272874,0.70122397,-0.82317597,117.9,-155.70001,-23.1,,,,,,
1279029,0.73451954,8.991883,-2.9446578,-1.501534,0.960372,-0.754578,101.100006,-155.70001,-14.1,,,,,,
1279049,0.2781365,8.808851,-2.765215,-1.501534,2.004586,-1.089946,110.700005,-160.5,-21.900002,,,,,,
1279072,-0.105871305,8.748439,-3.3322544,-0.602138,1.8826339,-0.70122397,101.100006,-167.70001,-15.900001,,,,,,
1279092,0.31522134,8.919508,-2.7245412,-0.289636,0.602138,-0.007622,98.700005,-162.90001,-17.7,,,,,,
1279154,0.63522786,8.823805,-2.782561,-0.82317597,1.585376,-0.083841994,108.3,-136.5,-9.3,,,,,,
1279210,0.65616286,8.934462,-2.5474908,-0.541162,1.02897,-0.34298998,115.50001,-158.1,-14.700001,,,,,,
1279230,0.7835673,9.344788,-2.6760917,-0.87653,1.074702,-0.480186,101.100006,-165.3,-24.300001,,,,,,
1279270,0.49586052,9.026576,-2.8040943,-0.518296,0.632626,-0.846042,113.100006,-165.3,-17.7,,,,,,
1279290,0.54072124,8.554043,-2.6802785,-0.099086,0.55640596,-1.265252,108.3,-148.5,-9.900001,,,,,,
1279310,0.5161974,9.153382,-2.844768,0.182928,1.158544,-0.72409,113.100006,-158.1,-10.5,,,,,,
1279330,0.34871736,9.374097,-3.0953898,0.106708,1.4024479,-1.288118,103.50001,-160.5,-14.1,,,,,,
1279393,-0.2506219,9.137232,-2.7628224,0.045732,0.853664,-0.388722,108.3,-155.70001,-14.1,,,,,x,
1279413,-0.36546534,9.736571,-2.7717946,-0.327746,0.81555396,0.243904,101.100006,-177.3,-18.300001,,,,,x,
1279433,-0.5024401,10.080503,-2.6073053,-0.579272,0.7622,0.739334,101.100006,-155.70001,-16.5,,,,,x,
1279453,-0.5658432,10.754611,-2.6587455,-0.967994,0.602138,1.478668,108.3,-165.3,-15.3,,,,,x,
1279474,-1.0072727,10.253965,-2.2837098,-1.951232,-0.091464,1.3719599,103.50001,-150.90001,-12.900001,,,,,x,
1279494,-1.3685511,9.130652,-2.029499,-3.170752,-0.449698,1.71495,93.9,-158.1,-21.300001,,,,,x,
1279514,-2.0396676,8.265738,-2.0486398,-3.414656,-1.814036,2.7896519,105.9,-160.5,-17.7,,,,,x,
1279537,-1.7423905,8.336319,-1.6957353,-2.93447,-4.72564,4.009172,103.50001,-160.5,-17.7,,,,,x,
1279557,-0.6406111,7.8883095,-0.6262557,-3.330814,-8.734812,4.15399,91.5,-160.5,-16.5,,,,,x,
1279581,-0.1280026,6.209322,0.39656878,-2.89636,-11.006167,3.574718,101.100006,-153.3,-24.900002,,,,,x,
1279642,1.7358109,4.602112,1.1526215,-3.2241058,-13.445208,2.89636,91.5,-160.5,-29.7,,,,,x,
1279690,2.5708184,4.029091,1.1280977,0.26677,-13.2317915,2.484772,74.700005,-160.5,-28.500002,,,,,x,
1279711,2.7807667,4.455567,0.33496007,-0.15244,-10.990924,0.251526,81.9,-172.5,-29.7,,,,,x,
1279751,2.2238955,2.5409114,-0.031103434,1.6082419,-9.550365,-1.707328,79.5,-153.3,-29.7,,,,,x,
1279791,2.539715,6.2990437,-2.5839777,1.41007,-1.051836,-0.731712,91.5,-179.70001,-30.900002,,,,,x,
1279811,1.3984582,4.280909,-3.2616737,3.018312,0.602138,-5.52595,72.3,-160.5,-21.300001,,,,,x,
1279835,1.380514,3.1575968,-4.7438717,7.416206,3.132642,-5.29729,93.9,-165.3,-18.300001,,,,,x,
1279855,3.3466098,7.0048523,-6.4318314,6.471078,1.059458,-0.617382,86.700005,-158.1,-26.1,,,,,x,
1279876,3.7473657,7.6538377,-6.116012,5.190582,0.67073596,-1.98172,108.3,-162.90001,-24.300001,,,,,x,
1279896,3.4106112,8.330338,-6.1560874,5.647902,5.350644,-5.5335717,93.9,-162.90001,-19.5,,,,,x,
1279917,2.7006154,9.335217,-8.173025,7.0808377,12.7363615,-7.0655937,105.9,-148.5,-21.900002,,,,,x,
1279937,0.8362039,8.408694,-9.902855,5.800342,14.352225,-10.259212,103.50001,-158.1,-19.5,,,,,x,
1279957,0.91755134,8.915919,-10.504587,5.312534,9.07018,-8.163162,115.50001,-141.3,-23.7,,,,,x,
1279977,0.8936256,10.170225,-9.344788,2.583858,6.646384,-6.775958,127.50001,-155.70001,-18.300001,,,,,x,
1280000,-0.12022674,12.65192,-10.230638,2.7439198,11.920808,-6.44059,125.100006,-143.70001,-15.900001,,,,,x,
1280040,-0.59275967,9.893883,-10.086485,1.074702,8.1555395,-8.140296,125.100006,-138.90001,-6.3,,,,,x,
1280060,-1.229782,12.513151,-9.47937,0.007622,10.21348,-4.679908,141.90001,-138.90001,-8.1,,,,,x,
1280080,-0.77938026,15.04509,-10.870052,2.385686,14.908631,-4.5274677,141.90001,-138.90001,-7.5000005,,,,,x,
1280102,-0.30445477,15.881294,-11.546552,-0.960372,9.657074,-8.140296,137.1,-138.90001,-6.3,,,,,x,
1280122,-3.7013087,11.982,-9.066651,-4.504602,6.295772,-12.561056,149.1,-122.100006,-8.1,,,,,x,
1280142,-3.3496006,13.029348,-9.15099,-1.265252,9.131156,-3.7500238,151.5,-134.1,-4.5,,,,,x,
1280162,-2.7508595,15.961445,-8.978126,-4.314052,11.341536,-2.2256238,151.5,-126.9,-8.1,,,,,x,
1280182,-4.919726,14.412853,-8.999061,-1.280496,13.64338,-5.18296,156.3,-122.100006,-4.5,,,,,x,
1280202,-3.0935955,15.881892,-10.147495,-0.792688,11.524464,-1.585376,151.5,-124.50001,-2.1000001,,,,,x,
1280222,-3.5511749,16.352032,-8.980518,-4.53509,7.400962,-3.536608,144.3,-131.70001,-2.7,,,,,x,
1280242,-4.6499634,14.206493,-8.391946,-2.576236,6.311016,-5.175338,151.5,-122.100006,5.1000004,,,,,x,
1280266,-3.112736,14.719102,-5.927597,-6.5091877,2.050318,-1.67684,163.5,-122.100006,0.3,,,,,x,
1280286,-3.862209,14.833945,-4.490259,-5.29729,8.140296,-2.393308,163.5,-119.700005,-6.9,,,,,x,
1280306,-5.4490824,13.041311,-6.877448,-2.2789779,15.869003,-3.2545938,149.1,-136.5,-2.7,,,,,x,
1280326,-4.2868905,12.419841,-7.9732456,-2.2713559,7.972612,-0.373478,141.90001,-117.3,-3.3000002,,,,,x,
1280346,-4.825219,12.245183,-5.120702,-5.251558,-0.17530599,-0.144818,156.3,-124.50001,2.7,,,,,x,
1280366,-4.8682857,11.193647,-4.0386615,-3.4299,2.2942219,0.602138,156.3,-124.50001,-3.9,,,,,x,
1280386,-4.103859,11.164338,-4.572803,-4.375028,3.559474,2.157026,149.1,-124.50001,-7.5000005,,,,,x,
1280406,-3.542801,10.741451,-3.9315937,-5.6097918,0.69360197,1.996964,144.3,-126.9,-12.3,,,,,x,
1280426,-3.8897238,8.869264,-2.7963183,-5.3963757,-1.455802,0.327746,156.3,-138.90001,-9.900001,,,,,x,
1280509,-2.752056,5.434727,-1.2058562,-3.3079479,-2.2561119,1.463424,141.90001,-148.5,-6.9,,,,,x,
1280588,-0.30864176,5.6751804,-0.60890955,-3.132642,-3.6966698,5.5335717,134.70001,-146.1,-14.1,,,,,x,
1280608,-0.49167353,4.611084,-0.26916432,-2.89636,-5.29729,3.902464,117.9,-153.3,-16.5,,,,,x,
1280648,0.56883395,4.6870484,-0.016748004,-1.768304,-6.562542,6.661628,115.50001,-153.3,-15.900001,,,,,x,
1280668,0.635826,5.529832,-0.3295768,-1.8369019,-6.1204658,6.272906,115.50001,-160.5,-15.900001,,,,,x,
1280691,0.14175989,4.5171757,-0.24703304,-2.012208,-6.890288,4.108258,98.700005,-160.5,-19.5,,,,,x,
1280712,0.7291363,3.9716694,-0.18063918,-0.94512796,-8.208894,4.748506,96.3,-160.5,-16.5,,,,,x,
1280732,1.3912805,4.7719846,0.14714317,-0.106708,-8.605238,6.455834,105.9,-174.90001,-17.7,,,,,x,
1280773,2.317206,6.719538,-0.14175989,0.35061198,-7.690598,5.60217,86.700005,-160.5,-20.7,,,,,x,
1280793,2.920732,7.0867977,-0.6824811,0.121952,-7.118948,5.091496,81.9,-179.70001,-15.3,,,,,x,
1280813,3.0283978,7.023993,-1.0270115,0.312502,-6.0290017,3.46801,67.5,-170.1,-22.5,,,,,,
1280833,3.706692,8.317776,-2.0492377,1.6082419,-4.824726,3.7424018,79.5,-170.1,-16.5,,,,,,
1280853,4.0727553,9.459631,-2.6348197,1.8750119,-4.207344,2.93447,72.3,-167.70001,-21.900002,,,,,,
1280894,3.3573766,7.815336,-3.5290434,1.150922,-2.2027578,-1.463424,65.100006,-174.90001,-20.1,,,,,,
1280914,3.4267612,8.09108,-3.108549,1.234764,-3.109776,0.022866,74.700005,-165.3,-23.7,,,,,,
1280955,2.8962083,9.42434,-3.9046774,0.221038,0.541162,-1.463424,67.5,-170.1,-14.1,,,,,,
1280976,2.400946,8.296842,-3.6761868,0.746956,0.182928,-2.507638,62.7,-170.1,-21.300001,,,,,,
1280996,2.1634831,8.134745,-3.7048976,0.891774,0.251526,-1.089946,77.100006,-167.70001,-24.300001,,,,,,
1281016,2.0025826,8.970948,-3.476407,0.33536798,0.358234,-0.388722,65.100006,-162.90001,-18.900002,,,,,,
1281040,2.0911078,9.088184,-3.5487823,0.106708,0.92226195,-0.975616,69.9,-165.3,-14.1,,,,,,
1281060,2.1844182,9.048109,-3.5087066,-0.007622,1.234764,-1.25763,77.100006,-160.5,-20.7,,,,,,
1281081,1.5390218,8.435611,-3.4124057,-0.792688,1.669218,-0.967994,74.700005,-165.3,-11.700001,,,,,,
1281143,1.577303,9.01222,-3.0654826,-0.099086,1.71495,-0.853664,81.9,-172.5,-16.5,,,,,,
1281190,1.422384,8.662307,-2.8082812,-0.022866,1.3948259,-1.3795819,84.3,-155.70001,-15.900001,,,,,,
1281210,1.1909027,8.759206,-2.7951221,0.213416,1.6234859,-0.746956,77.100006,-160.5,-22.5,,,,,,
1281251,0.5413194,8.178409,-3.0002851,0.068598,1.1280559,-0.94512796,72.3,-162.90001,-9.3,,,,,,
1281271,0.42408335,8.015714,-2.8794603,0.099086,0.70122397,-0.53354,81.9,-160.5,-12.900001,,,,,,
1281291,1.2447355,9.689318,-2.765215,-0.198172,0.487808,0.594516,67.5,-165.3,-11.700001,,,,,,
1281312,1.0987886,9.725206,-3.087614,-0.777444,1.554888,-0.830798,86.700005,-182.1,-16.5,,,,,,
1281333,0.8182596,9.977025,-3.3531895,-0.327746,0.846042,-1.33385,86.700005,-160.5,-15.900001,,,,,x,
1281373,1.510311,10.040428,-2.9362838,0.198172,-0.72409,-0.022866,74.700005,-162.90001,-17.7,,,,,x,
1281395,1.8440747,10.954391,-2.158698,-1.33385,-1.29574,-0.541162,86.700005,-160.5,-25.500002,,,,,x,
1281415,0.73451954,8.619839,-2.22569,-2.157026,0.46494198,-2.660078,79.5,-160.5,-21.900002,,,,,x,
1281435,0.5748154,8.446975,-2.46076,-0.68597996,-0.137196,-1.234764,84.3,-167.70001,-21.900002,,,,,x,
1281455,1.0766573,8.973341,-2.067182,-1.044214,-0.34298998,-0.33536798,91.5,-167.70001,-20.1,,,,,x,
1281475,0.89422375,8.537294,-2.0815375,-0.731712,0.121952,-0.754578,89.100006,-177.3,-18.900002,,,,,x,
1281499,0.9743749,8.5253315,-2.3249817,0.0,0.434454,0.396344,81.9,-158.1,-17.7,,,,,x,
1281541,1.338644,9.045716,-2.8525438,0.274392,0.060976,0.45731997,91.5,-172.5,-15.3,,,,,x,
1281561,1.6305377,9.0217905,-2.9015915,0.068598,-0.083841994,0.625004,84.3,-172.5,-22.5,,,,,x,
1281581,1.4373375,8.418862,-3.0864177,-0.19055,0.640248,0.259148,79.5,-170.1,-16.5,,,,,x,
1281601,1.8004104,8.924891,-3.376517,0.69360197,0.30488,0.716468,86.700005,-167.70001,-14.700001,,,,,x,
1281625,1.7286332,9.260449,-3.313114,0.525918,-0.099086,0.442076,72.3,-167.70001,-18.900002,,,,,x,
1281645,1.6084064,8.864479,-3.2084389,-0.007622,-0.060976,0.274392,69.9,-174.90001,-18.900002,,,,,x,
1281667,1.5258627,9.197046,-2.836394,0.060976,-0.20579399,0.137196,86.700005,-172.5,-16.5,,,,,x,
1281751,-0.08194559,10.487839,-1.7639236,0.55640596,0.137196,0.72409,89.100006,-160.5,-14.700001,,,,,x,
1281790,-1.4738243,9.292151,-0.52277696,-2.065562,-2.317088,-0.57164997,91.5,-160.5,-20.1,,,,,x,
1281810,-2.2962708,7.740568,-0.17047074,-2.6677,-3.170752,0.830798,72.3,-177.3,-18.900002,,,,,x,
1281850,-1.7346146,6.936664,-0.3798208,-2.6677,-8.025966,4.184478,86.700005,-172.5,-21.900002,,,,,x,
1281870,-1.2626798,6.220687,-0.23507018,-2.606724,-10.830862,4.5579557,77.100006,-172.5,-21.900002,,,,,x,
1281931,1.527059,4.186403,1.1400605,-2.964958,-17.096146,3.7271578,69.9,-162.90001,-20.7,,,,,x,
1281973,2.484686,1.8811597,0.7973246,-2.7210538,-15.823272,2.149404,69.9,-153.3,-30.900002,,,,,x,
1281993,3.7539454,1.1603974,0.69504213,-1.29574,-13.864418,1.3490939,62.7,-170.1,-24.300001,,,,,x,
1282013,4.5171757,1.4415245,-0.5586655,0.07622,-9.748538,0.106708,55.500004,-174.90001,-23.7,,,,,x,
1282033,4.9885125,2.1784368,-1.5222739,2.7896519,-8.30798,-1.166166,57.9,-182.1,-25.500002,,,,,x,
1282094,5.306126,5.8582125,-6.547273,4.131124,5.045764,-5.14485,74.700005,-172.5,-18.900002,,,,,x,
1282138,3.1683633,6.6340036,-7.644267,3.2317278,4.283564,-7.614378,79.5,-155.70001,-18.900002,,,,,x,
1282159,3.0971844,8.553445,-7.884721,3.6814258,5.899428,-8.048832,91.5,-160.5,-21.900002,,,,,x,
1282220,-1.0629001,9.130054,-10.130149,7.027484,11.943674,-10.350676,101.100006,-158.1,-21.900002,,,,,x,
1282260,-0.98334706,12.171612,-10.357444,4.489358,4.03966,-2.141782,120.3,-148.5,-11.700001,,,,,x,
1282388,-3.4237704,11.808538,-9.694701,-0.617382,8.300358,-8.361334,139.5,-134.1,-8.700001,,,,,x,
1282451,-2.4966488,17.460392,-9.819714,-0.518296,11.600684,-4.72564,151.5,-124.50001,-2.1000001,,,,,x,
1282491,-3.2580848,13.131033,-8.270523,-2.027452,4.5274677,-3.559474,146.70001,-124.50001,1.5,,,,,x,
1282511,-4.8688836,14.598277,-5.0567007,-5.175338,2.2713559,-3.2774599,149.1,-131.70001,-5.7000003,,,,,x,
1282535,-4.36764,15.421322,-7.8338785,-1.6006199,12.507702,-2.606724,153.90001,-131.70001,-2.7,,,,,x,
1282575,-5.008251,12.885196,-3.627139,-5.304912,1.920744,-0.312502,144.3,-136.5,-5.7000003,,,,,x,
1282598,-4.212721,14.3667965,-4.7271237,-3.856732,7.3933396,1.3872039,144.3,-126.9,-3.9,,,,,x,
1282619,-3.786843,14.422423,-4.178627,-5.9985137,2.7210538,0.480186,144.3,-143.70001,-3.9,,,,,x,
1282639,-4.726526,12.048992,-2.2765322,-6.646384,0.68597996,-0.731712,141.90001,-141.3,-5.7000003,,,,,x,
1282659,-4.8090696,11.156563,-2.355487,-6.227174,3.064044,2.2027578,149.1,-136.5,-16.5,,,,,x,
1282679,-4.388575,11.3330145,-2.338141,-5.853696,0.95274997,4.34454,134.70001,-143.70001,-6.9,,,,,x,
1282701,-3.8382835,11.050094,-1.7734939,-5.091496,-1.996964,4.03966,137.1,-134.1,-6.3,,,,,x,
1282721,-4.2222915,9.778441,-1.0311985,-4.9924097,-3.559474,3.475632,129.90001,-138.90001,-16.5,,,,,x,
1282781,-2.091706,7.985807,-0.68427557,-3.940574,-7.172302,4.085392,132.3,-150.90001,-17.1,,,,,x,
1282827,-0.35709137,5.1183095,-0.1321896,-2.6981878,-4.87808,8.872007,125.100006,-162.90001,-15.900001,,,,,x,
1282872,-0.047253296,4.9322867,-0.9049903,-1.798792,-5.312534,8.26987,96.3,-155.70001,-21.300001,,,,,x,
1282934,1.422384,3.3920689,-1.3876917,-0.022866,-5.975648,5.045764,89.100006,-160.5,-15.900001,,,,,x,
1282990,3.1330729,4.100868,-1.8626173,-0.663114,-3.879598,1.768304,79.5,-167.70001,-21.900002,,,,,x,
1283010,3.6540554,3.7647119,-2.5259578,1.303362,-4.550334,1.6539739,74.700005,-172.5,-15.900001,,,,,x,
1283050,4.7414794,6.5377026,-1.6389117,-0.899396,-4.298808,2.7515419,69.9,-172.5,-25.500002,,,,,x,
1283071,4.85393,7.040741,-1.8680005,0.053354,-3.056422,-0.144818,57.9,-172.5,-20.1,,,,,,
1283091,4.431043,7.5078907,-1.4606651,0.007622,-1.471046,-1.1051899,67.5,-174.90001,-23.7,,,,,,
1283111,3.129484,7.325457,-2.4685361,-0.274392,2.088428,-2.59148,81.9,-189.3,-23.1,,,,,,
1283135,2.7496634,7.8458414,-3.3119175,1.951232,2.835384,-2.507638,72.3,-167.70001,-21.900002,,,,,,
1283156,2.735906,9.045118,-3.643887,2.7591639,1.8902559,-1.8597679,81.9,-177.3,-17.1,,,,,,
1283176,1.8201491,8.780739,-3.7216456,1.471046,2.195136,-2.560992,81.9,-158.1,-14.1,,,,,,
1283196,1.903291,8.303421,-4.007558,1.554888,1.6311079,-2.050318,77.100006,-162.90001,-17.7,,,,,,
1283216,1.9625071,8.733485,-3.4542756,1.196654,0.41921,-0.91463995,72.3,-165.3,-27.900002,,,,,,
1283258,2.049836,9.126466,-3.383695,0.7622,1.006104,-0.56402797,74.700005,-165.3,-23.7,,,,,,
1283469,0.89542,9.654626,-2.7394948,-0.327746,-0.213416,-0.625004,93.9,-162.90001,-20.1,,,,,,
1283489,1.2285857,9.454846,-2.5074153,-0.83842,-0.480186,-1.204276,98.700005,-167.70001,-20.7,,,,,,
1283529,0.899607,9.459033,-2.7717946,-0.586894,0.297258,-0.579272,86.700005,-174.90001,-20.7,,,,,,
1283549,0.72853816,9.08938,-2.6264458,-0.221038,-0.015244,-0.579272,86.700005,-148.5,-16.5,,,,,,
1283571,0.91695315,9.507483,-2.707195,0.091464,-0.198172,-0.26677,81.9,-160.5,-14.1,,,,,,
1283591,0.7835673,9.416565,-2.694036,-0.137196,-0.03811,-0.41158798,89.100006,-167.70001,-12.900001,,,,,,
1283611,0.74229544,9.264038,-3.0068648,-0.388722,0.358234,-0.34298998,96.3,-165.3,-20.7,,,,,,
1283631,0.6214706,9.017005,-3.1767373,-0.23628199,0.259148,-0.3811,93.9,-165.3,-18.300001,,,,,,
1283691,1.401449,8.957789,-2.7430837,-0.518296,0.731712,0.67073596,84.3,-170.1,-11.1,,,,,,
1283732,1.409823,8.945229,-2.668316,-0.182928,1.48629,0.213416,91.5,-174.90001,-13.500001,,,,,,
1283771,1.2124358,9.139625,-2.7418873,0.33536798,1.280496,-0.243904,96.3,-174.90001,-11.1,,,,,,
1283791,1.2561003,8.874647,-2.502032,0.17530599,1.051836,-0.46494198,89.100006,-165.3,-23.1,,,,,x,
1283831,0.66274244,8.886012,-2.594146,0.07622,1.1280559,-0.060976,72.3,-158.1,-15.900001,,,,,x,
1283851,0.8720924,9.1515875,-2.4224792,0.03811,0.884152,0.03811,86.700005,-167.70001,-13.500001,,,,,x,
1283875,0.6382185,9.408789,-2.2651675,-0.47256398,1.051836,-0.045732,98.700005,-162.90001,-20.7,,,,,x,
1283895,0.30325848,10.926278,-2.075556,-0.60976,0.053354,0.83842,93.9,-167.70001,-16.5,,,,,x,
1283915,0.4228871,11.3976145,-1.7005205,-1.3795819,-0.480186,0.708846,96.3,-160.5,-17.7,,,,,x,
1283935,0.1698726,10.514157,-0.8045023,-3.833866,-0.053354,-1.013726,79.5,-160.5,-14.1,,,,,x,
1283955,-1.2393522,8.326748,-0.83141875,-4.0472817,0.70122397,-1.71495,89.100006,-165.3,-17.7,,,,,x,
1283975,-1.6706133,8.114408,-0.5945541,-2.7744079,-1.6006199,1.432936,96.3,-170.1,-21.900002,,,,,x,
1284019,-0.9025977,7.952311,-0.099889874,-3.460388,-6.8826656,3.330814,81.9,-160.5,-23.1,,,,,x,
1284060,0.038879294,4.626636,0.62027425,-2.416174,-12.134224,2.644834,60.300003,-165.3,-24.300001,,,,,x,
1284080,0.26617363,3.268253,0.77220255,-1.920744,-12.378128,2.89636,69.9,-162.90001,-26.7,,,,,x,
1284120,1.6245563,3.8352928,0.15133017,-0.739334,-13.407098,4.5731997,69.9,-174.90001,-27.300001,,,,,x,
1284140,1.907478,3.0385664,-0.07835673,-1.242386,-13.14795,3.384168,55.500004,-179.70001,-21.900002,,,,,x,
1284160,1.8650098,2.45119,-0.49944937,-1.059458,-12.865935,2.6905658,65.100006,-170.1,-31.500002,,,,,x,
1284184,3.1432414,2.6928396,-0.803306,-0.19055,-12.370505,2.2942219,62.7,-170.1,-27.300001,,,,,x,
1284247,4.1194105,4.289881,-3.7760766,2.385686,-3.8109999,-2.865872,50.7,-167.70001,-24.300001,,,,,x,
1284310,3.6761868,7.9307775,-6.5795727,3.986306,3.155508,-5.282046,60.300003,-158.1,-23.7,,,,,x,
1284387,1.7459793,9.752123,-7.8225136,5.4573517,5.5183277,-4.679908,91.5,-158.1,-26.1,,,,,x,
1284431,0.09031959,9.560718,-7.4642262,5.5793037,2.995446,-2.545748,98.700005,-158.1,-20.1,,,,,x,
1284451,0.6095077,12.538871,-6.355269,1.166166,5.724122,-1.8292799,101.100006,-160.5,-21.900002,,,,,x,
1284494,0.3798208,11.398212,-10.902352,5.3354,13.292768,-5.205826,108.3,-150.90001,-14.700001,,,,,x,
1284535,-0.22370547,13.519826,-7.2985406,-1.173788,6.265284,-5.541194,110.700005,-143.70001,-11.1,,,,,x,
1284609,-0.40255022,14.582726,-7.6669965,-3.079288,7.5610237,-6.9283977,117.9,-153.3,-3.9,,,,,x,
1284669,-1.7962234,14.77473,-8.6652975,-2.035074,9.344572,-4.9924097,125.100006,-134.1,-8.1,,,,,x,
1284692,-2.8034961,13.974414,-6.8882146,-1.745438,8.673836,-5.838452,127.50001,-131.70001,-5.7000003,,,,,x,
1284735,-2.7837574,14.617418,-6.8367743,-1.996964,8.109808,-2.8048959,137.1,-129.3,-8.1,,,,,x,
1284755,-2.9733686,14.375768,-6.668696,-1.8445239,8.407065,-2.987824,144.3,-134.1,-4.5,,,,,x,
1284775,-2.9225266,13.372683,-6.458748,-2.568614,6.17382,-2.7972739,137.1,-131.70001,0.90000004,,,,,x,
1284795,-3.0224164,13.527003,-5.3611555,-3.445144,3.384168,-1.3872039,139.5,-131.70001,4.5,,,,,x,
1284815,-3.6923366,13.777027,-4.393958,-4.123502,3.7271578,-1.3719599,149.1,-148.5,0.90000004,,,,,x,
1284835,-3.5260527,13.254251,-4.233656,-4.199722,3.96344,-1.036592,137.1,-131.70001,-11.700001,,,,,x,
1284855,-3.9004903,12.221257,-3.3071325,-4.908568,2.6829438,-0.289636,137.1,-143.70001,-8.1,,,,,x,
1284875,-3.5416045,12.231425,-2.8674974,-4.4207597,2.484772,1.554888,134.70001,-138.90001,-10.5,,,,,x,
1284895,-3.647476,12.248174,-2.849553,-4.0625257,1.8521459,2.01983,134.70001,-148.5,-3.3000002,,,,,x,
1284915,-4.073354,11.148787,-2.560052,-4.024416,-0.022866,1.547266,120.3,-143.70001,-8.700001,,,,,x,
1284935,-3.258683,10.688815,-1.9391795,-3.864354,-2.36282,2.7134318,120.3,-150.90001,-11.700001,,,,,x,
1284998,-2.5241632,8.531313,-1.5049278,-4.413138,-2.050318,3.62045,122.700005,-155.70001,-8.700001,,,,,x,
1285093,-0.56046,5.8001924,-1.0886202,-1.79117,-4.603688,4.207344,93.9,-158.1,-20.1,,,,,x,
1285113,-0.59515226,5.006457,-1.2740445,-0.60976,-5.823208,2.865872,113.100006,-165.3,-15.900001,,,,,x,
1285133,-0.037084863,4.798901,-1.271652,-0.327746,-7.057972,3.8109999,98.700005,-162.90001,-11.700001,,,,,x,
1285153,0.1740596,5.3150983,-0.9181495,-1.1280559,-7.5305357,4.131124,93.9,-155.70001,-12.900001,,,,,x,
1285173,-0.093310304,5.065673,-1.146042,-1.539644,-7.0655937,2.545748,98.700005,-162.90001,-17.7,,,,,x,
1285193,0.24105161,4.924511,-1.506124,-1.318606,-7.294254,2.545748,105.9,-162.90001,-15.900001,,,,,x,
1285213,0.4761218,5.013634,-1.6054157,-2.05794,-7.301876,2.7744079,79.5,-155.70001,-23.1,,,,,x,
1285273,1.9517405,5.6410866,-1.6544634,-1.234764,-7.713464,3.1783738,81.9,-172.5,-23.7,,,,,x,
1285293,2.539715,5.45626,-2.036677,-0.47256398,-6.242418,2.416174,89.100006,-167.70001,-22.5,,,,,x,
1285315,2.8340013,5.547776,-2.0988836,0.7622,-6.0976,2.179892,77.100006,-172.5,-20.7,,,,,x,
1285335,3.49794,6.602302,-1.9385813,1.6311079,-5.60217,3.018312,81.9,-172.5,-20.1,,,,,x,
1285355,4.249806,7.754924,-2.1180243,1.707328,-3.917708,2.423796,77.100006,-165.3,-17.7,,,,,x,
1285418,4.063185,7.551555,-2.7939258,1.173788,0.60976,-1.44818,77.100006,-162.90001,-21.900002,,,,,x,
1285468,2.8393848,8.48406,-3.430948,0.884152,0.967994,-1.455802,74.700005,-170.1,-24.900002,,,,,x,
1285653,1.4074304,8.465517,-2.836394,-0.34298998,1.9054999,-1.082324,84.3,-165.3,-12.3,,,,,,
1285871,1.1203218,9.19286,-2.6126885,-0.55640596,0.769822,-0.35061198,89.100006,-170.1,-12.3,,,,,x,
1285891,1.0072727,9.335815,-2.8938158,-0.35061198,1.265252,-1.074702,89.100006,-162.90001,-12.3,,,,,x,
1285931,0.52935654,8.489443,-2.6880546,-0.327746,0.82317597,-0.777444,77.100006,-167.70001,-11.700001,,,,,x,
1285988,0.25660333,9.729992,-2.9291062,-0.07622,0.87653,0.518296,91.5,-170.1,-17.1,,,,,x,
1286008,0.047851436,9.491333,-2.7065969,-0.060976,0.106708,0.45731997,103.50001,-162.90001,-24.900002,,,,,x,
1286048,-0.28351977,10.340097,-1.9547312,-0.525918,-1.1128119,1.1128119,96.3,-177.3,-15.900001,,,,,x,
1286072,-0.47851437,10.16544,-1.7920363,-0.91463995,-1.432936,0.983238,81.9,-153.3,-21.300001,,,,,x,
1286112,-0.8816627,8.356655,-1.5491903,-1.67684,-4.695152,2.423796,79.5,-165.3,-18.900002,,,,,x,
1286174,0.81646514,7.373308,-0.80091345,-3.025934,-10.564092,3.7576458,77.100006,-165.3,-15.3,,,,,x,
1286216,1.3488123,5.7128634,-0.82424104,-1.798792,-12.23331,3.871976,65.100006,-177.3,-17.7,,,,,x,
1286236,1.7495682,5.882138,-1.07905,-1.8521459,-12.134224,3.628072,77.100006,-162.90001,-17.7,,,,,x,
1286256,2.0115547,5.181114,-1.4929649,-1.6311079,-11.730258,2.2180018,57.9,-167.70001,-23.7,,,,,x,
1286276,2.1287909,4.4992313,-1.5079185,-0.94512796,-11.836966,1.67684,57.9,-172.5,-26.1,,,,,x,
1286336,3.225785,3.5870633,-2.1305852,-0.129574,-6.166198,-0.830798,53.100002,-170.1,-29.1,,,,,x,
1286356,4.063783,5.0602894,-2.1927922,0.480186,-5.9222937,0.625004,65.100006,-184.5,-21.300001,,,,,x,
1286380,4.8880243,6.475496,-1.9367869,-0.746956,-4.718018,-0.17530599,67.5,-174.90001,-28.500002,,,,,x,
1286400,3.9274068,4.5482793,-2.4565732,-1.8597679,-1.951232,-3.368924,55.500004,-174.90001,-29.1,,,,,x,
1286460,3.6211576,7.610771,-3.6211576,0.891774,1.684462,-0.07622,67.5,-162.90001,-25.500002,,,,,x,
1286591,-0.23207948,8.501406,-8.314187,5.304912,8.018344,-4.809482,93.9,-162.90001,-20.1,,,,,x,
1286611,-0.028112719,9.834667,-8.33931,4.4969797,5.9985137,-2.881116,93.9,-155.70001,-17.1,,,,,x,
1286651,-0.06041244,15.483529,-10.298227,5.190582,15.076316,1.051836,93.9,-153.3,-20.7,,,,,x,
1286671,0.98215073,15.101913,-12.182976,4.550334,12.591544,-4.4817357,91.5,-155.70001,-12.900001,,,,,x,
1286693,-1.0605075,11.447858,-7.632304,-0.617382,2.378064,-7.690598,105.9,-153.3,-12.900001,,,,,x,
1286733,-1.3308681,13.415749,-8.817823,0.731712,10.350676,-7.4695597,115.50001,-146.1,-5.1000004,,,,,x,
1286787,-1.6843706,14.576146,-7.931974,-0.541162,9.847624,-1.79117,125.100006,-148.5,-13.500001,,,,,x,
1286831,-4.8258176,12.959366,-7.1525936,-0.83842,15.411684,-6.1052217,132.3,-143.70001,-14.700001,,,,,x,
1286851,-2.4147031,15.209579,-8.151492,0.07622,7.9345016,-2.7134318,117.9,-148.5,-16.5,,,,,x,
1286891,-4.183412,14.583922,-4.2892833,-2.2103798,10.144882,-2.47715,137.1,-148.5,-6.3,,,,,x,
1286911,-4.0177264,15.783796,-6.2440143,-2.89636,9.519877,-1.737816,134.70001,-153.3,-8.1,,,,,x,
1286931,-3.987221,13.890076,-3.828115,-4.0167937,2.568614,-3.597584,134.70001,-138.90001,0.3,,,,,x,
1286951,-4.1995616,13.034732,-3.0146406,-3.567096,4.695152,-0.80030996,137.1,-138.90001,-8.1,,,,,x,
1286971,-4.2510023,14.301599,-4.582373,-3.7424018,6.4482117,1.570132,122.700005,-150.90001,-11.1,,,,,x,
1286991,-4.2791147,13.068228,-3.7754784,-3.2774599,1.9054999,1.265252,117.9,-146.1,-11.1,,,,,x,
1287011,-3.9250143,11.911419,-2.573211,-2.82014,-0.16768399,2.2561119,120.3,-146.1,-11.700001,,,,,x,
1287073,-3.1300821,11.027364,-2.4793026,-3.140264,-0.213416,3.628072,117.9,-153.3,-13.500001,,,,,x,
1287094,-2.9667892,9.7234125,-2.012153,-2.6677,-2.522882,3.605206,105.9,-153.3,-8.1,,,,,x,
1287115,-2.439227,8.817823,-1.200473,-2.62959,-3.96344,4.672286,115.50001,-160.5,-14.1,,,,,x,
1287135,-2.1204169,8.076725,-0.62446123,-3.7347798,-3.871976,4.718018,110.700005,-160.5,-12.900001,,,,,x,
1287156,-1.7657181,7.702287,-0.75126755,-3.7652678,-3.7271578,4.34454,103.50001,-158.1,-10.5,,,,,x,
1287177,-1.2656705,6.404915,-0.46475708,-3.3079479,-5.160094,3.132642,93.9,-167.70001,-17.7,,,,,x,
1287197,-1.0096654,5.1888905,-0.14654502,-2.431418,-5.327778,3.910086,96.3,-160.5,-17.7,,,,,x,
1287219,-0.3188102,5.183507,-0.5514878,-2.164648,-4.321674,5.4421077,93.9,-167.70001,-10.5,,,,,x,
1287240,0.022729432,4.4244637,-0.8685036,-1.928366,-4.253076,5.137228,79.5,-158.1,-17.1,,,,,x,
1287260,0.6101058,4.188197,-1.1370698,-1.3643379,-4.908568,5.625036,81.9,-177.3,-12.3,,,,,x,
1287280,0.7201641,3.9256122,-0.9396826,-1.021348,-5.243936,4.657042,81.9,-158.1,-17.1,,,,,x,
1287300,1.1621917,3.57211,-1.2351652,-0.26677,-5.4116197,4.0472817,79.5,-167.70001,-16.5,,,,,x,
1287320,2.058808,3.7718897,-0.96121573,-0.106708,-6.3719916,4.26832,77.100006,-177.3,-20.1,,,,,x,
1287340,2.9859297,4.4071174,-0.66752756,-0.434454,-5.83083,4.11588,72.3,-167.70001,-16.5,,,,,x,
1287360,3.3657506,4.7372923,-0.67410713,-0.365856,-4.4512477,2.873494,55.500004,-160.5,-21.300001,,,,,x,
1287383,3.8921163,5.044738,-0.92891604,-0.083841994,-3.2698379,1.974098,72.3,-172.5,-10.5,,,,,x,
1287404,4.511194,5.7553315,-1.5641439,0.3811,-1.501534,1.234764,67.5,-177.3,-23.1,,,,,x,
1287424,4.9651847,6.6651073,-1.9906198,0.480186,-1.074702,0.091464,48.300003,-172.5,-23.7,,,,,x,
1287445,4.9849234,6.8014836,-1.9511424,0.091464,-0.93750596,-0.213416,74.700005,-172.5,-22.5,,,,,x,
1287465,4.6290283,6.8002872,-2.2155216,-0.510674,0.3811,-0.998482,62.7,-165.3,-23.7,,,,,x,
1287485,3.9315937,6.715949,-3.30474,0.47256398,2.431418,-1.692084,62.7,-170.1,-16.5,,,,,x,
1287508,4.22588,8.688026,-3.757534,1.8750119,-0.70122397,-0.30488,72.3,-162.90001,-21.900002,,,,,x,
1287528,4.0518203,9.201832,-3.2915807,1.570132,-0.708846,-0.594516,77.100006,-167.70001,-21.900002,,,,,x,
1287548,3.831704,10.042821,-3.5194733,0.960372,-0.106708,-0.70122397,60.300003,-172.5,-28.500002,,,,,x,
1287569,3.5948393,10.170823,-3.5081086,0.480186,-0.030488,-2.2789779,57.9,-174.90001,-13.500001,,,,,x,
1287609,2.3112245,7.4361134,-3.3113196,0.068598,-0.03811,-3.498498,67.5,-165.3,-23.1,,,,,x,
1287629,1.878767,7.389458,-3.2054482,0.28201398,-0.243904,-1.318606,72.3,-167.70001,-22.5,,,,,x,
1287651,1.7053056,7.71425,-3.1330729,-0.365856,0.060976,-0.144818,55.500004,-170.1,-17.7,,,,,x,
1287675,2.3788147,9.247889,-3.033183,0.259148,-0.221038,0.503052,79.5,-155.70001,-20.1,,,,,x,
1287695,2.1748478,9.384265,-2.9003952,-0.449698,0.602138,-1.036592,72.3,-155.70001,-14.700001,,,,,x,
1287717,1.3452235,8.960181,-3.3651524,-0.45731997,0.80030996,-1.501534,77.100006,-172.5,-17.1,,,,,x,
1287737,0.94327146,8.280093,-3.1462321,-0.426832,0.053354,-1.806414,74.700005,-170.1,-16.5,,,,,x,
1287759,1.0593112,8.38716,-2.7789721,0.007622,-0.47256398,-1.310984,79.5,-167.70001,-14.700001,,,,,x,
1287779,1.5569662,9.588232,-2.7640188,0.137196,0.030488,-0.792688,84.3,-162.90001,-11.700001,,,,,x,
1287799,2.217914,11.212789,-2.9608078,0.11432999,0.40396598,0.20579399,72.3,-174.90001,-24.300001,,,,,x,
1287819,1.0126561,9.371106,-2.9763594,-1.21952,0.487808,-1.798792,86.700005,-160.5,-15.3,,,,,x,
1287862,1.6903521,9.815526,-2.5038264,1.318606,-1.1432999,1.958854,77.100006,-170.1,-13.500001,,,,,x,
1287883,1.4917686,10.682236,-2.2484195,-0.91463995,0.548784,-0.16768399,91.5,-170.1,-15.3,,,,,,
1287903,0.9277198,8.531313,-2.8136644,-1.8521459,2.507638,-1.532022,69.9,-170.1,-18.900002,,,,,,
1287923,0.4019521,8.050406,-2.5923517,-1.432936,1.67684,-0.67835796,89.100006,-167.70001,-18.900002,,,,,,
1287943,0.7811747,8.880629,-2.8597217,-1.036592,1.669218,-0.099086,89.100006,-167.70001,-21.300001,,,,,,
1287967,0.5706284,8.832777,-2.8124683,-0.320124,0.541162,-1.082324,84.3,-162.90001,-18.300001,,,,,,
1287987,0.6286483,8.720326,-2.9213302,-0.33536798,0.053354,-1.33385,84.3,-167.70001,-18.900002,,,,,,
1288007,1.2088469,9.235926,-3.058305,0.22865999,-0.57164997,-0.884152,96.3,-160.5,-17.1,,,,,,
1288027,2.4176939,11.228938,-3.0822308,0.80030996,-1.6006199,-0.617382,89.100006,-172.5,-18.900002,,,,,,
1288047,1.1843231,8.543874,-2.447601,-0.594516,-1.730194,-3.2393498,86.700005,-170.1,-18.900002,,,,,,
1288067,0.9636083,7.3553643,-2.7089896,0.60976,-0.884152,-1.547266,81.9,-160.5,-20.1,,,,,,
1288087,1.564742,9.852611,-2.1258001,-0.060976,-1.173788,-0.045732,93.9,-160.5,-20.1,,,,,x,
1288149,0.53892684,9.2807865,-3.1444376,-0.33536798,0.95274997,-1.745438,72.3,-170.1,-18.300001,,,,,x,
1288209,0.899607,8.695803,-2.7353077,-0.243904,1.585376,-0.777444,103.50001,-158.1,-15.3,,,,,x,
1288249,0.89661634,9.086988,-3.1348674,0.663114,2.339954,-0.251526,101.100006,-162.90001,-14.1,,,,,x,
1288272,0.71358454,8.99607,-3.2078407,0.396344,2.111294,-0.34298998,86.700005,-162.90001,-18.900002,,,,,x,
1288312,0.76323044,9.094166,-2.8345995,0.373478,1.4024479,-0.327746,96.3,-160.5,-18.900002,,,,,x,
1288332,0.5778061,9.153382,-2.8292162,0.068598,1.3795819,-0.320124,86.700005,-170.1,-14.700001,,,,,x,
1288352,0.2338739,9.128858,-2.7377005,-0.091464,0.983238,-0.40396598,96.3,-158.1,-13.500001,,,,,x,
1288392,0.023925718,9.273608,-1.6867632,-0.327746,-0.983238,0.259148,98.700005,-153.3,-12.3,,,,,x,
1288412,-0.30445477,9.14441,-1.1843231,-1.41007,-1.211898,0.327746,93.9,-160.5,-10.5,,,,,x,
1288436,-0.46954224,8.719728,-0.9139625,-1.48629,-1.707328,0.7622,91.5,-165.3,-19.5,,,,,x,
1288456,-0.98514146,8.135343,-0.660948,-1.570132,-3.58234,0.998482,89.100006,-158.1,-17.7,,,,,x,
1288518,0.073571585,6.5071974,0.2853142,-1.18141,-8.521396,2.980202,89.100006,-165.3,-11.700001,,,,,x,
1288561,-0.14415246,3.4064243,0.07117901,-0.868908,-11.791234,2.042696,91.5,-150.90001,-18.300001,,,,,x,
1288604,1.3685511,3.7048976,0.6406111,-1.539644,-13.216548,2.355198,84.3,-174.90001,-22.5,,,,,x,
1288654,2.8890305,3.213224,-0.21832219,-1.3414719,-8.757678,-1.699706,77.100006,-174.90001,-19.5,,,,,x,
1288714,2.9889205,6.3893633,-3.647476,2.964958,0.358234,0.525918,74.700005,-158.1,-24.900002,,,,,x,
1288753,2.5510798,6.887018,-5.928793,0.998482,1.577754,-3.132642,89.100006,-153.3,-21.900002,,,,,x,
1288774,2.3201966,6.861298,-5.4694195,0.49543,1.272874,-3.2927039,98.700005,-165.3,-16.5,,,,,x,
1288814,2.610296,10.690609,-8.432021,3.574718,9.29884,-2.583858,96.3,-143.70001,-18.300001,,,,,x,
1288835,1.8135695,9.791002,-7.649052,1.478668,3.536608,-5.045764,103.50001,-165.3,-25.500002,,,,,x,
1288856,1.6730059,9.693505,-5.883334,0.792688,4.5122237,-5.18296,84.3,-160.5,-18.900002,,,,,x,
1288897,2.0342844,14.504369,-9.913023,3.3155699,12.096114,-4.0625257,103.50001,-165.3,-15.900001,,,,,x,
1288933,0.4007558,12.012506,-8.71255,0.80793196,8.010722,-6.74547,108.3,-143.70001,-18.900002,,,,,x,
1288973,0.9241309,14.505566,-9.380078,2.004586,9.314084,-3.6661818,127.50001,-146.1,-15.900001,,,,,x,
1288994,-0.3451285,13.972022,-8.649746,0.198172,7.27901,-6.158576,113.100006,-143.70001,-14.700001,,,,,x,
1289014,-0.8505593,10.933455,-7.6376877,0.144818,7.987856,-7.644866,137.1,-153.3,-7.5000005,,,,,x,
1289034,-0.98514146,10.271311,-7.351775,1.951232,10.304944,-5.746988,134.70001,-148.5,-7.5000005,,,,,x,
1289054,-0.6196761,16.35263,-8.292056,2.82014,11.333914,-0.243904,134.70001,-136.5,-3.9,,,,,x,
1289074,-3.3412266,18.537647,-7.058087,-0.617382,10.1677475,-5.960404,134.70001,-148.5,-3.9,,,,,x,
1289094,-5.117711,12.29423,-7.6029954,1.471046,11.897942,-10.243968,146.70001,-138.90001,-9.900001,,,,,x,
1289117,-4.8832393,13.248269,-7.6532393,0.69360197,6.9741297,-2.2180018,149.1,-134.1,-8.1,,,,,x,
1289179,-3.200663,14.104211,-6.7404733,-0.15244,3.597584,-1.951232,144.3,-131.70001,-5.1000004,,,,,x,
1289349,-1.869795,10.675655,-1.4983481,-2.919226,-3.094532,3.7881339,134.70001,-138.90001,-7.5000005,,,,,x,
1289389,-2.8513474,8.869264,-2.1616888,-3.384168,1.8978779,4.11588,134.70001,-146.1,-9.3,,,,,x,
1289469,-1.1992767,6.0071497,-1.1825286,-2.522882,-4.321674,3.856732,103.50001,-153.3,-12.3,,,,,x,
1289489,-0.64120924,6.141732,-1.03718,-2.812518,-3.856732,5.121984,101.100006,-158.1,-12.3,,,,,x,
1289532,0.028710863,5.784641,-1.4576744,-3.117398,-3.92533,3.612828,103.50001,-162.90001,-15.900001,,,,,x,
1289552,0.09630102,4.7677975,-1.1944915,-2.835384,-4.939056,3.041178,96.3,-167.70001,-17.1,,,,,x,
1289572,0.1501339,4.1648693,-1.1418549,-2.431418,-4.794238,3.071666,108.3,-160.5,-20.7,,,,,x,
1289592,0.8834572,5.016625,-1.3458217,-1.8902559,-4.9161897,4.23021,103.50001,-165.3,-20.7,,,,,x,
1289655,1.5533773,4.9681754,-0.63462967,-1.1356779,-5.343022,1.5929979,81.9,-160.5,-18.300001,,,,,x,
1289715,2.962004,6.380989,-0.5796005,-0.121952,-4.11588,0.68597996,74.700005,-167.70001,-18.300001,,,,,x,
1289735,3.2652624,6.471907,-1.1257051,0.49543,-2.7362978,0.35061198,91.5,-165.3,-14.1,,,,,x,
1289755,3.363956,7.5049,-1.4498986,1.48629,-2.309466,1.288118,93.9,-167.70001,-17.1,,,,,x,
1289775,3.2850013,8.386562,-1.8620191,1.013726,-0.99086,1.227142,86.700005,-170.1,-18.900002,,,,,x,
1289795,2.848955,8.259158,-2.3542907,0.083841994,-0.053354,-0.053354,77.100006,-170.1,-19.5,,,,,,
1289815,2.8477588,7.705876,-2.6132867,0.137196,0.198172,-0.80030996,74.700005,-170.1,-23.7,,,,,,
1289837,2.6886528,8.4278345,-2.62824,0.777444,0.068598,-0.213416,79.5,-165.3,-21.300001,,,,,,
1289897,1.7681106,8.371011,-3.012248,0.060976,-0.28201398,-2.55337,79.5,-167.70001,-17.1,,,,,,
1289937,1.3852991,9.132447,-3.1187174,0.884152,0.068598,-0.716468,93.9,-170.1,-25.500002,,,,,,
1289957,1.3882898,9.550549,-3.3842928,0.64787,0.137196,-0.868908,93.9,-165.3,-25.500002,,,,,,
1289981,1.3685511,9.155774,-3.175541,0.632626,-0.19055,-1.013726,79.5,-172.5,-15.900001,,,,,,
1290001,1.3601772,9.058277,-3.0260053,0.69360197,-0.07622,-0.91463995,96.3,-155.70001,-11.1,,,,,,
1290021,1.0640963,8.784925,-3.0439496,0.68597996,0.388722,-0.69360197,93.9,-155.70001,-23.1,,,,,,
1290041,1.0473484,9.116297,-3.3950596,0.426832,0.983238,-0.594516,86.700005,-153.3,-20.7,,,,,,
1290061,1.1526215,8.933266,-3.3699374,0.30488,1.02897,-0.960372,96.3,-167.70001,-15.900001,,,,,,
1290081,1.0999849,8.756813,-3.2867956,0.274392,1.1204339,-0.769822,101.100006,-160.5,-17.7,,,,,,
1290125,0.9911229,8.960181,-2.9446578,0.0,1.097568,-0.30488,81.9,-165.3,-15.900001,,,,,,
1290187,0.83321315,9.596606,-2.9213302,-0.449698,1.471046,-0.899396,93.9,-158.1,-14.1,,,,,,
1290207,0.7542583,9.00265,-2.9919112,0.022866,0.640248,-1.798792,96.3,-177.3,-17.1,,,,,,
1290227,1.2483244,9.138429,-2.5935478,0.80793196,0.33536798,-1.082324,84.3,-167.70001,-8.700001,,,,,,
1290250,1.0856295,8.894386,-2.3608704,-0.16768399,1.288118,-1.3795819,93.9,-158.1,-15.3,,,,,,
1290270,0.6782941,8.690419,-3.0523236,-0.15244,2.309466,-1.074702,89.100006,-155.70001,-18.900002,,,,,,
1290290,0.67410713,9.030763,-3.3496006,0.67073596,1.798792,-0.94512796,98.700005,-162.90001,-18.900002,,,,,,
1290311,0.64360183,8.701784,-3.3196936,0.487808,1.227142,-0.57164997,103.50001,-160.5,-17.1,,,,,,
1290331,0.753062,8.750234,-3.0846233,-0.26677,0.87653,0.099086,103.50001,-165.3,-5.7000003,,,,,,
1290375,1.2327727,9.689917,-3.0654826,-0.777444,1.272874,-0.030488,86.700005,-170.1,-21.900002,,,,,,
1290395,0.81945586,8.552846,-2.9303024,-1.211898,1.471046,-0.960372,96.3,-160.5,-13.500001,,,,,,
1290417,0.8433816,8.621035,-2.7819629,-0.69360197,1.326228,-0.426832,103.50001,-158.1,-12.3,,,,,,
1290441,0.66752756,8.781935,-2.7849536,-0.144818,1.44818,-0.274392,84.3,-162.90001,-14.700001,,,,,,
1290481,0.4175038,9.600195,-2.7006154,-0.28201398,0.975616,-0.068598,86.700005,-162.90001,-19.5,,,,,x,
1290503,-0.06998273,9.402209,-2.39317,-0.541162,0.91463995,0.121952,81.9,-162.90001,-19.5,,,,,x,
1290524,-0.46535522,10.603879,-2.7048025,-0.34298998,1.02897,0.93750596,93.9,-170.1,-14.700001,,,,,x,
1290544,-0.38460594,11.212789,-2.1467352,-1.478668,-0.579272,0.80793196,81.9,-165.3,-18.900002,,,,,x,
1290564,-0.2075556,9.140223,-1.3673549,-2.888738,-0.907018,0.35061198,103.50001,-153.3,-15.900001,,,,,x,
1290584,-0.49047723,7.48875,-0.96899164,-2.7667859,-1.3567159,2.09605,89.100006,-158.1,-20.1,,,,,x,
1290604,-0.5431138,6.9928894,-0.50184196,-2.118916,-2.55337,3.894842,84.3,-148.5,-18.900002,,,,,x,
1290624,0.5544785,7.802177,-0.037683006,-1.478668,-4.596066,4.207344,89.100006,-174.90001,-20.1,,,,,x,
1290644,0.4204945,7.1896787,-0.14654502,-1.250008,-5.6097918,2.7667859,79.5,-155.70001,-17.1,,,,,x,
1290664,0.20396675,6.3959427,-0.6095077,-0.221038,-7.865904,2.187514,84.3,-165.3,-20.1,,,,,x,
1290748,1.2459319,2.7951221,0.5275621,-1.089946,-14.314116,3.917708,72.3,-172.5,-16.5,,,,,x,
1290790,2.7580373,3.7850487,-0.17585403,-1.29574,-11.105254,2.2713559,57.9,-179.70001,-21.900002,,,,,x,
1290810,3.062492,3.8616111,-0.9558325,-0.617382,-9.878112,0.99086,55.500004,-165.3,-20.7,,,,,x,
1290850,3.8358908,4.1648693,-2.4996395,1.501534,-3.932952,-1.234764,62.7,-182.1,-26.7,,,,,x,
1290870,4.5524664,6.444392,-4.459156,2.7058098,0.998482,-1.554888,67.5,-167.70001,-21.900002,,,,,x,
1290892,3.59783,4.9304924,-6.0005703,2.7515419,3.2317278,-5.18296,81.9,-150.90001,-25.500002,,,,,x,
1290915,3.255094,5.522056,-7.1131163,4.718018,3.7119138,-1.722572,72.3,-172.5,-31.500002,,,,,x,
1290935,4.0482316,8.461928,-6.8816347,1.71495,3.2698379,-1.173788,72.3,-155.70001,-20.1,,,,,x,
1290955,3.6199613,7.57249,-6.8044744,0.11432999,6.6311398,-6.0899777,72.3,-167.70001,-19.5,,,,,x,
1290975,2.1898015,6.5963206,-7.83029,2.035074,8.353712,-5.8918056,93.9,-160.5,-14.700001,,,,,x,
1290995,1.9678904,6.9468327,-6.945038,1.1204339,5.5945477,-5.175338,91.5,-150.90001,-8.1,,,,,x,
1291015,2.375824,9.308899,-5.986813,1.935988,7.58389,-4.283564,93.9,-160.5,-21.900002,,,,,x,
1291035,0.0723753,11.122469,-6.9570007,1.974098,13.155572,-6.5244317,91.5,-155.70001,-22.5,,,,,x,
1291095,-1.0413669,10.845529,-6.7667913,0.53354,4.786616,-5.0686297,117.9,-153.3,-14.1,,,,,x,
1291149,-1.0784518,10.6523285,-7.181903,0.487808,7.629622,-7.6067557,117.9,-153.3,-11.1,,,,,x,
1291169,-1.3404384,12.24279,-8.042032,1.1432999,10.426896,-3.064044,132.3,-146.1,-15.3,,,,,x,
1291211,0.6992291,13.868543,-8.265738,-0.373478,8.940606,-1.089946,113.100006,-141.3,-17.1,,,,,x,
1291231,-1.4002527,14.73286,-8.074332,-0.47256398,10.373542,-1.8521459,127.50001,-143.70001,-4.5,,,,,x,
1291272,-0.3995595,15.508053,-7.8386636,-1.9131219,4.83997,-2.6905658,105.9,-146.1,-15.3,,,,,x,
1291294,-3.7557397,14.159241,-6.4862623,-1.29574,6.234796,-5.045764,125.100006,-134.1,-9.3,,,,,x,
1291314,-1.3033535,15.93094,-7.906852,1.6158639,6.318638,0.060976,117.9,-138.90001,-5.7000003,,,,,x,
1291334,0.4605701,18.148853,-4.931091,-4.131124,-0.625004,-1.21952,129.90001,-141.3,-6.3,,,,,x,
1291354,-4.2605724,13.614332,-5.029784,-1.570132,11.486354,-7.4543157,125.100006,-136.5,-5.1000004,,,,,x,
1291374,-2.3542907,13.799756,-9.009828,4.176856,11.265316,-1.097568,125.100006,-136.5,-6.3,,,,,x,
1291395,-0.5610581,16.580523,-6.5580397,-2.2942219,-2.7515419,1.692084,103.50001,-143.70001,-5.1000004,,,,,x,
1291415,-2.0881171,14.85189,-4.7558346,-1.6158639,4.9466777,-2.012208,127.50001,-138.90001,-2.7,,,,,x,
1291435,-2.356085,14.275878,-5.5872536,-2.004586,4.76375,-2.004586,122.700005,-138.90001,-9.3,,,,,x,
1291455,-2.121613,13.683717,-3.7551415,-5.137228,-0.92226195,-1.684462,120.3,-148.5,-4.5,,,,,x,
1291519,-2.7257376,11.047701,-1.5485922,-4.207344,-3.490876,1.3795819,122.700005,-150.90001,-6.3,,,,,x,
1291539,-2.9273117,9.621728,-0.6663313,-3.612828,-2.980202,1.4024479,115.50001,-153.3,-5.7000003,,,,,x,
1291559,-2.7215505,9.505688,-1.347018,-3.422278,-1.211898,3.0488,120.3,-150.90001,-6.9,,,,,x,
1291580,-2.4876766,8.566604,-2.0629952,-2.7286758,-2.378064,2.035074,113.100006,-153.3,-4.5,,,,,x,
1291600,-1.7968215,6.6029,-1.0772555,-0.708846,-6.59303,1.692084,108.3,-150.90001,-14.1,,,,,x,
1291621,-1.0114597,6.479683,-0.2171259,-0.91463995,-6.74547,5.464974,122.700005,-153.3,-2.1000001,,,,,x,
1291641,-0.34153965,7.212408,-0.1740596,-2.55337,-3.84911,7.286632,110.700005,-155.70001,-11.1,,,,,x,
1291703,-0.36426908,4.455567,-1.3864954,-1.5244,-4.9924097,4.0015497,81.9,-162.90001,-14.700001,,,,,x,
1291892,2.5827813,5.0806265,-1.1364716,-0.34298998,-5.67839,1.25763,67.5,-165.3,-20.1,,,,,x,
1291932,3.9483418,7.300933,-0.47014037,-0.358234,-2.538126,1.173788,67.5,-177.3,-20.1,,,,,x,
1291952,3.7605247,7.191473,-1.2919888,-0.060976,0.34298998,-0.60976,67.5,-184.5,-12.900001,,,,,x,
1291992,3.447098,8.028873,-2.0635931,1.318606,0.716468,0.56402797,65.100006,-160.5,-18.300001,,,,,x,
1292107,2.4236753,8.861488,-4.0649796,1.775926,-1.463424,-1.051836,67.5,-165.3,-6.9,,,,,,
1292127,2.4320493,8.866273,-3.8436668,0.93750596,-0.830798,-0.891774,77.100006,-165.3,-8.700001,,,,,,
1292170,2.2944765,9.195251,-3.4919586,0.35061198,0.182928,-1.1204339,77.100006,-172.5,-19.5,,,,,,
1292190,1.6981279,8.681447,-3.5314362,-0.525918,1.1432999,-1.699706,62.7,-160.5,-21.300001,,,,,,
1292210,0.9869359,8.302224,-3.393265,-0.17530599,1.059458,-1.310984,60.300003,-174.90001,-20.7,,,,,,
1292233,1.0766573,9.061268,-3.2850013,0.0,0.853664,-0.907018,79.5,-165.3,-12.900001,,,,,,
1292253,1.0784518,8.9141245,-3.3286657,0.144818,0.87653,-0.83842,69.9,-162.90001,-15.900001,,,,,,
1292273,1.1466401,8.969153,-3.0439496,0.11432999,0.617382,-0.541162,69.9,-160.5,-18.300001,,,,,,
1292293,1.1077608,8.674868,-3.155204,0.091464,1.227142,-0.868908,79.5,-167.70001,-13.500001,,,,,,
1292313,1.1406586,8.307608,-3.0989788,0.442076,0.975616,-0.708846,67.5,-170.1,-23.1,,,,,,
1292335,1.4373375,8.871058,-2.966191,0.82317597,0.853664,0.182928,74.700005,-172.5,-16.5,,,,,,
1292355,1.4253747,9.204224,-3.0050702,0.07622,1.326228,-0.449698,74.700005,-174.90001,-14.1,,,,,,
1292417,1.3236904,8.908143,-3.058305,-0.46494198,1.3490939,-0.716468,79.5,-150.90001,-11.700001,,,,,,
1292437,1.2866055,9.257459,-3.1366618,-0.525918,1.089946,-0.67835796,84.3,-155.70001,-17.1,,,,,,
1292457,1.2459319,9.07981,-2.9225266,-0.91463995,0.960372,-1.044214,81.9,-167.70001,-12.3,,,,,,
1292477,1.2465299,8.837563,-2.966191,-1.158544,1.021348,-0.983238,74.700005,-184.5,-12.3,,,,,,
1292497,1.2399504,8.833974,-2.9219284,-0.68597996,0.769822,-0.663114,84.3,-158.1,-18.300001,,,,,x,
1292517,1.0527316,8.878236,-2.887236,-0.259148,0.663114,-0.708846,77.100006,-172.5,-18.300001,,,,,x,
1292537,1.2411467,8.958985,-2.7831593,-0.07622,0.40396598,-0.57164997,81.9,-165.3,-17.7,,,,,x,
1292560,1.0509372,8.423049,-2.7849536,-0.525918,0.69360197,-0.67073596,81.9,-155.70001,-19.5,,,,,x,
1292580,1.2901944,9.054688,-2.9649947,-0.160062,0.594516,0.40396598,86.700005,-167.70001,-20.1,,,,,x,
1292600,0.98753405,9.119885,-3.003874,-0.82317597,0.846042,0.449698,89.100006,-177.3,-15.900001,,,,,x,
1292620,1.0473484,8.834572,-3.0014815,-1.265252,0.426832,0.297258,86.700005,-162.90001,-15.3,,,,,x,
1292640,0.22849062,7.986405,-3.0050702,-0.91463995,0.388722,-0.160062,86.700005,-170.1,-11.700001,,,,,x,
1292663,-0.12620817,7.476787,-2.857329,-0.518296,-0.83842,1.250008,81.9,-160.5,-11.1,,,,,x,
1292703,0.42946666,9.283777,-2.467938,0.92226195,-2.2561119,5.091496,84.3,-182.1,-12.900001,,,,,x,
1292764,0.27753833,8.1251745,-1.3027554,-2.8048959,-4.5274677,3.879598,67.5,-170.1,-14.1,,,,,x,
1292834,1.0802462,6.567012,-0.1961909,-2.118916,-10.076283,3.39179,53.100002,-172.5,-27.900002,,,,,x,
1292854,2.0115547,5.8384733,0.43365365,-1.760682,-11.288181,4.0320377,57.9,-158.1,-24.300001,,,,,x,
1292874,2.3752258,5.5286355,0.6382185,-2.2027578,-11.448244,3.01069,48.300003,-184.5,-25.500002,,,,,x,
1292897,2.5504816,5.126683,0.65795726,-2.187514,-11.669282,2.065562,43.5,-177.3,-11.1,,,,,x,
1292937,2.6653252,2.8627121,1.1191255,-1.71495,-11.516842,-0.846042,38.7,-182.1,-24.900002,,,,,x,
1292957,2.8537402,2.505621,0.46236452,-1.760682,-8.95585,-0.975616,43.5,-179.70001,-21.900002,,,,,x,
1293017,2.3279724,1.9481517,-3.167167,0.87653,2.111294,-4.5884438,55.500004,-177.3,-20.1,,,,,x,
1293081,2.5510798,7.1143126,-6.2733235,4.832348,2.500016,-3.12502,65.100006,-162.90001,-21.900002,,,,,x,
1293191,2.7478688,9.710253,-5.5585427,0.045732,4.9543,-6.227174,86.700005,-162.90001,-11.700001,,,,,x,
1293212,0.5796005,8.766981,-7.267437,2.2484899,12.324774,-7.3780956,108.3,-162.90001,-18.900002,,,,,x,
1293252,1.3440273,13.255446,-8.770571,0.388722,7.324742,-5.5945477,96.3,-155.70001,-12.3,,,,,x,
1293272,-0.53234726,10.603879,-7.571892,-0.160062,8.993959,-9.611341,113.100006,-150.90001,-9.900001,,,,,x,
1293313,0.62984455,14.878806,-9.557128,0.967994,9.923843,-0.19055,110.700005,-148.5,-13.500001,,,,,x,
1293334,-0.753062,14.405675,-8.333926,-1.8597679,10.114394,-6.0594897,108.3,-138.90001,-12.3,,,,,x,
1293354,-0.8254373,10.183982,-8.774757,1.783548,8.216516,-8.544262,122.700005,-148.5,-10.5,,,,,x,
1293374,-0.9725805,12.414457,-8.122184,-0.045732,7.256144,-1.783548,127.50001,-143.70001,-6.3,,,,,x,
1293394,-0.8792702,14.859068,-8.03306,-1.097568,8.109808,0.33536798,115.50001,-150.90001,-14.700001,,,,,x,
1293414,-1.2249968,16.385529,-7.9804235,-1.707328,8.887252,-3.589962,117.9,-153.3,-11.700001,,,,,x,
1293434,-2.0229194,12.10103,-7.2064266,-1.3490939,6.768336,-9.436036,117.9,-136.5,-10.5,,,,,x,
1293454,-2.7167654,11.739752,-6.6178536,-1.196654,7.4390717,-3.54423,132.3,-143.70001,-9.3,,,,,x,
1293474,-2.380609,15.333395,-6.639387,-2.93447,9.512256,1.1204339,113.100006,-146.1,-3.9,,,,,x,
1293494,-2.0043771,14.603063,-5.3731184,-3.399412,5.617414,-4.03966,122.700005,-143.70001,-12.3,,,,,x,
1293514,-2.51878,12.885196,-4.923913,-3.407034,5.693634,-4.786616,127.50001,-134.1,-11.1,,,,,x,
1293534,-3.174943,12.510758,-4.869482,-2.2103798,7.400962,-0.708846,117.9,-143.70001,-6.9,,,,,x,
1293555,-2.0695746,14.3979,-4.5506716,-2.560992,4.298808,0.396344,125.100006,-146.1,-9.900001,,,,,x,
1293575,-1.1915008,14.254345,-3.6989162,-2.179892,3.399412,-0.053354,122.700005,-146.1,-7.5000005,,,,,x,
1293595,-2.661138,13.31885,-4.7725825,-1.989342,6.920776,0.289636,117.9,-146.1,-7.5000005,,,,,x,
1293615,-2.6886528,13.326626,-5.320482,-1.56251,3.2774599,2.179892,122.700005,-138.90001,-5.1000004,,,,,x,
1293635,-0.9187476,14.548632,-3.2443275,-2.7667859,-2.385686,2.873494,113.100006,-155.70001,-7.5000005,,,,,x,
1293655,-1.7268387,13.187258,-1.5282553,-4.34454,0.92226195,-0.068598,117.9,-146.1,-6.9,,,,,x,
1293675,-2.246625,12.353447,-3.957314,-3.528986,4.275942,0.518296,108.3,-148.5,-8.1,,,,,x,
1293695,-2.4739194,11.639264,-3.5828764,-3.2164838,-1.272874,1.6158639,108.3,-143.70001,-11.700001,,,,,x,
1293715,-1.7411942,10.344285,-1.1352754,-3.864354,-5.769854,1.996964,108.3,-150.90001,-13.500001,,,,,x,
1293735,-2.2753358,9.162952,-0.10766573,-4.550334,-2.7896519,3.475632,105.9,-141.3,-9.900001,,,,,x,
1293755,-2.3106263,8.905152,-1.4504967,-4.809482,0.868908,5.160094,110.700005,-162.90001,-9.3,,,,,x,
1293775,-1.8357008,8.760402,-1.6215656,-3.7576458,-1.44818,5.388754,113.100006,-158.1,-9.900001,,,,,x,
1293795,-1.9290111,7.3816824,-1.0479465,-3.50612,-3.3079479,4.214966,105.9,-170.1,-15.3,,,,,x,
1293855,-0.12860073,7.229754,-0.9348975,-2.7439198,-3.559474,5.990892,86.700005,-167.70001,-27.900002,,,,,x,
1293877,0.43784064,7.1184993,-1.070676,-2.8048959,-4.5122237,4.1921,72.3,-162.90001,-15.3,,,,,x,
1293898,0.52516955,5.848642,-0.7716044,-2.484772,-5.701256,1.48629,72.3,-153.3,-19.5,,,,,x,
1293918,0.32897863,4.1983657,-1.0317966,-1.471046,-5.86894,0.426832,69.9,-165.3,-18.900002,,,,,x,
1293938,0.99291736,4.139149,-1.037778,-1.166166,-6.684494,3.3003259,74.700005,-160.5,-24.300001,,,,,x,
1293958,2.1192205,6.1267786,-0.656761,-1.189032,-7.20279,4.984788,79.5,-167.70001,-14.700001,,,,,x,
1293978,2.2693543,6.3325396,-0.5401231,-1.9054999,-6.0976,2.606724,62.7,-167.70001,-20.7,,,,,x,
1294038,2.1981754,3.2299721,-1.2740445,1.051836,-4.9314337,1.02897,72.3,-179.70001,-19.5,,,,,x,
1294058,2.7646167,5.0291862,-0.9767675,1.3490939,-5.167716,2.957336,65.100006,-172.5,-23.1,,,,,x,
1294082,3.526651,5.6967134,-1.0132542,1.02897,-3.559474,2.835384,72.3,-170.1,-24.300001,,,,,x,
1294124,4.580579,8.055191,-1.6221638,0.785066,-0.602138,1.280496,55.500004,-167.70001,-21.300001,,,,,x,
1294154,4.262367,7.2728205,-2.2681582,0.853664,0.213416,-1.3719599,55.500004,-172.5,-23.1,,,,,x,
1294175,3.9896135,7.6992965,-2.5833795,1.1280559,-0.251526,-0.49543,55.500004,-162.90001,-24.900002,,,,,x,
1294195,3.551773,8.399123,-2.5666316,0.80030996,-0.548784,-0.830798,50.7,-182.1,-15.3,,,,,x,
1294215,3.1952798,8.128165,-2.9171433,0.617382,0.388722,-2.141782,62.7,-167.70001,-20.7,,,,,x,
1294277,2.4248717,9.3130865,-3.8711812,1.8978779,-1.021348,-0.11432999,72.3,-167.70001,-18.300001,,,,,,
1294387,1.6765947,9.098352,-3.3938632,-0.26677,0.640248,-0.716468,69.9,-167.70001,-12.900001,,,,,,
1294407,1.8560376,8.998463,-3.0176313,-0.221038,0.33536798,-0.891774,74.700005,-182.1,-20.1,,,,,,
1294450,1.5659384,8.576772,-2.8800583,-0.251526,1.3719599,-0.594516,77.100006,-158.1,-17.7,,,,,,
1294470,1.4510949,8.79629,-2.9219284,-0.16768399,1.318606,-0.35061198,67.5,-174.90001,-12.900001,,,,,,
1294490,1.4343468,8.905152,-2.7783742,-0.243904,1.044214,-0.503052,86.700005,-165.3,-22.5,,,,,,
1294512,1.5234702,8.856105,-2.735906,-0.28201398,1.1280559,-0.731712,65.100006,-170.1,-15.900001,,,,,,
1294532,1.4217858,8.871656,-2.8633103,-0.312502,1.41007,-0.68597996,86.700005,-177.3,-13.500001,,,,,,
1294552,1.3631679,9.020595,-3.0421553,-0.289636,1.432936,-0.55640596,67.5,-165.3,-24.300001,,,,,,
1294572,1.4217858,9.034949,-2.9261155,-0.060976,1.1280559,-0.67835796,77.100006,-172.5,-22.5,,,,,,
1294592,1.4905723,9.072633,-2.8770678,0.091464,0.93750596,-0.81555396,65.100006,-172.5,-25.500002,,,,,,
1294612,1.3547938,8.963172,-2.705999,-0.030488,0.87653,-0.861286,60.300003,-165.3,-20.1,,,,,,
1294632,1.2895962,9.014014,-2.790935,-0.221038,0.82317597,-0.731712,69.9,-172.5,-18.900002,,,,,,
1294652,1.1143403,8.734084,-2.8722825,-0.274392,0.68597996,-0.739334,86.700005,-167.70001,-15.3,,,,,,
1294672,1.1179292,8.981116,-2.7676075,-0.03811,0.221038,-0.320124,81.9,-170.1,-16.5,,,,,,
1294692,1.159201,9.143811,-2.7137747,-0.22865999,0.221038,-0.251526,77.100006,-155.70001,-18.900002,,,,,,
1294712,1.1286958,9.240711,-2.7538502,-0.632626,0.358234,-0.56402797,81.9,-170.1,-16.5,,,,,,
1294732,1.2058562,8.953602,-2.774187,-0.80793196,0.358234,-1.1204339,72.3,-155.70001,-12.900001,,,,,,
1294796,1.2525114,9.2377205,-2.7000175,0.289636,0.243904,0.221038,89.100006,-162.90001,-13.500001,,,,,,
1294816,1.2034637,9.383667,-2.7490652,-0.17530599,0.754578,-0.053354,74.700005,-170.1,-21.300001,,,,,,
1294858,1.1615937,9.052296,-2.6880546,-0.708846,0.846042,-0.22865999,77.100006,-160.5,-16.5,,,,,,
1294878,1.2776334,9.296338,-2.7299244,-1.051836,0.769822,-0.137196,81.9,-172.5,-16.5,,,,,x,
1294941,1.4158044,8.732887,-2.1281927,-0.82317597,0.358234,-0.213416,74.700005,-155.70001,-20.7,,,,,x,
1294989,1.0910128,8.446975,-2.1868107,-0.70122397,0.579272,-0.23628199,77.100006,-165.3,-17.1,,,,,x,
1295009,1.2459319,9.530212,-2.4984431,-0.47256398,0.663114,0.579272,81.9,-182.1,-15.900001,,,,,x,
1295049,0.5419175,9.754516,-2.3668518,-0.358234,-0.07622,0.221038,89.100006,-158.1,-16.5,,,,,x,
1295069,0.53892684,10.697787,-2.0600045,-0.617382,-1.1128119,1.227142,79.5,-172.5,-13.500001,,,,,x,
1295109,0.16628374,10.16544,-1.7262406,-3.2012398,-0.967994,1.1128119,74.700005,-174.90001,-18.900002,,,,,x,
1295172,-0.062206868,7.424749,-1.3201015,-1.303362,-8.399444,1.6082419,81.9,-172.5,-21.300001,,,,,x,
1295351,2.2813172,2.1975772,-0.44741094,2.035074,-5.0533857,-1.6158639,69.9,-170.1,-27.300001,,,,,x,
1295372,2.1814275,2.8752732,-0.9564306,2.454284,-4.30643,-1.18141,77.100006,-172.5,-30.300001,,,,,x,
1295415,1.2794278,5.6787696,-1.2848111,3.46801,-3.513742,-0.891774,69.9,-170.1,-17.1,,,,,x,
1295435,0.836802,6.2272663,-2.4446104,2.32471,-1.158544,-2.43904,81.9,-172.5,-23.7,,,,,x,
1295476,0.86132586,4.662524,-6.62563,6.5396757,4.23021,-0.55640596,74.700005,-165.3,-16.5,,,,,x,
1295498,1.7926345,8.010929,-6.6453686,4.626554,0.41921,3.8186219,86.700005,-155.70001,-19.5,,,,,x,
1295518,3.3226843,11.006429,-6.2828937,1.8978779,2.40093,2.01983,67.5,-162.90001,-17.7,,,,,x,
1295538,2.1563053,10.161851,-7.941544,4.054904,6.44059,-3.574718,67.5,-170.1,-18.300001,,,,,x,
1295580,2.4093199,10.237217,-6.6465645,0.769822,-3.955818,-3.102154,77.100006,-160.5,-11.700001,,,,,x,
1295600,2.6156793,13.069424,-5.1512074,-0.716468,2.32471,-4.519846,98.700005,-162.90001,-29.7,,,,,x,
1295620,1.2578946,11.335407,-7.5694995,1.250008,13.628136,-9.832379,96.3,-153.3,-17.7,,,,,x,
1295644,0.061010584,7.7471476,-10.355051,4.176856,9.931466,-7.957368,93.9,-158.1,-14.700001,,,,,x,
1295664,0.56285256,11.332417,-8.973939,0.045732,0.94512796,-1.02897,105.9,-141.3,-12.3,,,,,x,
1295704,-0.18662061,11.290546,-6.3139973,-0.80030996,10.830862,-11.181474,110.700005,-160.5,-9.900001,,,,,x,
1295767,1.2584928,17.424503,-7.455254,-6.28815,-1.06708,4.9161897,115.50001,-153.3,-12.3,,,,,x,
1295787,-1.0024877,13.736952,-4.278517,-4.070148,2.675322,-6.4634557,113.100006,-150.90001,-8.1,,,,,x,
1295827,-0.3259879,15.395602,-8.886012,0.548784,12.65252,3.2088618,125.100006,-148.5,-3.3000002,,,,,x,
