time,sensor_accX,sensor_accY,sensor_accZ,sensor_gyroX,sensor_gyroY,sensor_gyroZ,sensor_magX,sensor_magY,sensor_magZ,label_Boxing_slip_left,label_Boxing_slip_right,label_Boxing_pullback,label_Boxing_roll_left,label_Boxing_roll_right,label_Boxing_recording_cut
1772900,3.1653726,9.145606,-2.4093199,0.19055,-1.318606,0.015244,79.5,-165.3,-18.300001,,,,,,
1772921,2.6306329,9.032557,-2.6168754,-0.594516,-1.211898,-1.8369019,77.100006,-158.1,-20.7,,,,,,
1772961,2.134174,10.195347,-2.6946342,1.150922,-2.2713559,0.617382,74.700005,-179.70001,-18.300001,,,,,,
1773004,0.75605273,9.910032,-3.5529692,0.030488,-0.868908,-1.173788,81.9,-167.70001,-17.1,,,,,,
1773024,0.7835673,9.949511,-3.3938632,0.7622,-2.187514,-0.830798,101.100006,-172.5,-12.900001,,,,,,
1773087,-0.4216908,10.36163,-3.3795078,1.044214,-1.821658,-1.173788,91.5,-162.90001,-20.7,,,,,,
1773154,-1.740596,8.50021,-3.196476,0.083841994,-0.068598,-2.606724,101.100006,-167.70001,-14.700001,,,,,,
1773259,-1.5527792,8.0522,-2.6623344,-0.45731997,-1.577754,-2.446662,101.100006,-165.3,-18.900002,,,,,,
1773279,-1.5031333,8.141922,-2.560052,-0.769822,-1.6006199,-1.6311079,117.9,-167.70001,-19.5,,,,,,
1773319,-1.5456015,8.345889,-2.4236753,-0.28201398,-1.699706,-1.3414719,122.700005,-172.5,-12.900001,,,,,,
1773398,-0.8397927,10.006932,-3.020622,0.320124,0.40396598,-1.3872039,122.700005,-155.70001,-14.700001,,,,,,
1773493,-0.45399052,8.184988,-3.1109416,0.3811,2.2713559,-1.227142,134.70001,-153.3,-17.1,,,,,,
1773517,0.31163248,9.784423,-3.6696072,0.251526,3.3155699,-0.56402797,137.1,-150.90001,-12.900001,,,,,,
1773559,1.1137422,9.784423,-4.0135393,0.510674,2.065562,-0.68597996,129.90001,-153.3,-20.1,,,,,,
1773623,1.0359837,8.743055,-3.9208272,0.030488,1.8292799,-0.594516,129.90001,-143.70001,-12.900001,,,,,,
1774101,-2.0097604,7.632304,-2.9972944,-0.487808,-1.3490939,-1.760682,132.3,-158.1,-11.700001,,,,,,
1774157,-1.1071626,8.678456,-2.77,0.160062,0.15244,1.3872039,120.3,-155.70001,-14.1,,,,,,
1774177,-0.9325049,9.866966,-3.162382,-0.28201398,0.716468,0.57164997,134.70001,-158.1,-9.900001,,,,,,
1774219,-0.85833514,8.836366,-3.0882123,0.053354,0.26677,-0.182928,132.3,-158.1,-11.700001,,,,,,
1774261,-0.9725805,8.884816,-3.2993567,-0.92988396,1.006104,-0.243904,134.70001,-150.90001,-13.500001,,,,,,
1774338,0.0891233,9.741357,-3.28859,-0.160062,1.478668,0.907018,127.50001,-155.70001,-15.3,,,,,,
1774358,0.4815051,10.68403,-3.6995144,-0.35061198,2.126538,0.137196,129.90001,-165.3,-11.1,,,,,,
1774400,-0.45458865,9.174915,-4.5416994,1.25763,0.625004,-1.1051899,139.5,-160.5,-15.900001,,,,,,
1774440,-0.30684733,9.275403,-4.13257,0.594516,-1.242386,-0.320124,115.50001,-148.5,-10.5,,,,,,
1774698,-0.48808467,9.476977,-3.9806414,-0.960372,1.478668,0.46494198,132.3,-153.3,-14.700001,,,,,,
1774717,-0.49944937,9.106727,-3.823928,-0.861286,0.95274997,0.632626,134.70001,-160.5,-16.5,,,,,,
1774757,-0.22729433,9.597802,-3.4919586,-1.204276,1.310984,1.471046,132.3,-141.3,-14.1,,,,,,
1774819,-0.28351977,8.80287,-2.9476485,-1.1128119,1.089946,-0.15244,127.50001,-148.5,-12.900001,,,,,,
1774861,-0.4067372,8.753224,-3.0026777,-0.82317597,0.53354,0.41158798,134.70001,-148.5,-14.700001,,,,,,
1775000,0.04605701,8.988893,-3.2993567,0.22865999,0.022866,-0.19055,132.3,-160.5,-12.900001,,,,,,
1775021,-0.03229972,9.121082,-3.338834,0.030488,0.091464,-0.274392,117.9,-153.3,-14.1,,,x,,,
1775061,-0.05084215,8.813637,-3.1737466,-0.388722,0.16768399,-0.213416,117.9,-150.90001,-17.7,,,x,,,
1775103,-0.1016843,9.12826,-3.4106112,-0.480186,0.541162,-0.091464,127.50001,-160.5,-17.7,,,x,,,
1775144,-0.117834166,9.046314,-3.2772253,0.274392,-0.053354,-0.182928,125.100006,-146.1,-17.1,,,x,,,
1775199,-0.67291087,8.756215,-3.4189851,-0.327746,0.35061198,-0.548784,132.3,-158.1,-12.900001,,,x,,,
1775234,-1.439132,8.540883,-3.5637357,-0.68597996,0.442076,-0.053354,132.3,-150.90001,-11.1,,,x,,,
1775296,-4.929296,9.50509,-4.9394646,-2.36282,2.2942219,-0.121952,117.9,-158.1,-15.900001,,,x,,,
1775316,-5.937765,8.932069,-5.0525136,-2.7896519,2.59148,-0.960372,125.100006,-148.5,-21.900002,,,x,,,
1775336,-7.497722,8.616848,-6.0346646,-0.95274997,4.771372,0.045732,125.100006,-150.90001,-18.300001,,,x,,,
1775379,-5.324669,10.01411,-4.7043943,-3.3155699,-3.948196,-0.083841994,129.90001,-158.1,-20.1,,,x,,,
1775475,-2.3794127,4.919128,-1.873982,0.449698,-4.855214,1.661596,122.700005,-153.3,-17.7,,,x,,,
1775495,-0.36905423,5.41439,-0.8643166,0.0,-3.8033779,3.62045,129.90001,-160.5,-21.300001,,,x,,,
1775539,3.070866,5.722434,-0.4593738,-4.161612,0.769822,7.35523,105.9,-165.3,-14.700001,,,x,,,
1775601,5.90726,9.401013,-1.2094451,-3.12502,0.731712,8.711946,81.9,-174.90001,-17.1,,,x,,,
1775621,6.8547187,9.4757805,-1.0957979,-1.516778,-0.19055,8.086942,72.3,-170.1,-21.300001,,,x,,,
1775661,7.3739066,10.553037,-2.2113345,-0.30488,-0.030488,6.303394,57.9,-170.1,-20.1,,,x,,,
1775705,8.222074,10.801864,-2.1640813,0.746956,-1.8750119,4.184478,41.100002,-167.70001,-20.1,,,x,,,
1775917,6.149508,9.86278,-2.5379207,0.93750596,-0.510674,-2.7058098,43.5,-177.3,-20.1,,,x,,,
1776078,0.13518031,5.5382056,-1.5761068,0.053354,1.661596,-5.121984,93.9,-162.90001,-17.7,,,x,,,
1776098,-1.2034637,5.2654524,-1.7758865,0.503052,2.2637339,-3.6738038,86.700005,-160.5,-18.300001,,,x,,,
1776140,-2.4374325,7.9756384,-3.0935955,1.1204339,2.347576,-0.45731997,89.100006,-162.90001,-11.700001,,,x,,,
1776182,-3.3119175,8.18439,-3.5840726,0.884152,0.23628199,-0.92988396,108.3,-162.90001,-21.900002,,,x,,,
1776281,-3.4297519,9.985997,-4.3054333,0.640248,-1.234764,-0.20579399,108.3,-162.90001,-22.5,,,x,,,
1776318,-2.589361,10.161851,-3.6923366,-0.083841994,-1.996964,-0.53354,98.700005,-155.70001,-14.700001,,,x,,,
1776338,-2.0390694,10.091868,-3.564932,-0.655492,-0.99086,-0.777444,105.9,-170.1,-20.1,,,x,,,
1776380,-1.4983481,9.34718,-3.2365515,-0.41921,-0.868908,-1.3719599,105.9,-167.70001,-14.1,,,x,,,
1776401,-1.276437,8.931471,-3.0295942,-0.19055,-0.70122397,-1.059458,110.700005,-160.5,-17.7,,,x,,,
1776442,-0.69803286,8.917713,-3.1450357,-0.617382,0.07622,0.221038,105.9,-165.3,-17.7,,,x,,,
1776462,-0.32897863,8.936256,-3.1887002,-0.327746,-0.243904,0.57164997,122.700005,-160.5,-12.3,,,,,,
1776482,0.24882747,9.34419,-2.982939,-0.121952,-0.510674,0.792688,89.100006,-167.70001,-18.900002,,,,,,
1776502,0.5514878,9.166541,-3.0379682,-0.67835796,0.060976,0.198172,120.3,-160.5,-18.300001,,,,,,
1776566,0.9019996,8.806459,-2.8938158,-0.34298998,0.625004,-0.17530599,103.50001,-165.3,-18.300001,,,,,,
1776586,0.8206521,8.899769,-2.9637985,-0.28201398,0.69360197,-0.289636,113.100006,-167.70001,-15.3,,,,,,
1776650,0.81227815,9.078614,-2.941069,0.068598,0.449698,-0.243904,105.9,-158.1,-12.3,,,,,,
1776679,0.581395,9.137232,-3.07924,0.15244,-0.053354,-0.640248,103.50001,-162.90001,-17.1,,,,,,
1776719,0.45757937,9.1192875,-2.9392745,0.34298998,-0.41158798,-0.47256398,113.100006,-162.90001,-17.7,,,,,,
1776741,0.3367545,9.247889,-3.0684733,0.0,-0.11432999,-0.33536798,108.3,-174.90001,-17.7,,,,,,
1776762,0.28710863,9.058277,-3.13726,-0.03811,0.045732,-0.083841994,105.9,-148.5,-16.5,,,,,,
1776802,0.33316565,9.120484,-3.0941937,-0.137196,0.0,0.129574,110.700005,-160.5,-15.3,,,,,,
1776822,0.3660635,8.840553,-2.9919112,-0.198172,-0.23628199,0.091464,113.100006,-167.70001,-16.5,,,,,,
1776842,0.5335435,8.8704605,-2.886638,-0.22865999,-0.373478,0.16768399,105.9,-158.1,-14.700001,,,,,,
1776882,0.5610581,8.784925,-2.874675,-0.15244,-0.442076,0.11432999,122.700005,-167.70001,-17.7,,,,,,
1776941,0.36785793,8.753224,-2.9165452,-0.160062,-0.243904,-0.221038,115.50001,-153.3,-13.500001,,,,,,
1777060,0.15551718,9.124671,-3.1157267,-0.022866,0.28201398,-0.49543,110.700005,-158.1,-17.7,,,,,,
1777155,0.12142302,9.15398,-3.087614,-0.45731997,0.69360197,-0.33536798,110.700005,-165.3,-17.1,,,,,,
1777179,0.10288059,8.908143,-2.9512374,-0.259148,0.56402797,-0.099086,108.3,-153.3,-22.5,,,,,,
1777221,0.23746276,9.127662,-2.9739668,0.03811,0.26677,0.28201398,103.50001,-160.5,-14.700001,,,,,,
1777241,0.30086592,9.159962,-2.9566207,-0.060976,0.19055,0.16768399,110.700005,-160.5,-17.7,,,,,,
1777261,0.34034336,9.100147,-3.07924,-0.20579399,0.19055,0.091464,101.100006,-160.5,-11.700001,,,x,,,
1777281,0.37324122,8.933864,-3.015837,-0.16768399,0.022866,0.022866,113.100006,-162.90001,-14.700001,,,x,,,
1777341,0.49466425,9.115699,-3.0846233,-0.297258,0.15244,-0.091464,103.50001,-165.3,-17.1,,,x,,,
1777361,0.40434465,8.703578,-3.0020795,-0.49543,0.07622,-0.35061198,105.9,-153.3,-17.1,,,x,,,
1777381,0.21174261,8.653335,-2.97935,-0.30488,0.144818,-0.007622,113.100006,-167.70001,-14.1,,,x,,,
1777401,-0.21413518,8.803469,-3.0929973,-0.41921,0.373478,0.289636,108.3,-165.3,-13.500001,,,x,,,
1777461,-3.2987585,9.369311,-3.899892,-0.80030996,1.8902559,1.280496,101.100006,-160.5,-14.1,,,x,,,
1777518,-4.9962883,9.978221,-5.618955,-2.111294,2.949714,-1.25763,108.3,-167.70001,-12.900001,,,x,,,
1777579,-4.573401,9.421948,-4.535718,-3.346058,0.80030996,4.4664917,96.3,-167.70001,-11.1,,,x,,,
1777600,-3.5416045,9.218579,-4.063783,-3.12502,-0.388722,4.123502,91.5,-158.1,-18.300001,,,x,,,
1777620,-2.81187,8.123978,-3.463846,-3.16313,-0.983238,2.103672,86.700005,-170.1,-17.1,,,x,,,
1777660,-1.0174412,5.4700174,-1.5796956,-1.6311079,-2.873494,0.907018,96.3,-165.3,-26.1,,,x,,,
1777695,0.71478087,6.0561976,-1.2537076,-1.455802,-2.40093,2.919226,91.5,-165.3,-24.300001,,,x,,,
1777716,1.5330404,5.429942,-1.0270115,-1.745438,-1.478668,3.7500238,74.700005,-177.3,-18.900002,,,x,,,
1777757,4.188795,7.689128,-0.8152689,-1.920744,-0.259148,6.78358,74.700005,-170.1,-22.5,,,x,,,
1777799,5.5447855,8.490042,-2.2813172,-0.68597996,-0.640248,6.4329677,50.7,-165.3,-24.300001,,,x,,,
1777819,7.0233946,8.971546,-1.074863,-1.570132,-2.873494,6.74547,45.9,-172.5,-24.900002,,,x,,,
1777861,7.150201,8.9787245,-1.3763269,-1.8902559,0.426832,4.428382,55.500004,-170.1,-23.7,,,x,,,
1777881,7.660417,8.86089,-1.4540856,-0.846042,-0.07622,3.338436,41.100002,-182.1,-18.900002,,,x,,,
1777902,8.010929,8.863881,-0.9618139,-0.099086,0.11432999,3.2469718,41.100002,-172.5,-24.300001,,,x,,,
1777942,7.459441,9.83048,-2.2532046,0.868908,2.957336,2.431418,29.1,-165.3,-12.900001,,,x,,,
1777983,7.661015,10.541672,-2.0306954,-0.884152,2.2027578,3.147886,24.300001,-182.1,-26.7,,,x,,,
1778023,6.9761415,9.677355,-2.196381,-1.021348,1.6387299,0.22865999,5.1000004,-174.90001,-29.7,,,x,,,
1778239,3.8263206,6.890009,-1.2572966,2.7286758,0.144818,-6.272906,48.300003,-174.90001,-23.1,,,x,,,
1778259,3.0050702,6.095077,-1.2644743,2.370442,-0.213416,-6.295772,48.300003,-177.3,-20.7,,,x,,,
1778299,0.26079035,5.8707733,-1.8099806,2.644834,0.23628199,-4.984788,53.100002,-167.70001,-17.7,,,x,,,
1778319,-1.1819305,7.3649344,-2.7538502,2.050318,1.951232,-4.809482,65.100006,-170.1,-17.7,,,x,,,
1778342,-1.5234702,8.091678,-3.6032133,0.67073596,0.792688,-6.067112,79.5,-172.5,-14.700001,,,x,,,
1778366,-2.2597842,8.356057,-3.2389443,0.289636,0.30488,-5.5183277,81.9,-172.5,-16.5,,,x,,,
1778387,-2.8674974,8.853114,-3.5404081,-0.739334,1.737816,-5.388754,81.9,-167.70001,-17.1,,,x,,,
1778407,-3.1707559,8.137137,-3.6199613,-0.99086,0.792688,-5.701256,89.100006,-160.5,-24.300001,,,x,,,
1778427,-3.4488924,7.6693892,-3.2861974,0.030488,-0.68597996,-4.45887,96.3,-165.3,-16.5,,,x,,,
1778448,-3.4692292,8.238821,-3.7072902,0.23628199,-0.007622,-2.926848,98.700005,-172.5,-15.900001,,,x,,,
1778468,-3.2730384,9.140223,-4.3150034,1.44818,-0.503052,-1.478668,103.50001,-165.3,-14.700001,,,x,,,
1778488,-2.3961608,9.956688,-3.9698749,1.692084,-2.865872,-1.006104,98.700005,-177.3,-14.1,,,x,,,
1778508,-2.3112245,9.77246,-3.4076204,0.861286,-2.2637339,-1.577754,103.50001,-150.90001,-16.5,,,x,,,
1778530,-2.2992616,9.846031,-4.120607,1.303362,0.106708,-1.265252,108.3,-158.1,-20.7,,,x,,,
1778550,-2.3830016,9.896873,-4.0578017,1.326228,-0.11432999,-1.4024479,98.700005,-165.3,-18.300001,,,x,,,
1778570,-2.329767,9.974632,-4.2222915,1.3872039,0.327746,-1.463424,105.9,-162.90001,-12.3,,,x,,,
1778592,-2.0289009,9.27002,-3.9555194,1.310984,-0.70122397,-1.33385,108.3,-153.3,-12.900001,,,x,,,
1778613,-1.4941611,9.407593,-3.6791775,0.853664,-0.80793196,-0.87653,110.700005,-160.5,-11.1,,,x,,,
1778654,-0.9654028,8.95121,-3.5338287,-0.17530599,-0.579272,0.137196,105.9,-162.90001,-15.900001,,,x,,,
1778674,-0.67171454,9.162952,-3.4351351,-0.41921,-0.480186,0.487808,108.3,-167.70001,-17.7,,,x,,,
1778697,-0.29847333,9.230542,-3.3196936,-0.625004,-0.67073596,0.388722,120.3,-153.3,-16.5,,,,,,
1778718,-0.013757288,9.132447,-3.083427,-0.55640596,-0.746956,0.15244,115.50001,-162.90001,-12.3,,,,,,
1778738,0.16209674,9.1192875,-2.8854418,-0.56402797,-0.46494198,-0.083841994,101.100006,-153.3,-14.700001,,,,,,
1778758,0.3146232,9.158765,-2.894414,-0.40396598,-0.091464,-0.23628199,101.100006,-158.1,-11.700001,,,,,,
1778780,0.36307278,8.949415,-2.8064868,-0.289636,0.289636,-0.373478,105.9,-167.70001,-15.900001,,,,,,
1778800,0.1752559,8.482265,-2.8896286,-0.40396598,0.487808,-0.49543,122.700005,-158.1,-12.900001,,,,,,
1778822,0.33137122,8.796888,-2.9524338,0.144818,0.053354,0.320124,115.50001,-162.90001,-18.900002,,,,,,
1778842,0.34632477,8.815431,-2.907573,-0.160062,0.22865999,0.3811,120.3,-160.5,-21.900002,,,,,,
1778862,0.3714468,8.997865,-3.0068648,-0.083841994,0.28201398,0.365856,108.3,-177.3,-15.900001,,,,,,
1778884,0.5933578,9.351367,-3.1241007,-0.099086,0.41158798,0.007622,93.9,-155.70001,-16.5,,,,,,
1778904,0.5449082,9.1731205,-2.8974047,-0.442076,0.053354,-0.320124,113.100006,-158.1,-15.3,,,,,,
1778927,0.51799184,9.3998165,-3.116325,-0.594516,0.28201398,-0.3811,101.100006,-162.90001,-13.500001,,,,,,
1778948,0.5257677,8.9242935,-2.9183395,-0.716468,-0.434454,-0.72409,115.50001,-146.1,-25.500002,,,,,,
1778971,0.77758586,9.004444,-2.6892507,-0.53354,-0.640248,-0.297258,98.700005,-160.5,-17.7,,,,,,
1778991,0.6669294,8.930873,-2.7137747,-0.60976,-0.259148,-0.373478,120.3,-160.5,-19.5,,,,,,
1779011,0.5150011,8.571987,-2.8429735,-0.198172,-0.099086,-0.57164997,120.3,-150.90001,-21.300001,,,,,,
1779032,0.67889225,8.801076,-2.8752732,0.60976,-0.274392,-0.053354,110.700005,-162.90001,-11.700001,,,,,,
1779052,0.86132586,9.22157,-2.8525438,0.365856,0.213416,0.144818,122.700005,-155.70001,-16.5,,,,,,
1779076,0.94985104,9.418958,-2.991313,-0.221038,0.785066,0.144818,101.100006,-165.3,-13.500001,,,,,,
1779096,0.9510473,9.7670765,-3.154606,-0.87653,1.196654,-0.11432999,103.50001,-158.1,-14.700001,,,,,,
1779116,0.7315289,9.246094,-3.016435,-1.3490939,1.310984,-1.29574,113.100006,-165.3,-15.3,,,,,,
1779138,0.47731808,8.606081,-3.0965862,-1.1051899,0.975616,-0.777444,125.100006,-158.1,-15.3,,,,,,
1779158,0.46176636,9.002051,-2.8471606,-1.1356779,0.480186,-0.099086,115.50001,-155.70001,-21.300001,,,,,,
1779199,0.22908875,9.23473,-2.7353077,-0.853664,0.030488,-0.327746,125.100006,-158.1,-19.5,,,,,,
1779222,0.09211402,8.726308,-2.7963183,-0.777444,0.030488,-0.891774,120.3,-160.5,-19.5,,,,,,
1779242,0.18602246,8.738869,-2.719158,0.060976,-0.830798,-0.07622,125.100006,-160.5,-18.900002,,,,,,
1779262,0.3923818,8.897975,-2.4930599,0.388722,-0.632626,0.083841994,120.3,-155.70001,-13.500001,,,,,,
1779282,0.40554094,9.155774,-2.5558648,0.426832,-0.41921,0.3811,125.100006,-138.90001,-14.1,,,,,,
1779303,0.17346147,8.951808,-2.4966488,-0.068598,-0.160062,0.182928,110.700005,-158.1,-19.5,,,,,,
1779323,0.14056359,9.018202,-2.6665213,0.182928,-0.11432999,0.33536798,108.3,-160.5,-14.700001,,,,,,
1779385,0.026318291,9.298133,-2.9907148,0.19055,-0.46494198,-0.03811,103.50001,-150.90001,-20.1,,,,,,
1779405,0.111254595,9.162952,-3.007463,0.099086,-0.69360197,-0.129574,108.3,-158.1,-14.700001,,,,,,
1779428,0.13159145,9.120484,-3.1528115,0.15244,-0.92226195,0.198172,120.3,-155.70001,-18.900002,,,,,,
1779448,0.28112718,9.266431,-2.9667892,0.07622,-1.29574,0.3811,113.100006,-158.1,-12.3,,,,,,
1779528,0.44920537,8.876442,-2.7586353,-0.11432999,0.060976,-0.060976,105.9,-160.5,-21.900002,,,,,,
1779553,0.41690564,9.072633,-2.7592335,0.068598,0.30488,-0.320124,105.9,-162.90001,-14.700001,,,,,,
1779573,0.2338739,8.833375,-2.7981129,0.022866,0.487808,-0.579272,110.700005,-162.90001,-8.1,,,x,,,
1779613,-0.29727706,8.694008,-2.8519456,-0.23628199,0.594516,-0.160062,120.3,-160.5,-18.900002,,,x,,,
1779633,-1.1400605,9.253272,-2.8902268,0.0,0.64787,0.625004,120.3,-155.70001,-16.5,,,x,,,
1779653,-2.3524964,10.882015,-2.948845,-0.525918,1.478668,1.150922,96.3,-160.5,-22.5,,,x,,,
1779673,-4.4394174,10.9980545,-3.3938632,-2.888738,3.39179,-0.68597996,120.3,-167.70001,-19.5,,,x,,,
1779693,-6.0376554,9.393237,-3.530838,-3.536608,5.282046,-2.827762,113.100006,-160.5,-21.300001,,,x,,,
1779734,-6.529927,9.462622,-5.7212377,-1.082324,0.586894,2.118916,115.50001,-150.90001,-20.1,,,x,,,
1779754,-5.3862777,9.72401,-5.7290134,-1.5244,0.022866,3.62045,105.9,-150.90001,-13.500001,,,x,,,
1779775,-4.8300047,8.666493,-5.392857,-0.830798,-1.082324,3.117398,113.100006,-170.1,-15.900001,,,x,,,
1779795,-3.6528592,8.403311,-4.559046,-0.23628199,-3.01069,2.385686,101.100006,-182.1,-21.300001,,,x,,,
1779815,-2.748467,7.116705,-3.6678126,0.022866,-2.583858,0.708846,103.50001,-155.70001,-13.500001,,,x,,,
1779835,-2.3542907,5.968271,-3.0965862,0.07622,-1.6082419,0.358234,98.700005,-162.90001,-16.5,,,x,,,
1779855,-1.5414144,5.5830665,-2.9380782,-0.28201398,-0.846042,1.8978779,96.3,-162.90001,-21.900002,,,x,,,
1779879,-0.60232997,4.9209223,-1.9732736,-1.189032,-1.25763,3.46801,101.100006,-167.70001,-20.1,,,x,,,
1779920,2.1329777,6.6740794,-1.0814425,-3.346058,-0.26677,8.071698,91.5,-167.70001,-12.900001,,,x,,,
1779941,4.36764,7.5413866,-1.0060765,-2.812518,-0.213416,9.67994,72.3,-170.1,-20.1,,,x,,,
1779961,5.7720795,9.44707,-0.5257677,-2.332332,-0.35061198,9.977198,50.7,-174.90001,-29.7,,,x,,,
1779981,6.147115,8.9356575,-0.8433816,-3.6966698,1.98172,8.147918,57.9,-167.70001,-19.5,,,x,,,
1780024,7.538396,9.125269,-1.1944915,-1.8978779,2.492394,7.263766,48.300003,-179.70001,-16.5,,,x,,,
1780044,6.3325396,8.421853,-2.020527,-2.027452,3.368924,5.4725957,31.500002,-179.70001,-20.7,,,x,,,
1780064,6.7518377,8.866273,-2.6096978,-0.083841994,1.425314,3.96344,29.1,-179.70001,-22.5,,,x,,,
1780084,8.476284,10.376584,-2.1102483,0.754578,-1.227142,4.184478,12.3,-174.90001,-17.7,,,x,,,
1780104,7.884721,10.253366,-1.4821982,-0.91463995,0.022866,3.056422,21.900002,-179.70001,-17.1,,,x,,,
1780128,6.945038,8.738271,-2.0695746,-1.440558,0.95274997,0.746956,9.900001,-172.5,-19.5,,,x,,,
1780148,7.936161,9.515857,-1.8979076,0.80793196,-0.16768399,1.097568,17.1,-155.70001,-16.5,,,x,,,
1780168,8.463723,10.4363985,-1.7495682,-0.541162,0.26677,1.3948259,0.3,-170.1,-21.900002,,,x,,,
1780191,7.5988083,9.826293,-2.2161198,-1.189032,0.47256398,0.899396,0.3,-179.70001,-20.1,,,x,,,
1780212,7.425347,9.509277,-1.757344,0.0,-0.769822,-1.036592,21.900002,-172.5,-19.5,,,x,,,
1780274,7.7710733,9.545165,-1.0072727,-0.121952,0.03811,-3.2850819,19.5,-167.70001,-24.900002,,,x,,,
1780294,6.342708,8.772963,-1.1723602,1.516778,-0.41921,-5.358266,21.900002,-170.1,-24.300001,,,x,,,
1780317,7.6586227,9.757506,-1.276437,2.385686,-2.164648,-5.815586,29.1,-158.1,-20.1,,,x,,,
1780337,8.29086,8.804067,0.21652776,1.8521459,-2.461906,-6.4939437,43.5,-170.1,-19.5,,,x,,,
1780359,6.066964,7.33742,0.105273165,0.746956,0.7622,-4.794238,45.9,-170.1,-21.900002,,,x,,,
1780379,5.6500583,8.919508,-1.1897063,1.41007,1.532022,-4.169234,45.9,-179.70001,-19.5,,,x,,,
1780399,5.1775255,7.501311,-0.82603544,1.44818,0.617382,-6.920776,48.300003,-170.1,-18.300001,,,x,,,
1780422,3.7330103,5.684751,-0.5377305,1.5244,0.541162,-6.775958,45.9,-170.1,-17.7,,,x,,,
1780442,2.4117124,5.1099353,-0.89183116,2.042696,1.1432999,-5.464974,72.3,-167.70001,-24.900002,,,x,,,
1780462,1.2949796,5.220592,-1.6155841,2.2180018,1.8597679,-4.817104,79.5,-162.90001,-15.3,,,x,,,
1780482,-0.08194559,5.8719697,-2.802898,2.7972739,3.2241058,-4.634176,69.9,-177.3,-17.7,,,x,,,
1780502,-1.0258152,6.91872,-4.2438245,3.140264,3.094532,-4.76375,81.9,-174.90001,-9.3,,,x,,,
1780522,-1.5384238,6.927692,-4.5620365,2.6829438,1.3567159,-4.817104,81.9,-165.3,-19.5,,,x,,,
1780544,-1.9906198,7.4546556,-4.886828,1.958854,1.432936,-3.96344,91.5,-160.5,-17.1,,,x,,,
1780564,-1.9481517,8.280093,-5.279808,1.684462,1.3414719,-3.3003259,89.100006,-153.3,-9.900001,,,x,,,
1780586,-2.4739194,8.810646,-4.8754635,0.87653,0.16768399,-3.422278,84.3,-165.3,-8.1,,,x,,,
1780628,-3.1892984,9.292749,-5.02799,0.45731997,1.150922,-4.298808,93.9,-153.3,-15.3,,,x,,,
1780648,-3.6893458,8.979322,-4.7755733,0.297258,0.579272,-4.359784,101.100006,-155.70001,-14.700001,,,x,,,
1780668,-3.7910302,9.591821,-4.919726,0.45731997,0.26677,-3.399412,105.9,-143.70001,-15.900001,,,x,,,
1780689,-3.2311683,9.764086,-4.2695446,-0.091464,-1.326228,-2.7362978,105.9,-167.70001,-12.3,,,x,,,
1780709,-3.1486247,9.035547,-3.7880394,-0.907018,-0.56402797,-2.7820299,110.700005,-148.5,-15.900001,,,x,,,
1780770,-1.9822458,9.142615,-3.832302,-0.297258,-1.189032,-1.730194,120.3,-158.1,-19.5,,,x,,,
1780836,-0.72853816,9.589428,-3.422574,-0.81555396,-1.036592,-0.22865999,129.90001,-153.3,-16.5,,,x,,,
1781000,-0.18901318,9.286768,-2.9093673,-0.320124,-0.655492,-0.434454,132.3,-150.90001,-15.900001,,,x,,,
1781020,-0.023327576,9.162952,-2.8417773,-0.57164997,-0.579272,-0.40396598,120.3,-158.1,-15.900001,,,x,,,
1781060,-0.15133017,8.832777,-2.9147508,-0.480186,-0.388722,0.15244,113.100006,-148.5,-20.7,,,x,,,
1781080,0.10048802,9.265833,-2.890825,-0.221038,-0.40396598,0.289636,129.90001,-155.70001,-11.700001,,,x,,,
1781104,0.3409415,9.549353,-2.8345995,-0.23628199,-0.137196,-0.030488,125.100006,-146.1,-15.3,,,,,,
1781124,0.38340965,9.078614,-3.0026777,-0.46494198,0.442076,-0.57164997,132.3,-148.5,-17.7,,,,,,
1781144,0.31761393,8.868666,-2.9476485,-0.312502,0.41921,-0.56402797,127.50001,-150.90001,-9.3,,,,,,
1781164,0.026916433,8.723317,-3.2030556,-0.449698,0.846042,-0.17530599,115.50001,-155.70001,-18.300001,,,,,,
1781184,0.08433816,8.580959,-3.3705356,0.731712,0.60976,-0.060976,120.3,-162.90001,-14.700001,,,,,,
1781207,-0.39836323,8.482863,-3.1815224,-0.03811,0.480186,0.312502,132.3,-143.70001,-13.500001,,,,,,
1781227,0.14116174,9.360937,-3.4237704,-0.320124,-0.243904,0.487808,129.90001,-167.70001,-18.900002,,,,,,
1781247,-0.0849363,7.943937,-2.9356856,0.625004,-1.1128119,-0.967994,125.100006,-155.70001,-14.700001,,,,,,
1781267,0.832615,9.855601,-3.1450357,-0.525918,-0.365856,2.423796,132.3,-158.1,-23.7,,,,,,
1781290,1.8051955,10.924483,-3.5027251,-0.022866,-0.60976,1.29574,132.3,-155.70001,-12.3,,,,,,
1781310,0.27993092,7.2680354,-2.2932801,-1.06708,-0.960372,-1.051836,113.100006,-153.3,-20.1,,,,,,
1781330,0.5754135,7.379888,-3.1133342,0.510674,0.861286,1.21952,115.50001,-160.5,-15.3,,,,,,
1781350,0.79553014,9.638475,-2.9392745,1.036592,0.060976,0.998482,117.9,-167.70001,-11.700001,,,,,,
1781370,0.27514577,8.932069,-3.1809244,0.312502,0.67835796,-1.44818,134.70001,-162.90001,-9.900001,,,,,,
1781390,0.17226517,8.782534,-3.2604773,0.46494198,0.579272,-1.806414,117.9,-155.70001,-15.900001,,,,,,
1781453,-0.48090696,9.119885,-3.116923,-0.586894,0.129574,-1.288118,110.700005,-153.3,-11.700001,,,,,,
1781553,-0.11364716,9.172523,-3.154008,0.625004,0.23628199,0.28201398,132.3,-141.3,-11.1,,,,,,
1781593,-0.22789247,9.328039,-3.2694495,0.91463995,-0.30488,-0.510674,129.90001,-155.70001,-15.3,,,,,,
1781613,-0.4521961,8.638381,-3.2730384,0.17530599,-0.068598,-0.365856,125.100006,-160.5,-8.1,,,,,,
1781657,0.07596416,9.080408,-3.213224,-0.373478,-0.426832,0.160062,122.700005,-150.90001,-15.3,,,,,,
1781717,0.28770676,9.116895,-2.9691818,-0.640248,0.137196,-0.07622,117.9,-155.70001,-18.300001,,,,,,
1781738,0.20815375,8.801674,-2.849553,-0.503052,0.198172,-0.23628199,127.50001,-158.1,-9.3,,,,,,
1781758,0.1321896,8.900966,-2.9057786,-0.20579399,0.289636,-0.22865999,122.700005,-155.70001,-9.900001,,,x,,,
1781778,0.08374002,8.973939,-2.9673872,0.068598,0.243904,-0.23628199,115.50001,-155.70001,-16.5,,,x,,,
1781800,0.024523862,9.130652,-2.9219284,0.129574,0.22865999,-0.358234,115.50001,-155.70001,-16.5,,,x,,,
1781820,-0.035290435,9.022986,-3.0517254,0.045732,0.17530599,-0.388722,117.9,-141.3,-9.900001,,,x,,,
1781840,-0.112450875,8.717336,-3.1558022,0.007622,0.11432999,-0.297258,129.90001,-150.90001,-17.7,,,x,,,
1781860,-0.20396675,8.883021,-3.1839151,0.289636,-0.20579399,0.0,132.3,-155.70001,-15.3,,,x,,,
1781880,-0.15671346,8.903956,-3.1241007,0.007622,-0.198172,0.022866,122.700005,-150.90001,-17.7,,,x,,,
1781903,-0.5455064,8.43262,-3.2233925,-0.41158798,0.17530599,-0.099086,132.3,-148.5,-13.500001,,,x,,,
1781923,-1.0132542,8.6329975,-3.5535674,-0.34298998,0.49543,0.388722,125.100006,-136.5,-17.1,,,x,,,
1781943,-1.5210776,8.682643,-3.7509546,-0.449698,0.17530599,0.579272,125.100006,-143.70001,-15.900001,,,x,,,
1782007,-4.2492075,7.7088666,-3.8179467,-1.3719599,1.21952,0.030488,122.700005,-148.5,-18.900002,,,x,,,
1782027,-5.635105,8.489443,-4.947839,-0.030488,3.597584,0.099086,125.100006,-153.3,-11.700001,,,x,,,
1782068,-5.784641,9.78203,-6.2637534,-0.93750596,0.41158798,0.617382,132.3,-155.70001,-4.5,,,x,,,
1782088,-5.6835546,8.576174,-5.930588,-1.21952,0.327746,1.5244,117.9,-155.70001,-15.3,,,x,,,
1782108,-4.657739,8.972743,-5.6841526,-1.036592,-0.41158798,2.408552,113.100006,-155.70001,-15.900001,,,x,,,
1782169,-2.7849536,6.062777,-4.0266986,0.503052,-1.044214,-2.393308,120.3,-165.3,-10.5,,,x,,,
1782201,-1.3583827,6.2314534,-2.037873,0.70122397,-3.003068,-0.07622,117.9,-155.70001,-15.3,,,x,,,
1782221,-0.3858022,5.7924166,-2.2221012,-0.731712,-1.29574,0.22865999,113.100006,-143.70001,-14.1,,,x,,,
1782261,2.4212828,7.7662883,-1.6753985,-1.3719599,-1.8826339,5.3811316,103.50001,-155.70001,-18.900002,,,x,,,
1782281,4.153505,8.479275,-1.0658908,-2.7820299,-1.570132,5.213448,110.700005,-158.1,-17.7,,,x,,,
1782321,5.6231422,10.0583725,-0.916355,-2.500016,0.80793196,6.654006,98.700005,-165.3,-19.5,,,x,,,
1782381,5.0525136,10.486045,-2.2149234,0.015244,0.503052,3.094532,91.5,-165.3,-17.1,,,x,,,
1782438,5.1254873,10.614645,-2.5032284,0.663114,-0.23628199,1.75306,93.9,-167.70001,-14.1,,,x,,,
1782457,4.987316,10.638571,-2.950041,0.541162,0.861286,2.149404,77.100006,-155.70001,-21.900002,,,x,,,
1782500,6.0137296,11.237312,-2.5744073,-0.213416,0.45731997,1.669218,81.9,-167.70001,-22.5,,,x,,,
1782520,6.66092,11.229536,-3.1276896,-1.6387299,2.500016,1.9054999,74.700005,-177.3,-15.3,,,x,,,
1782540,7.0096374,10.776144,-3.3525913,-1.455802,2.538126,2.2637339,67.5,-165.3,-20.1,,,x,,,
1782560,6.446187,10.166636,-2.8728807,-1.455802,1.501534,2.13416,77.100006,-167.70001,-17.7,,,x,,,
1782581,6.97016,10.722909,-3.401041,-1.417692,2.004586,1.242386,55.500004,-174.90001,-14.700001,,,x,,,
1782621,6.1267786,9.921397,-3.5882597,-0.060976,-0.022866,-0.083841994,62.7,-172.5,-16.5,,,x,,,
1782684,5.1272817,8.324356,-1.9343944,-2.164648,-0.983238,-5.198204,67.5,-167.70001,-23.1,,,x,,,
1782706,4.8078732,8.637783,-2.3351502,-1.577754,0.083841994,-2.987824,89.100006,-153.3,-17.7,,,x,,,
1782727,3.7515528,6.7685857,-1.836299,-1.6006199,-0.121952,-2.149404,84.3,-162.90001,-22.5,,,x,,,
1782747,3.795217,8.121585,-1.7017168,-0.792688,-0.365856,-0.053354,77.100006,-155.70001,-21.300001,,,x,,,
1782810,1.3446254,5.258275,-0.8350076,-0.93750596,-0.40396598,-3.498498,72.3,-160.5,-20.7,,,x,,,
1782855,-1.033591,5.996383,-2.1305852,0.129574,1.6082419,-2.530504,96.3,-174.90001,-27.300001,,,x,,,
1782917,-3.643887,6.805073,-3.6289334,0.67835796,1.661596,-0.998482,98.700005,-165.3,-17.7,,,x,,,
1783038,-3.4447055,10.033849,-4.6457763,0.67835796,0.083841994,-3.094532,96.3,-158.1,-15.3,,,x,,,
1783058,-3.1258953,10.591916,-4.4633427,0.487808,-0.007622,-2.500016,101.100006,-155.70001,-10.5,,,x,,,
1783098,-2.0899115,10.06555,-3.999184,-0.015244,-0.617382,-2.62959,113.100006,-158.1,-13.500001,,,x,,,
1783120,-1.6658282,9.409387,-3.5416045,-0.251526,-0.548784,-2.065562,103.50001,-162.90001,-10.5,,,x,,,
1783140,-1.0904146,9.710253,-3.317301,-0.365856,-0.19055,-1.250008,105.9,-153.3,-16.5,,,x,,,
1783160,-0.8571389,9.182093,-3.1480265,-0.769822,0.045732,-1.585376,103.50001,-160.5,-17.1,,,x,,,
1783180,-0.5658432,8.457144,-2.8686936,-0.69360197,-0.297258,-1.3872039,125.100006,-162.90001,-14.700001,,,x,,,
1783220,-0.21772404,8.845338,-2.677288,-0.67835796,0.26677,-0.480186,110.700005,-148.5,-15.3,,,x,,,
1783240,-0.0849363,8.671877,-2.6491752,-0.56402797,0.137196,-0.663114,115.50001,-155.70001,-15.900001,,,,,,
1783260,0.06519759,8.907545,-2.731719,-0.11432999,0.20579399,-0.480186,113.100006,-165.3,-15.3,,,,,,
1783280,0.1016843,9.134241,-2.8986008,-0.144818,0.358234,-0.373478,125.100006,-158.1,-15.3,,,,,,
1783342,0.43903694,8.891396,-2.9482467,0.3811,-0.144818,-0.16768399,127.50001,-160.5,-18.900002,,,,,,
1783362,0.5359361,9.314282,-3.0553143,0.396344,0.083841994,-0.068598,108.3,-167.70001,-17.1,,,,,,
1783382,0.49885124,9.185681,-3.179728,0.198172,0.221038,-0.541162,113.100006,-155.70001,-9.3,,,,,,
1783406,0.34213778,9.103736,-3.2168128,0.106708,0.129574,-0.68597996,120.3,-150.90001,-12.3,,,,,,
1783447,0.13458216,9.104933,-3.2580848,-0.20579399,0.07622,-0.586894,122.700005,-155.70001,-15.3,,,,,,
1783467,0.022729432,8.737075,-3.305936,-0.487808,0.068598,-0.579272,125.100006,-153.3,-16.5,,,,,,
1783488,0.09749731,8.823805,-3.3789096,-0.23628199,-0.137196,-0.137196,120.3,-165.3,-18.900002,,,,,,
1783508,0.17705032,8.87704,-3.2873938,-0.083841994,-0.442076,-0.022866,120.3,-150.90001,-16.5,,,,,,
1783530,0.27095875,8.906349,-3.184513,-0.091464,-0.396344,0.022866,120.3,-150.90001,-15.3,,,,,,
1783551,0.30684733,8.9141245,-3.1318767,-0.137196,-0.243904,-0.121952,113.100006,-148.5,-14.1,,,,,,
1783571,0.41989636,8.95121,-3.1145306,-0.213416,-0.007622,-0.251526,127.50001,-153.3,-19.5,,,,,,
1783591,0.3493155,9.014014,-3.150419,-0.20579399,0.137196,-0.388722,122.700005,-158.1,-23.1,,,,,,
1783611,0.23566833,9.063063,-3.2784216,-0.160062,0.11432999,-0.40396598,127.50001,-150.90001,-12.900001,,,,,,
1783631,0.13398403,8.879433,-3.2532997,-0.16768399,-0.121952,-0.3811,127.50001,-150.90001,-19.5,,,,,,
1783651,0.20097604,8.897377,-3.0565107,-0.106708,-0.297258,-0.312502,113.100006,-155.70001,-10.5,,,,,,
1783671,0.2087519,8.945827,-3.0804362,-0.198172,-0.106708,-0.45731997,113.100006,-155.70001,-20.7,,,,,,
1783691,0.05801987,8.9141245,-3.171354,-0.19055,0.083841994,-0.510674,125.100006,-150.90001,-16.5,,,,,,
1783711,-0.07835673,8.893787,-3.2443275,-0.26677,-0.015244,-0.41921,127.50001,-155.70001,-18.900002,,,,,,
1783751,0.09869359,9.019398,-2.9925094,-0.22865999,-0.007622,-0.20579399,134.70001,-167.70001,-20.7,,,,,,
1783771,0.112450875,8.988893,-3.0385664,-0.327746,0.373478,-0.320124,122.700005,-150.90001,-17.7,,,,,,
1783791,0.06459944,9.0433235,-3.070268,-0.243904,0.57164997,-0.449698,129.90001,-162.90001,-14.1,,,,,,
1783811,-0.04187001,8.911134,-3.099577,-0.20579399,0.67835796,-0.53354,120.3,-141.3,-20.1,,,,,,
1783831,-0.2619866,8.94762,-3.2371497,-0.015244,0.442076,-0.358234,115.50001,-150.90001,-16.5,,,,,,
1783851,-0.2296869,9.121082,-3.2485144,0.07622,0.312502,-0.129574,122.700005,-155.70001,-20.1,,,,,,
1783871,-0.25660333,9.039735,-3.137858,-0.251526,0.106708,-0.129574,129.90001,-148.5,-12.900001,,,,,,
1783892,-0.099889874,8.731691,-3.0571086,-0.259148,0.07622,0.28201398,122.700005,-160.5,-17.7,,,,,,
1783912,0.05024401,8.939247,-3.0720623,-0.106708,0.091464,0.3811,129.90001,-148.5,-18.900002,,,,,,
1783932,0.18183546,9.122278,-3.0283978,0.045732,0.19055,0.396344,125.100006,-162.90001,-10.5,,,,,,
1783993,0.25122005,9.012818,-3.1121378,0.068598,0.28201398,-0.022866,120.3,-153.3,-15.900001,,,,,,
1784013,0.21892032,9.1294565,-3.1462321,0.053354,0.274392,-0.045732,117.9,-155.70001,-15.900001,,,,,,
1784033,0.16090046,9.186279,-3.2329628,-0.022866,0.251526,-0.083841994,120.3,-153.3,-16.5,,,,,,
1784057,0.05682358,8.950611,-3.209037,-0.182928,0.099086,-0.213416,101.100006,-158.1,-11.1,,,,,,
1784077,0.16389118,9.005641,-3.1851113,-0.16768399,-0.007622,-0.11432999,113.100006,-153.3,-13.500001,,,,,,
1784097,0.14116174,9.087586,-3.099577,-0.221038,-0.030488,-0.15244,129.90001,-153.3,-5.7000003,,,,,,
1784118,0.05801987,8.959583,-3.2287757,-0.480186,0.022866,-0.17530599,117.9,-155.70001,-17.7,,,,,,
1784139,0.09031959,8.950611,-3.255094,-0.28201398,-0.129574,0.045732,132.3,-153.3,-11.700001,,,,,,
1784159,0.13458216,9.064259,-3.2311683,-0.198172,-0.251526,0.053354,113.100006,-146.1,-14.700001,,,,,,
1784179,0.17106889,8.942836,-3.2180092,-0.30488,-0.259148,0.007622,122.700005,-155.70001,-17.7,,,,,,
1784202,0.28232348,8.841749,-3.066679,-0.23628199,-0.068598,-0.144818,127.50001,-150.90001,-15.3,,,,,,
1784222,0.1698726,8.970948,-3.2072427,-0.388722,0.289636,-0.19055,120.3,-165.3,-17.7,,,,,,
1784242,0.043664437,9.127064,-3.3083289,-0.30488,0.20579399,-0.243904,115.50001,-160.5,-12.3,,,,,,
1784263,0.008972145,8.915321,-3.2186074,-0.34298998,0.045732,-0.487808,132.3,-158.1,-12.900001,,,,,,
1784283,-0.006579573,8.843544,-3.2251868,-0.320124,0.022866,-0.3811,120.3,-148.5,-20.7,,,,,,
1784303,-0.028112719,8.872853,-3.2527015,-0.23628199,-0.030488,-0.221038,127.50001,-162.90001,-12.900001,,,,,,
1784325,0.06878644,9.027174,-3.2329628,-0.091464,-0.07622,0.03811,134.70001,-150.90001,-9.900001,,,,,,
1784365,0.13697474,8.863881,-3.204252,-0.388722,0.17530599,-0.083841994,134.70001,-158.1,-15.900001,,,,,,
1784385,0.14295617,8.931471,-3.2078407,-0.16768399,0.259148,0.099086,127.50001,-158.1,-19.5,,,,,,
1784405,0.17047074,9.035547,-3.3041418,-0.15244,0.312502,0.07622,127.50001,-148.5,-18.300001,,,,,,
1784425,0.1321896,8.9464245,-3.3621616,-0.11432999,0.22865999,-0.099086,120.3,-150.90001,-17.7,,,,,,
1784445,0.11065645,8.82859,-3.4255648,-0.083841994,0.137196,-0.137196,117.9,-153.3,-16.5,,,,,,
1784465,0.22490175,8.884217,-3.3268712,0.015244,0.022866,0.045732,127.50001,-160.5,-19.5,,,,,,
1784485,0.22908875,8.913527,-3.301151,-0.099086,0.137196,-0.091464,113.100006,-150.90001,-11.1,,,,,,
1784505,0.24703304,9.077417,-3.3119175,-0.099086,0.198172,-0.259148,115.50001,-172.5,-15.900001,,,,,,
1784528,0.13338588,8.753224,-3.3693395,-0.525918,0.26677,-0.46494198,120.3,-148.5,-13.500001,,,,,,
1784548,0.13697474,8.813039,-3.3783114,-0.297258,0.297258,-0.221038,115.50001,-150.90001,-10.5,,,,,,
1784568,0.09630102,9.106727,-3.4195833,-0.259148,0.28201398,-0.373478,127.50001,-153.3,-17.7,,,,,,
1784591,0.03828115,8.9242935,-3.3651524,-0.30488,0.23628199,-0.56402797,122.700005,-153.3,-18.900002,,,,,,
1784611,0.021533147,8.745448,-3.2855992,-0.388722,0.251526,-0.53354,115.50001,-160.5,-15.900001,,,,,,
1784631,-0.04844958,8.683242,-3.322086,-0.434454,0.320124,-0.434454,115.50001,-160.5,-11.700001,,,,,,
1784651,-0.14594689,8.7412615,-3.3376377,-0.28201398,0.30488,-0.259148,120.3,-146.1,-11.1,,,,,,
1784715,-1.3506068,8.781935,-3.5786893,-0.57164997,1.1128119,0.137196,127.50001,-155.70001,-15.3,,,x,,,
1784735,-2.300458,9.684533,-4.1403456,-0.69360197,1.935988,0.20579399,120.3,-155.70001,-13.500001,,,x,,,
1784757,-3.6911402,9.863976,-4.7887325,-1.71495,2.431418,-0.358234,117.9,-160.5,-17.1,,,x,,,
1784778,-4.703198,9.378881,-5.004662,-1.8978779,2.332332,-0.41921,117.9,-150.90001,-14.700001,,,x,,,
1784798,-5.977243,9.479968,-5.080028,-1.67684,2.500016,0.221038,127.50001,-155.70001,-12.3,,,x,,,
1784818,-6.3869705,9.860985,-5.636301,-1.928366,3.2622159,1.211898,117.9,-158.1,-14.1,,,x,,,
1784839,-6.1321616,9.391443,-5.883334,-2.469528,1.417692,1.204276,110.700005,-158.1,-17.7,,,x,,,
1784899,-3.7461693,6.849335,-3.3184972,-2.2713559,-2.40093,0.95274997,122.700005,-162.90001,-15.3,,,x,,,
1784919,-2.8680956,5.8001924,-2.6240532,-2.073184,-2.538126,1.082324,115.50001,-172.5,-14.700001,,,x,,,
1784939,-1.8961133,5.6368995,-2.226288,-1.44818,-2.378064,2.073184,115.50001,-165.3,-18.900002,,,x,,,
1784959,-0.9253272,5.772678,-1.6185749,-2.103672,-2.408552,3.003068,105.9,-170.1,-25.500002,,,x,,,
1785021,2.2322695,6.8080635,-0.9564306,-2.179892,-1.196654,5.0533857,93.9,-165.3,-18.300001,,,x,,,
1785063,4.0225115,7.7321944,-0.635826,-0.716468,-1.966476,5.419242,93.9,-172.5,-17.1,,,x,,,
1785135,7.2560725,10.228245,-1.6592486,-0.007622,-0.56402797,6.9741297,67.5,-167.70001,-17.1,,,x,,,
1785155,7.964872,10.965755,-2.0097604,-1.272874,2.088428,7.0198617,67.5,-170.1,-17.1,,,x,,,
1785241,8.047416,11.656013,-2.1383612,-1.1128119,2.6981878,2.980202,43.5,-165.3,-26.1,,,x,,,
1785281,8.314187,10.832968,-2.606707,0.67073596,-0.739334,0.884152,43.5,-167.70001,-21.900002,,,x,,,
1785339,7.8458414,10.204319,-1.8297193,0.846042,-0.26677,-4.314052,43.5,-172.5,-21.300001,,,x,,,
1785434,5.1565905,8.412283,-1.4020472,0.891774,0.106708,-8.46042,55.500004,-165.3,-21.300001,,,x,,,
1785454,4.329359,7.0981627,-1.0485446,1.75306,-0.792688,-8.993959,65.100006,-172.5,-18.900002,,,x,,,
1785495,2.639605,6.237435,-1.6753985,2.370442,-0.03811,-5.769854,96.3,-160.5,-21.900002,,,x,,,
1785556,0.35290435,6.731501,-2.987126,1.554888,-0.358234,-4.443626,89.100006,-172.5,-20.7,,,x,,,
1785576,-0.76323044,5.0387564,-2.7831593,0.785066,-0.82317597,-4.756128,96.3,-160.5,-12.900001,,,x,,,
1785618,-2.1742496,6.2482014,-3.4207797,-0.67835796,0.602138,-1.539644,108.3,-160.5,-12.3,,,x,,,
1785675,-4.1427383,8.2011385,-4.2868905,-0.70122397,2.545748,-0.960372,110.700005,-167.70001,-16.5,,,x,,,
1785736,-4.158888,9.548156,-4.3054333,-0.617382,0.33536798,-2.93447,108.3,-160.5,-17.1,,,x,,,
1785802,-3.0523236,10.218077,-4.163075,0.3811,0.030488,-1.783548,110.700005,-155.70001,-21.300001,,,x,,,
1785823,-2.6037164,10.369407,-4.0099506,0.708846,-0.746956,-2.2561119,113.100006,-155.70001,-21.300001,,,x,,,
1785863,-1.836299,9.567297,-3.4626496,0.708846,-0.846042,-2.599102,132.3,-148.5,-12.3,,,x,,,
1785903,-1.6347247,9.152185,-3.1958778,-0.243904,0.830798,-1.6158639,137.1,-158.1,-16.5,,,x,,,
1786099,0.0035888578,8.974537,-3.0648847,-0.129574,-0.007622,0.64787,127.50001,-165.3,-18.300001,,,x,,,
1786120,0.031701576,8.881825,-2.9966962,0.045732,-0.35061198,0.602138,129.90001,-153.3,-18.900002,,,,,,
1786161,0.21353704,9.005042,-2.978154,-0.015244,-0.144818,0.068598,125.100006,-150.90001,-14.700001,,,,,,
1786201,0.06340315,8.911732,-3.0852215,-0.525918,-0.03811,-0.442076,122.700005,-148.5,-14.700001,,,,,,
1786221,0.14056359,8.834572,-3.0104535,-0.20579399,-0.053354,-0.11432999,134.70001,-148.5,-17.1,,,,,,
1786283,-0.06938458,8.80287,-3.0696697,-0.03811,0.20579399,-0.274392,129.90001,-155.70001,-17.1,,,,,,
1786357,-0.1752559,9.228748,-3.1934853,0.274392,0.182928,0.15244,125.100006,-158.1,-20.7,,,,,,
1786402,-0.19020946,9.027772,-3.1869059,0.022866,0.091464,0.07622,132.3,-153.3,-20.1,,,,,,
1786424,-0.19140574,9.015809,-3.1839151,0.15244,-0.022866,0.182928,129.90001,-153.3,-20.7,,,,,,
1786464,-0.15073203,8.97693,-3.171354,-0.060976,-0.083841994,0.083841994,120.3,-155.70001,-16.5,,,,,,
1786484,-0.20097604,9.098352,-3.267057,-0.137196,-0.053354,-0.007622,127.50001,-158.1,-15.900001,,,,,,
1786504,-0.19320019,9.104933,-3.2473183,-0.144818,-0.221038,-0.03811,134.70001,-158.1,-17.7,,,,,,
1786524,-0.055029154,9.015211,-3.2114296,-0.16768399,-0.28201398,-0.144818,127.50001,-158.1,-16.5,,,,,,
1786564,-0.11903045,8.94463,-3.3346472,0.045732,-0.26677,0.07622,122.700005,-162.90001,-12.3,,,,,,
1786584,0.07177716,9.100745,-3.196476,0.129574,-0.35061198,-0.007622,120.3,-150.90001,-15.3,,,,,,
1786624,-0.124413736,8.771169,-3.3280675,-0.480186,0.17530599,0.007622,113.100006,-153.3,-24.300001,,,,,,
1786644,-0.16508746,8.936854,-3.409415,-0.20579399,0.068598,0.30488,134.70001,-146.1,-14.700001,,,,,,
1786664,0.20277047,9.182691,-3.2790198,-0.091464,0.11432999,0.34298998,125.100006,-148.5,-9.3,,,x,,,
1786687,-0.08732887,9.438696,-3.2915807,-0.72409,0.731712,-0.144818,127.50001,-155.70001,-17.1,,,x,,,
1786707,-0.10826388,8.9787245,-3.222196,-0.846042,0.82317597,-0.884152,127.50001,-158.1,-15.3,,,x,,,
1786730,-0.06938458,8.761599,-3.0577068,-0.792688,0.80793196,-0.716468,122.700005,-158.1,-14.700001,,,x,,,
1786750,-0.062206868,8.956593,-3.091203,-0.853664,0.95274997,-0.34298998,129.90001,-146.1,-17.1,,,x,,,
1786770,-0.111254595,9.308301,-3.2204018,-0.60976,0.739334,-0.221038,122.700005,-160.5,-20.1,,,x,,,
1786790,-0.17346147,8.983509,-2.9966962,-0.594516,0.40396598,-0.663114,132.3,-162.90001,-20.7,,,x,,,
1786810,-0.14774132,8.616249,-2.9853315,-0.312502,0.625004,-0.3811,127.50001,-153.3,-17.7,,,x,,,
1786830,-0.10766573,8.717336,-2.9955,-0.358234,0.55640596,0.053354,134.70001,-146.1,-18.900002,,,x,,,
1786850,0.08254373,9.017005,-3.016435,-0.297258,0.23628199,0.289636,132.3,-141.3,-16.5,,,x,,,
1786870,-0.045458864,9.017604,-3.12111,-0.34298998,0.23628199,0.121952,125.100006,-155.70001,-14.1,,,x,,,
1786890,-0.11424531,8.869264,-3.070866,-0.19055,-0.099086,-0.099086,134.70001,-153.3,-11.700001,,,x,,,
1786910,-0.15432088,9.085194,-3.0385664,-0.26677,-0.129574,0.068598,122.700005,-162.90001,-21.300001,,,x,,,
1786930,-0.40135393,8.879433,-3.154606,-0.586894,-0.053354,0.015244,132.3,-153.3,-12.900001,,,x,,,
1786950,-0.81945586,8.941041,-3.1306803,-0.434454,-0.03811,0.47256398,132.3,-150.90001,-20.7,,,x,,,
1787035,-7.4444876,10.061961,-6.4288406,-0.121952,7.644866,-1.661596,113.100006,-155.70001,-20.1,,,x,,,
1787199,-0.14175989,6.5987134,-1.8022047,-0.60976,-0.121952,3.643316,89.100006,-167.70001,-19.5,,,x,,,
1787239,1.6239581,6.2691364,-1.1980804,-0.92226195,0.7622,4.108258,84.3,-165.3,-20.1,,,x,,,
1787280,3.2275794,6.8469424,-1.1263032,-1.204276,2.7667859,5.8765616,89.100006,-160.5,-16.5,,,x,,,
1787322,4.577588,8.104239,-2.4224792,-0.099086,2.7820299,5.9375377,67.5,-177.3,-20.7,,,x,,,
1787362,7.474395,10.479465,-1.2471281,-2.7667859,2.637212,7.789684,55.500004,-162.90001,-18.900002,,,x,,,
1787383,7.719633,9.977025,-1.6413043,-3.58234,2.583858,4.61131,41.100002,-170.1,-20.1,,,x,,,
1787424,8.282486,10.316172,-0.67709786,-2.118916,0.83842,3.536608,48.300003,-170.1,-14.700001,,,x,,,
1787466,8.656923,10.554831,-0.9450659,-1.326228,0.007622,1.234764,33.9,-182.1,-18.900002,,,x,,,
1787507,8.326748,10.367014,-1.1430513,0.030488,0.19055,0.396344,21.900002,-172.5,-20.7,,,x,,,
1787555,7.3457937,9.492529,-1.4816002,-0.312502,0.144818,-1.3719599,29.1,-179.70001,-14.1,,,x,,,
1787739,4.484876,8.491238,-1.9971994,0.70122397,-3.483254,-3.2927039,62.7,-174.90001,-13.500001,,,x,,,
1787859,-1.1346772,5.2558823,-0.9935155,0.053354,0.091464,-5.5945477,98.700005,-167.70001,-19.5,,,x,,,
1787899,-2.9608078,7.86558,-2.6413994,1.097568,0.830798,-4.817104,98.700005,-160.5,-12.3,,,x,,,
1787919,-3.5918486,8.024088,-2.761028,0.69360197,0.35061198,-5.274424,110.700005,-158.1,-21.900002,,,x,,,
1787965,-4.6451783,9.368115,-3.5176787,1.06708,1.02897,-3.16313,105.9,-162.90001,-20.1,,,x,,,
1788035,-4.724133,9.534997,-3.9309957,0.868908,0.785066,-2.7667859,120.3,-158.1,-14.700001,,,x,,,
1788079,-3.4716218,9.971642,-3.7826562,0.80793196,-1.288118,-1.189032,137.1,-148.5,-17.1,,,x,,,
1788099,-3.116325,9.5511465,-3.8687887,0.503052,-0.716468,-0.94512796,132.3,-158.1,-17.1,,,x,,,
1788139,-2.2831118,9.581653,-3.916042,0.731712,-0.769822,0.099086,127.50001,-153.3,-21.300001,,,x,,,
1788179,-1.4379357,9.18927,-3.622952,0.144818,-0.632626,0.754578,120.3,-158.1,-17.1,,,x,,,
1788257,-0.21652776,8.920704,-3.2538977,-0.365856,-0.33536798,0.95274997,134.70001,-155.70001,-20.1,,,x,,,
1788277,0.026916433,9.226356,-2.874077,-0.358234,-0.503052,0.82317597,117.9,-158.1,-18.300001,,,x,,,
1788317,-0.045458864,9.243702,-3.0266035,-0.442076,0.274392,0.617382,125.100006,-158.1,-17.1,,,x,,,
1788341,0.025122005,8.95121,-2.798711,-0.28201398,0.16768399,0.449698,125.100006,-170.1,-17.1,,,,,,
1788362,-0.12919888,8.814833,-2.8040943,-0.17530599,0.289636,0.373478,117.9,-150.90001,-22.5,,,,,,
1788382,-0.09869359,9.067847,-2.8501513,-0.03811,0.251526,0.442076,117.9,-158.1,-11.1,,,,,,
1788402,0.01016843,8.8704605,-2.8184497,-0.259148,0.17530599,0.198172,122.700005,-148.5,-18.900002,,,,,,
1788422,0.22849062,9.136036,-2.673101,-0.060976,0.20579399,0.259148,108.3,-155.70001,-15.3,,,,,,
1788442,0.13577846,9.143811,-2.836394,-0.17530599,0.861286,-0.015244,115.50001,-158.1,-17.1,,,,,,
1788462,0.025122005,9.078016,-3.0266035,0.022866,0.769822,-0.015244,117.9,-158.1,-16.5,,,,,,
1788482,0.07716044,8.781935,-3.0152388,0.259148,0.3811,0.26677,127.50001,-167.70001,-21.300001,,,,,,
1788502,0.21054633,9.062464,-2.9428635,0.449698,-0.007622,0.746956,122.700005,-155.70001,-23.7,,,,,,
1788562,0.08732887,9.268226,-3.091203,0.091464,-0.510674,0.426832,115.50001,-143.70001,-16.5,,,,,,
1788637,0.19140574,8.945229,-3.2903845,0.068598,0.49543,0.20579399,122.700005,-158.1,-15.3,,,,,,
1788702,0.33077306,8.65154,-2.932695,-0.434454,0.586894,0.007622,122.700005,-165.3,-15.3,,,,,,
1788737,0.3858022,9.0977545,-2.902788,-0.03811,0.23628199,-0.07622,115.50001,-153.3,-10.5,,,,,,
1788757,0.37383935,8.895582,-2.7179615,-0.022866,0.015244,-0.34298998,103.50001,-146.1,-11.700001,,,,,,
1788800,-0.40554094,8.820814,-2.9237227,0.510674,-0.87653,-0.297258,113.100006,-148.5,-15.900001,,,,,,
1788820,-0.26497734,8.832179,-2.6748953,0.434454,-1.722572,-0.015244,117.9,-146.1,-16.5,,,,,,
1788860,0.22729433,9.14441,-2.912358,-0.137196,-0.70122397,0.106708,122.700005,-158.1,-24.300001,,,,,,
1788882,0.22370547,9.243103,-3.0104535,0.045732,-0.541162,0.106708,120.3,-158.1,-16.5,,,,,,
1788902,0.21174261,8.907545,-3.1534097,0.022866,-0.03811,-0.007622,115.50001,-165.3,-19.5,,,,,,
1788922,0.30864176,9.005641,-3.175541,0.297258,0.137196,0.045732,108.3,-153.3,-12.3,,,,,,
1788942,0.2380609,9.063063,-3.2664587,0.327746,0.55640596,-0.022866,108.3,-138.90001,-19.5,,,,,,
1788962,0.23925719,9.326245,-3.5110993,0.243904,0.846042,-0.022866,127.50001,-160.5,-17.1,,,,,,
1789002,0.18063918,8.917713,-3.3310583,-0.221038,0.503052,-0.07622,122.700005,-148.5,-22.5,,,,,,
1789055,0.18004103,8.672475,-3.263468,-0.41921,0.480186,0.068598,122.700005,-167.70001,-9.3,,,,,,
1789098,0.36247465,9.419556,-3.2114296,-0.30488,0.480186,-0.022866,103.50001,-146.1,-14.1,,,,,,
1789120,0.17764847,8.872853,-3.2867956,-0.49543,0.327746,-0.81555396,117.9,-162.90001,-18.300001,,,,,,
1789180,0.1531246,9.051698,-3.3250768,-0.45731997,0.213416,-0.28201398,110.700005,-155.70001,-14.700001,,,,,,
1789220,0.079553016,9.076819,-3.1480265,-0.40396598,-0.022866,-0.442076,117.9,-148.5,-14.1,,,,,,
1789241,0.02033686,8.969752,-3.138456,-0.579272,0.0,-0.586894,120.3,-155.70001,-11.700001,,,,,,
1789281,0.10766573,8.947022,-3.0906048,-0.41158798,0.144818,-0.3811,125.100006,-158.1,-14.700001,,,x,,,
1789301,0.11544159,9.041529,-3.070268,-0.23628199,0.17530599,-0.22865999,117.9,-150.90001,-13.500001,,,x,,,
1789324,-0.0053832866,8.847731,-3.1360636,-0.388722,0.35061198,-0.26677,120.3,-155.70001,-8.700001,,,x,,,
1789344,-0.01794429,8.676064,-3.2227943,-0.198172,0.35061198,-0.007622,132.3,-158.1,-13.500001,,,x,,,
1789408,-0.9211402,8.86747,-3.5093048,-0.358234,0.358234,0.274392,122.700005,-162.90001,-9.3,,,x,,,
1789448,-2.5720148,9.454247,-4.0183244,-0.846042,1.783548,0.769822,113.100006,-155.70001,-9.3,,,x,,,
1789520,-5.6034036,9.614551,-4.3831916,-2.621968,4.702774,-0.030488,105.9,-162.90001,-11.1,,,x,,,
1789540,-5.4664288,10.513559,-4.7055907,-2.6905658,4.275942,-0.33536798,110.700005,-148.5,-13.500001,,,x,,,
1789580,-5.4179792,8.085696,-4.7414794,-0.80030996,1.56251,-3.399412,127.50001,-150.90001,-17.1,,,x,,,
1789600,-4.3191905,6.59991,-4.070363,0.899396,-1.44818,-3.58234,125.100006,-165.3,-15.900001,,,x,,,
1789620,-2.5415094,6.287081,-2.606707,0.777444,-2.195136,-1.8369019,125.100006,-155.70001,-19.5,,,x,,,
1789640,-2.2944765,5.9718595,-2.7472706,0.015244,-0.91463995,-1.41007,125.100006,-150.90001,-17.7,,,x,,,
1789660,-1.8177565,5.852231,-3.1677651,-0.625004,0.312502,-0.068598,125.100006,-155.70001,-15.3,,,x,,,
1789680,-1.4588706,6.6914253,-3.024211,-0.70122397,-0.40396598,0.754578,129.90001,-165.3,-14.700001,,,x,,,
1789700,-1.0096654,6.141134,-2.5654352,-1.3795819,-0.769822,0.503052,125.100006,-148.5,-15.3,,,x,,,
1789722,0.6083114,7.2118096,-2.3507018,-1.471046,-0.967994,2.40093,129.90001,-153.3,-21.900002,,,x,,,
1789742,1.7017168,7.429534,-2.3148134,-1.516778,-1.554888,3.330814,117.9,-150.90001,-13.500001,,,x,,,
1789762,2.539715,8.009134,-1.7770828,-1.4024479,-2.6905658,5.243936,108.3,-148.5,-12.3,,,x,,,
1789823,5.355772,10.103831,-1.7328202,-0.853664,-1.966476,5.9375377,89.100006,-162.90001,-22.5,,,x,,,
1789864,6.0023646,10.356247,-2.0952947,-1.1051899,-0.967994,5.52595,96.3,-160.5,-20.1,,,x,,,
1789884,6.434224,10.184581,-2.1275945,-0.68597996,-0.792688,5.0533857,81.9,-162.90001,-18.300001,,,x,,,
1789907,6.958197,11.2678175,-1.9278148,-0.26677,-0.617382,4.710396,65.100006,-172.5,-18.300001,,,x,,,
1789967,6.129171,10.579953,-2.0701728,0.365856,-0.518296,1.417692,93.9,-179.70001,-21.900002,,,x,,,
1789996,6.2822957,10.901753,-1.8081862,-0.861286,0.70122397,0.46494198,77.100006,-165.3,-21.300001,,,x,,,
1790061,6.2099204,10.916109,-2.5247614,1.059458,1.1356779,-0.579272,65.100006,-174.90001,-14.700001,,,x,,,
1790177,5.4652324,8.396132,-2.1401556,-0.80793196,0.46494198,-1.67684,77.100006,-184.5,-15.900001,,,x,,,
1790198,4.6451783,9.067847,-2.5080135,-0.754578,0.487808,-4.0320377,81.9,-167.70001,-17.7,,,x,,,
1790239,3.0307903,7.3577566,-1.7836623,0.20579399,-0.358234,-5.625036,86.700005,-170.1,-14.1,,,x,,,
1790259,2.539715,7.275811,-1.5779011,0.655492,-1.021348,-4.80186,96.3,-158.1,-15.900001,,,x,,,
1790279,1.522872,6.4485793,-1.5713216,0.045732,-0.69360197,-4.4512477,89.100006,-172.5,-15.3,,,x,,,
1790299,0.2254999,5.2642565,-1.7082963,0.251526,-0.503052,-4.11588,101.100006,-170.1,-17.1,,,x,,,
1790319,-1.4857872,5.544187,-2.1610906,1.1356779,0.434454,-2.7820299,108.3,-160.5,-20.1,,,x,,,
1790339,-2.4170957,7.6035933,-3.4746125,1.173788,1.150922,-1.211898,105.9,-160.5,-18.900002,,,x,,,
1790359,-2.7347097,7.6209397,-3.631326,0.16768399,-0.45731997,-2.408552,117.9,-141.3,-12.3,,,x,,,
1790379,-2.9033859,7.0820127,-2.982939,0.129574,-1.509156,-2.385686,113.100006,-167.70001,-19.5,,,x,,,
1790419,-3.551773,8.76758,-3.4464998,-0.480186,0.80030996,-1.3872039,122.700005,-165.3,-17.7,,,x,,,
1790439,-3.5990262,8.071939,-3.008061,-0.754578,-0.121952,-1.996964,117.9,-167.70001,-17.1,,,x,,,
1790459,-3.8484519,8.145511,-2.9685836,-0.868908,0.579272,-1.318606,115.50001,-148.5,-20.1,,,x,,,
1790500,-3.9004903,9.402209,-3.4991364,-0.586894,0.785066,-1.082324,113.100006,-165.3,-11.700001,,,x,,,
1790536,-3.7078884,10.102634,-4.100868,0.160062,-0.327746,-0.91463995,122.700005,-162.90001,-17.1,,,x,,,
1790557,-3.6169705,9.620531,-3.770095,0.091464,-0.846042,-1.204276,117.9,-155.70001,-10.5,,,x,,,
1790597,-3.0852215,9.850219,-4.1726456,0.22865999,-0.396344,-1.082324,127.50001,-155.70001,-19.5,,,x,,,
1790637,-2.1604924,9.307105,-3.8430686,0.47256398,-0.746956,-1.189032,127.50001,-153.3,-17.7,,,x,,,
1790662,-1.7005205,8.800478,-3.4130037,0.121952,-0.739334,-1.21952,122.700005,-160.5,-12.900001,,,x,,,
1790682,-1.3069423,8.855507,-3.2772253,-0.099086,-0.060976,-0.449698,132.3,-155.70001,-14.1,,,x,,,
1790722,-0.8559426,9.007435,-3.5027251,-0.297258,0.716468,0.03811,129.90001,-160.5,-16.5,,,x,,,
1790742,-0.6639387,8.883021,-3.3418248,-0.11432999,0.388722,0.26677,132.3,-150.90001,-14.700001,,,x,,,
1790763,-0.40613908,8.905152,-3.2114296,-0.251526,0.17530599,0.41158798,125.100006,-153.3,-14.1,,,x,,,
1790783,-0.117236026,8.993079,-3.2108314,-0.320124,0.121952,0.56402797,137.1,-155.70001,-14.1,,,x,,,
1790805,0.27634206,9.276599,-3.2389443,-0.358234,-0.11432999,0.41158798,125.100006,-150.90001,-18.900002,,,,,,
1790825,0.2990715,9.001453,-3.0020795,-0.251526,-0.251526,0.221038,120.3,-150.90001,-9.3,,,,,,
1790845,0.3911855,8.963172,-2.8818529,-0.198172,-0.106708,0.144818,125.100006,-158.1,-17.7,,,,,,
1790888,0.35110992,9.003248,-2.8345995,-0.41158798,0.365856,0.19055,139.5,-150.90001,-16.5,,,,,,
1790908,0.24583676,9.017604,-2.807683,-0.480186,0.388722,0.083841994,122.700005,-150.90001,-20.1,,,,,,
1790968,0.15252645,8.756215,-2.8525438,-0.099086,0.137196,-0.121952,129.90001,-153.3,-18.300001,,,,,,
1791018,0.5371324,9.149793,-2.8752732,0.022866,0.11432999,0.007622,129.90001,-162.90001,-13.500001,,,,,,
1791038,0.5556748,9.069642,-2.903984,0.137196,0.182928,-0.312502,129.90001,-155.70001,-14.700001,,,,,,
1791081,0.40494278,9.12826,-3.0116498,0.274392,0.213416,-0.518296,115.50001,-153.3,-15.900001,,,x,,,
1791121,0.31402507,9.30232,-3.07924,0.091464,0.503052,-0.640248,129.90001,-146.1,-12.900001,,,x,,,
1791496,0.029907148,10.487241,-3.3268712,0.426832,0.746956,-2.32471,120.3,-155.70001,-17.1,,,x,,,
1791516,-0.8864479,9.770067,-3.4034336,0.541162,0.632626,-2.995446,141.90001,-155.70001,-16.5,,,x,,,
1791558,-2.668316,6.236837,-3.1887002,0.327746,0.007622,-2.027452,129.90001,-155.70001,-11.700001,,,x,,,
1791578,-2.5708184,7.0628724,-3.3196936,0.503052,0.0,0.213416,137.1,-141.3,-15.900001,,,x,,,
1791598,-2.238251,7.887113,-3.5009308,0.327746,0.022866,0.373478,137.1,-148.5,-13.500001,,,x,,,
1791620,-2.1108465,8.140726,-3.6809719,0.11432999,-0.297258,0.160062,132.3,-153.3,-14.1,,,x,,,
1791640,-1.7597367,8.13295,-3.6462796,0.160062,-0.754578,0.091464,129.90001,-138.90001,-11.700001,,,x,,,
1791680,-1.1633881,8.099454,-3.183317,-0.41158798,-0.907018,0.983238,134.70001,-155.70001,-12.3,,,x,,,
1791700,-0.22310732,9.520043,-2.9931073,-0.72409,-0.41921,1.326228,132.3,-150.90001,-14.1,,,x,,,
1791760,0.46176636,9.548156,-3.3101232,-1.021348,1.471046,-1.44818,134.70001,-146.1,-14.700001,,,x,,,
1791862,-0.49944937,8.30043,-4.5668216,0.55640596,0.11432999,-0.960372,134.70001,-155.70001,-7.5000005,,,x,,,
1791883,-0.64659256,7.4995165,-4.4244637,0.602138,-0.891774,-0.81555396,139.5,-150.90001,-15.3,,,x,,,
1791924,-0.0053832866,8.101847,-3.1534097,-0.92988396,-1.707328,1.173788,151.5,-138.90001,-9.3,,,x,,,
1791967,0.9815526,10.222861,-3.0343792,-2.2332458,0.853664,1.059458,137.1,-150.90001,-17.1,,,x,,,
1792281,-6.656733,10.779733,-5.8875213,-1.204276,-0.396344,1.059458,127.50001,-162.90001,-12.3,,,x,,,
1792302,-6.142928,10.064952,-5.6715918,-2.2027578,-1.158544,0.26677,127.50001,-158.1,-21.900002,,,x,,,
1792342,-3.8843405,6.1560874,-3.786245,0.091464,-4.626554,-2.309466,137.1,-160.5,-17.7,,,x,,,
1792382,-2.493658,5.489158,-3.1809244,1.3567159,-5.686012,-2.500016,125.100006,-148.5,-14.700001,,,x,,,
1792459,3.4088168,8.769374,-1.154416,2.36282,-4.5579557,4.009172,137.1,-160.5,-13.500001,,,x,,,
1792479,3.673794,8.681447,-1.4594688,0.56402797,-1.326228,2.164648,125.100006,-153.3,-14.1,,,x,,,
1792520,4.8706784,10.776144,-1.782466,0.853664,-0.55640596,4.131124,129.90001,-160.5,-17.7,,,x,,,
1792541,4.5955324,11.069832,-1.957722,-0.579272,1.02897,2.40093,115.50001,-162.90001,-8.700001,,,x,,,
1792561,3.8263206,10.962765,-2.5283504,-0.07622,1.684462,1.532022,108.3,-165.3,-16.5,,,x,,,
1792581,3.4267612,10.690609,-2.4236753,0.442076,0.91463995,0.442076,125.100006,-158.1,-19.5,,,x,,,
1792601,2.936882,9.265235,-2.3686461,0.16768399,1.3948259,-0.41158798,117.9,-155.70001,-13.500001,,,x,,,
1792621,2.1569035,8.991883,-3.1641762,1.189032,2.317088,0.198172,125.100006,-162.90001,-15.3,,,x,,,
1792641,1.7465775,9.960277,-4.0231094,2.301844,1.8292799,0.56402797,122.700005,-150.90001,-15.900001,,,x,,,
1792701,1.3870935,9.256861,-4.1433363,-0.15244,0.70122397,0.007622,125.100006,-162.90001,-11.1,,,x,,,
1792755,2.4087217,10.257554,-3.7072902,-1.478668,1.432936,0.259148,108.3,-155.70001,-5.7000003,,,x,,,
1792775,3.041557,9.963865,-3.5583525,-1.737816,1.455802,0.144818,108.3,-165.3,-12.900001,,,x,,,
1792815,4.2486095,11.778033,-3.9052753,-1.56251,2.2637339,1.3872039,113.100006,-160.5,-15.900001,,,x,,,
1792835,4.0865126,10.657711,-3.7994041,-1.8673899,0.434454,-1.250008,113.100006,-158.1,-12.900001,,,x,,,
1792855,4.777966,10.708553,-3.1498208,-0.967994,-0.967994,-1.3948259,110.700005,-162.90001,-13.500001,,,x,,,
1792877,4.8922114,10.334116,-3.104362,-1.150922,-0.746956,-1.463424,120.3,-160.5,-13.500001,,,x,,,
1792897,4.5524664,11.149385,-3.3412266,-0.160062,-0.144818,-0.640248,108.3,-153.3,-17.1,,,x,,,
1792919,4.438221,12.060955,-3.6432889,-0.274392,-0.289636,-2.195136,113.100006,-148.5,-15.3,,,x,,,
1792939,4.028493,9.630102,-2.5050228,-0.663114,-0.69360197,-3.84911,120.3,-148.5,-13.500001,,,x,,,
1792959,3.8604147,9.349573,-2.3770201,-0.69360197,-0.106708,-3.2774599,125.100006,-158.1,-14.1,,,x,,,
1792979,3.271842,8.493032,-2.0887153,-1.150922,0.64787,-2.62959,122.700005,-148.5,-14.700001,,,x,,,
1793001,2.91176,8.868068,-2.225092,-0.525918,1.417692,-2.004586,117.9,-160.5,-12.3,,,x,,,
1793083,-0.04605701,5.1565905,-1.5294516,-0.16768399,1.67684,-0.68597996,139.5,-150.90001,-14.1,,,x,,,
1793143,-2.158698,6.915729,-3.2144203,1.097568,0.777444,-1.051836,129.90001,-150.90001,-14.700001,,,x,,,
1793182,-2.8926194,8.10723,-3.5756986,0.053354,0.91463995,-0.69360197,144.3,-150.90001,-14.700001,,,x,,,
1793203,-3.3789096,7.9517126,-3.748562,-0.121952,0.83842,-1.021348,132.3,-134.1,-15.3,,,x,,,
1793245,-3.6827662,8.193362,-4.2252817,0.083841994,-0.083841994,-1.303362,132.3,-155.70001,-14.1,,,x,,,
1793287,-3.9776506,9.624121,-4.700207,0.26677,-0.26677,-0.846042,139.5,-141.3,-9.900001,,,x,,,
1793307,-4.041054,9.6307,-4.9424553,-0.099086,-0.868908,-2.621968,139.5,-148.5,-16.5,,,x,,,
1793329,-3.8651998,9.406995,-4.6661134,-0.19055,-2.881116,-2.675322,144.3,-155.70001,-12.900001,,,x,,,
1793349,-4.0865126,9.240711,-3.7503564,-1.272874,-2.903982,-2.6905658,149.1,-158.1,-14.700001,,,x,,,
1793411,-3.2784216,9.506287,-3.828115,-0.632626,-1.189032,0.11432999,146.70001,-155.70001,-11.1,,,x,,,
1793431,-2.7963183,9.4428835,-3.8119652,-0.69360197,-0.83842,0.137196,151.5,-141.3,-15.3,,,x,,,
1793452,-2.346515,9.018202,-3.6869533,-0.617382,-1.089946,-0.16768399,158.70001,-141.3,-17.7,,,x,,,
1793472,-2.233466,8.780141,-3.481192,-0.480186,-0.91463995,0.015244,151.5,-138.90001,-17.1,,,x,,,
1793492,-2.024714,9.220972,-3.6618314,-0.259148,-0.55640596,0.30488,141.90001,-146.1,-13.500001,,,x,,,
1793512,-1.757344,9.241309,-3.6211576,-0.251526,-0.49543,0.022866,151.5,-143.70001,-18.900002,,,x,,,
1793532,-1.6975298,8.8381605,-3.459061,-0.503052,-0.182928,0.083841994,132.3,-146.1,-14.1,,,x,,,
1793553,-1.5007408,8.997267,-3.4584627,-0.47256398,0.243904,0.60976,144.3,-141.3,-14.1,,,x,,,
1793573,-1.3272792,8.886012,-3.2706459,-0.541162,0.40396598,0.56402797,146.70001,-143.70001,-13.500001,,,,,,
1793593,-1.1532197,8.798683,-3.2215981,-0.49543,0.56402797,0.769822,144.3,-146.1,-21.300001,,,,,,
1793613,-1.1741546,8.7735615,-3.1641762,-0.487808,0.663114,0.846042,141.90001,-148.5,-16.5,,,,,,
1793636,-0.98215073,8.854909,-3.1139324,-0.442076,0.56402797,0.907018,153.90001,-141.3,-15.3,,,,,,
1793656,-0.9115699,8.778346,-3.0343792,-0.40396598,0.28201398,0.64787,156.3,-141.3,-15.3,,,,,,
1793676,-0.91695315,8.583352,-3.0116498,-0.663114,0.30488,0.487808,156.3,-146.1,-17.1,,,,,,
1793696,-0.80091345,9.069642,-3.2204018,-0.243904,0.137196,0.884152,139.5,-148.5,-12.900001,,,,,,
1793716,-0.5467027,9.027772,-3.0565107,-0.442076,-0.198172,0.602138,156.3,-136.5,-14.1,,,,,,
1793740,-0.47791624,8.992481,-2.974565,-0.602138,0.182928,0.426832,137.1,-143.70001,-13.500001,,,,,,
1793761,-0.5443101,8.837563,-3.0571086,-0.602138,0.35061198,0.26677,129.90001,-150.90001,-18.900002,,,,,,
1793785,-0.5658432,9.003846,-3.0768476,-0.396344,0.365856,0.358234,134.70001,-153.3,-15.900001,,,,,,
1793805,-0.52696395,9.090577,-3.167167,-0.28201398,0.35061198,0.30488,134.70001,-155.70001,-16.5,,,,,,
1793869,-0.56883395,8.638381,-3.14683,-0.35061198,0.868908,0.121952,153.90001,-148.5,-13.500001,,,,,,
1793958,-0.39896137,8.931471,-3.1599894,-0.07622,0.525918,-0.106708,129.90001,-146.1,-8.700001,,,,,,
1793979,-0.39477435,9.020595,-3.16298,-0.099086,0.518296,-0.045732,134.70001,-155.70001,-15.3,,,,,,
1794021,-0.5263658,9.125269,-3.1904945,-0.091464,0.480186,-0.099086,137.1,-150.90001,-12.900001,,,,,,
1794041,-0.5963485,9.07981,-3.1581948,-0.20579399,0.45731997,-0.373478,141.90001,-148.5,-21.900002,,,,,,
1794061,-0.6669294,8.88661,-2.9901166,-0.26677,0.251526,-0.358234,144.3,-141.3,-16.5,,,,,,
1794081,-0.65795726,8.949415,-3.175541,-0.442076,0.34298998,-0.16768399,146.70001,-143.70001,-11.700001,,,,,,
1794378,-0.3702505,8.924891,-3.2850013,0.11432999,0.33536798,-0.640248,139.5,-153.3,-12.900001,,,,,,
1794398,-0.50363636,8.780739,-3.2897863,0.007622,0.434454,-0.632626,141.90001,-148.5,-19.5,,,,,,
1794438,-0.4593738,8.848329,-3.4488924,0.16768399,0.099086,-0.15244,156.3,-138.90001,-21.300001,,,,,,
1794481,-0.43305552,8.818421,-3.4656403,-0.144818,0.16768399,-0.33536798,132.3,-150.90001,-12.900001,,,,,,
1794521,-0.36127836,8.778346,-3.4614534,-0.20579399,-0.144818,-0.091464,146.70001,-146.1,-20.1,,,,,,
1794860,-1.8171583,5.2241807,-2.3955626,-0.243904,-0.15244,2.652456,115.50001,-155.70001,-12.3,,,x,,,
1794901,0.51859,5.9718595,-1.9463573,-1.554888,-0.41921,4.4055157,113.100006,-155.70001,-15.900001,,,x,,,
1794921,1.8022047,6.2739215,-1.4241784,-2.560992,-0.975616,6.02138,120.3,-148.5,-17.7,,,x,,,
1794942,4.0195208,7.920609,-1.3882898,-3.528986,0.655492,9.093046,105.9,-158.1,-19.5,,,x,,,
1794962,4.6631227,8.106033,-1.1484345,-3.7881339,0.67073596,9.283596,98.700005,-165.3,-22.5,,,x,,,
1794985,5.400035,9.090577,-1.2076507,-3.414656,1.1356779,10.045795,91.5,-172.5,-24.300001,,,x,,,
1795005,6.5000196,10.303013,-1.3745326,-3.140264,1.3414719,9.809514,74.700005,-167.70001,-23.7,,,x,,,
1795027,6.8080635,10.343686,-1.1998748,-3.064044,0.7622,8.239382,65.100006,-170.1,-13.500001,,,x,,,
1795047,6.547273,9.624719,-1.4606651,-2.454284,1.18141,6.9893737,69.9,-160.5,-19.5,,,x,,,
1795090,7.036554,10.876034,-1.8075881,-0.121952,0.022866,4.5884438,43.5,-165.3,-16.5,,,x,,,
1795151,5.39824,9.572082,-1.9260204,0.297258,0.022866,0.83842,41.100002,-174.90001,-24.900002,,,x,,,
1795171,5.2558823,10.262339,-2.162885,0.213416,0.20579399,0.617382,36.300003,-170.1,-21.900002,,,x,,,
1795194,5.150609,9.917211,-2.112043,-0.57164997,0.327746,0.068598,43.5,-170.1,-24.300001,,,x,,,
1795254,5.560935,9.479968,-2.476312,-1.189032,1.455802,0.91463995,41.100002,-186.90001,-19.5,,,x,,,
1795277,6.2900715,10.090672,-2.4093199,-0.22865999,0.41921,1.036592,41.100002,-179.70001,-23.1,,,x,,,
1795297,6.5442824,10.091868,-2.1569035,-0.525918,-0.137196,-1.3414719,36.300003,-174.90001,-20.1,,,x,,,
1795339,6.794904,9.637877,-1.514498,-0.67835796,0.327746,-1.8521459,43.5,-167.70001,-21.300001,,,x,,,
1795359,6.2685385,9.889696,-2.2304752,-0.251526,0.899396,-2.812518,45.9,-174.90001,-22.5,,,x,,,
1795422,5.308519,8.964967,-2.0259101,0.312502,-1.3414719,-3.948196,67.5,-182.1,-21.300001,,,x,,,
1795517,3.0230145,6.589741,-0.83740014,0.28201398,0.617382,-4.794238,74.700005,-162.90001,-20.1,,,x,,,
1795537,1.8943188,5.9090543,-1.0946016,0.365856,1.577754,-4.939056,81.9,-165.3,-23.7,,,x,,,
1795579,-1.3739344,7.095172,-2.4703305,2.568614,2.073184,-4.11588,93.9,-167.70001,-20.1,,,x,,,
1795621,-2.0970893,7.250091,-3.0595014,1.234764,-0.68597996,-4.862836,96.3,-170.1,-13.500001,,,x,,,
1795641,-2.5702202,7.2303524,-2.606707,1.021348,-0.198172,-3.62045,108.3,-153.3,-21.900002,,,x,,,
1795662,-2.7939258,8.774757,-3.3711338,0.213416,1.417692,-2.2256238,101.100006,-160.5,-12.900001,,,x,,,
1795682,-3.0062666,8.404507,-3.5009308,-0.129574,0.663114,-3.399412,101.100006,-165.3,-14.700001,,,x,,,
1795705,-3.2568884,7.9923863,-3.0923991,0.213416,-0.015244,-3.08691,120.3,-150.90001,-18.900002,,,x,,,
1795725,-3.1342692,9.295142,-3.5105011,0.23628199,1.1432999,-2.065562,115.50001,-162.90001,-15.900001,,,x,,,
1795747,-3.3107214,9.831078,-3.9716694,0.3811,1.539644,-2.606724,115.50001,-158.1,-15.3,,,x,,,
1795767,-3.4153965,9.866368,-4.1822157,0.716468,0.19055,-2.7286758,117.9,-150.90001,-17.1,,,x,,,
1795787,-3.6319242,9.779637,-4.005165,0.739334,-0.068598,-2.13416,122.700005,-162.90001,-15.900001,,,x,,,
1795807,-3.284403,10.038633,-4.0219135,0.541162,-0.396344,-2.004586,127.50001,-160.5,-11.700001,,,x,,,
1795828,-2.9715743,9.902257,-3.790432,0.53354,-0.777444,-2.118916,134.70001,-155.70001,-12.3,,,x,,,
1795868,-2.2143252,9.597204,-3.6301296,0.45731997,-0.83842,-2.301844,115.50001,-150.90001,-13.500001,,,x,,,
1795890,-1.9631052,9.332825,-3.5128937,0.67073596,-1.211898,-2.2027578,132.3,-155.70001,-24.900002,,,x,,,
1795910,-1.8638135,9.076819,-3.3478062,0.53354,-1.288118,-1.814036,134.70001,-153.3,-23.7,,,x,,,
1795930,-1.7848586,8.788515,-3.3023474,0.28201398,-0.82317597,-1.455802,129.90001,-155.70001,-16.5,,,x,,,
1795993,-1.1603974,9.044519,-3.422574,0.083841994,-0.853664,-0.30488,139.5,-150.90001,-18.300001,,,x,,,
1796013,-0.97138417,9.053492,-3.2371497,-0.022866,-0.518296,-0.22865999,139.5,-160.5,-21.300001,,,x,,,
1796033,-0.8720924,8.834572,-3.2281775,-0.20579399,-0.083841994,-0.426832,127.50001,-155.70001,-12.900001,,,x,,,
1796056,-0.85355,8.554641,-3.2951696,-0.015244,0.23628199,-0.35061198,146.70001,-150.90001,-17.1,,,x,,,
1796076,-0.58318937,9.017604,-3.3382359,0.274392,0.099086,-0.022866,141.90001,-141.3,-16.5,,,x,,,
1796096,-0.47851437,8.993678,-3.3065343,0.28201398,0.03811,-0.137196,132.3,-155.70001,-19.5,,,,,,
1796116,-0.4300648,8.94762,-3.23057,0.243904,-0.07622,-0.11432999,146.70001,-143.70001,-12.3,,,,,,
1796136,-0.34871736,9.187476,-3.2299721,0.23628199,0.030488,0.022866,127.50001,-143.70001,-16.5,,,,,,
1796156,-0.49526238,9.280189,-3.2939734,0.045732,0.106708,-0.26677,132.3,-143.70001,-7.5000005,,,,,,
1796176,-0.58378756,9.031959,-3.384891,-0.15244,0.091464,-0.41921,129.90001,-155.70001,-18.900002,,,,,,
1796198,-0.51320666,8.76399,-3.3137121,-0.23628199,-0.259148,-0.373478,144.3,-143.70001,-15.3,,,,,,
1796278,-0.36127836,8.810646,-2.9446578,-0.69360197,-0.007622,-0.28201398,134.70001,-160.5,-10.5,,,,,,
1796381,-0.5586655,8.602492,-3.0517254,-0.213416,0.243904,-0.16768399,137.1,-138.90001,-20.1,,,,,,
1796439,-0.3923818,8.810048,-3.2233925,-0.083841994,0.28201398,0.045732,137.1,-153.3,-12.900001,,,,,,
1796594,-0.24583676,8.755018,-3.1229045,-0.518296,0.160062,0.0,144.3,-150.90001,-11.700001,,,,,,
1796617,-0.2841179,8.86747,-3.2515051,-0.830798,0.449698,0.144818,137.1,-158.1,-10.5,,,,,,
1796658,-0.31940836,8.92848,-3.183317,-0.57164997,0.129574,-0.373478,151.5,-146.1,-15.900001,,,,,,
1796678,-0.40434465,8.944032,-3.1342692,-0.503052,0.022866,-0.33536798,129.90001,-153.3,-15.900001,,,,,,
1796698,-0.38340965,8.902162,-3.054118,-0.45731997,-0.007622,-0.3811,146.70001,-153.3,-19.5,,,,,,
1796718,-0.34572664,9.040931,-3.0283978,-0.30488,0.045732,-0.41158798,144.3,-158.1,-16.5,,,,,,
1796742,-0.5754135,8.972743,-3.0977824,-0.251526,0.045732,-0.26677,134.70001,-141.3,-13.500001,,,,,,
1796763,-0.59036714,9.089979,-3.0086591,-0.28201398,-0.007622,-0.091464,141.90001,-155.70001,-15.900001,,,,,,
1796787,-0.577208,8.964369,-3.016435,-0.442076,0.030488,-0.28201398,127.50001,-158.1,-20.7,,,,,,
1796807,-0.8062967,8.823805,-3.1695597,-0.3811,0.251526,-0.15244,132.3,-148.5,-14.1,,,,,,
1796827,-0.9426733,8.815431,-3.1809244,-0.320124,0.091464,0.17530599,137.1,-153.3,-15.3,,,,,,
1796847,-1.2997646,8.6006975,-3.1276896,-0.49543,0.015244,0.20579399,156.3,-153.3,-20.7,,,,,,
1796867,-1.9248241,8.864479,-3.3621616,-0.396344,0.80793196,0.83842,132.3,-150.90001,-21.900002,,,x,,,
1796887,-2.9763594,9.7132435,-3.9603045,-0.579272,1.684462,1.06708,125.100006,-148.5,-19.5,,,x,,,
1796907,-3.8484519,9.272412,-4.078737,-1.097568,1.150922,0.792688,141.90001,-141.3,-14.1,,,x,,,
1796930,-4.7157593,9.281982,-3.5075104,-1.196654,0.95274997,1.150922,139.5,-150.90001,-13.500001,,,x,,,
1796950,-6.1136193,10.376584,-3.9902117,-1.25763,3.384168,1.242386,122.700005,-155.70001,-21.900002,,,x,,,
1796970,-7.085602,10.38137,-5.1655626,-0.7622,5.693634,1.06708,129.90001,-158.1,-14.700001,,,x,,,
1796990,-6.887018,10.759396,-6.0191126,-0.69360197,3.490876,2.484772,122.700005,-162.90001,-16.5,,,x,,,
1797013,-6.388765,8.821412,-4.757031,-1.577754,-0.28201398,2.675322,122.700005,-150.90001,-16.5,,,x,,,
1797033,-5.157787,8.189176,-3.8311057,-2.111294,-0.975616,2.7439198,125.100006,-153.3,-21.300001,,,x,,,
1797074,-2.9255173,5.8683805,-2.7927296,-1.173788,0.068598,2.43904,108.3,-162.90001,-22.5,,,x,,,
1797135,0.06280501,6.3791947,-2.2526064,-2.492394,1.737816,3.2164838,108.3,-174.90001,-21.300001,,,x,,,
1797155,0.8128763,4.7935176,-1.9774606,-2.7667859,1.18141,2.850628,93.9,-155.70001,-15.3,,,x,,,
1797175,2.7586353,5.564524,-1.7292314,-1.554888,-0.26677,5.975648,105.9,-162.90001,-11.700001,,,x,,,
1797195,4.091298,7.8344765,-1.7047075,-1.493912,0.160062,8.086942,86.700005,-167.70001,-11.700001,,,x,,,
1797215,4.4561653,8.12338,-2.1622868,-2.949714,0.617382,6.189064,91.5,-150.90001,-17.1,,,x,,,
1797237,5.555552,8.563015,-1.9236279,-2.149404,-1.1204339,6.501566,91.5,-155.70001,-16.5,,,x,,,
1797257,5.6554418,9.075026,-1.1179292,-2.560992,-1.196654,5.480218,60.300003,-160.5,-22.5,,,x,,,
1797340,7.601201,11.224153,-1.9643015,-0.868908,1.44818,5.0533857,62.7,-165.3,-26.1,,,x,,,
1797380,7.5988083,9.291553,-1.0676852,-0.81555396,1.8826339,3.46801,31.500002,-165.3,-25.500002,,,x,,,
1797400,7.1011534,11.097944,-1.794429,-0.373478,2.942092,3.6738038,43.5,-162.90001,-20.1,,,x,,,
1797440,7.8380656,11.555524,-0.6962384,-1.699706,-1.33385,-1.6006199,36.300003,-158.1,-23.7,,,x,,,
1797463,6.852924,8.834572,-0.078954875,-1.303362,0.365856,-2.85825,48.300003,-172.5,-21.300001,,,x,,,
1797483,7.410991,10.201328,-0.3481192,0.07622,1.3795819,-1.5929979,45.9,-174.90001,-25.500002,,,x,,,
1797507,6.392952,10.435801,-1.1867156,0.80030996,2.378064,-2.7439198,33.9,-172.5,-14.700001,,,x,,,
1797527,5.5148783,10.204319,-1.8973095,1.3719599,1.25763,-3.612828,55.500004,-170.1,-20.7,,,x,,,
1797547,6.0448327,9.359143,-1.1412568,0.289636,-1.189032,-2.393308,48.300003,-170.1,-26.1,,,x,,,
1797609,5.9796352,9.828087,-1.5731161,1.9054999,-0.785066,-2.7515419,48.300003,-182.1,-23.7,,,x,,,
1797669,5.355772,7.212408,-0.4498035,1.48629,-2.873494,-6.768336,72.3,-165.3,-16.5,,,x,,,
1797711,3.301151,6.81225,-0.9935155,1.6006199,-1.059458,-5.541194,84.3,-160.5,-21.900002,,,x,,,
1797858,-4.742676,7.585051,-4.0727553,0.69360197,1.775926,-3.513742,120.3,-162.90001,-17.7,,,x,,,
1797878,-4.3879766,8.753822,-4.756433,1.5244,0.320124,-2.812518,125.100006,-150.90001,-20.1,,,x,,,
1797918,-4.413697,9.250281,-4.473511,1.1356779,-0.144818,-2.492394,125.100006,-155.70001,-22.5,,,x,,,
1797938,-4.6308227,9.565502,-4.869482,1.310984,0.17530599,-2.7896519,141.90001,-150.90001,-17.1,,,x,,,
1797958,-4.339527,10.326939,-5.1141224,1.539644,-0.594516,-2.32471,115.50001,-153.3,-12.3,,,x,,,
1797978,-4.056606,10.41008,-4.6834593,0.640248,-1.265252,-2.964958,134.70001,-150.90001,-9.3,,,x,,,
1797998,-4.1762342,9.906444,-4.4800906,0.426832,-0.3811,-3.12502,129.90001,-143.70001,-15.900001,,,x,,,
1798018,-4.245619,9.497314,-4.5877566,0.07622,0.297258,-3.2622159,146.70001,-150.90001,-12.900001,,,x,,,
1798039,-3.9046774,9.143213,-4.417884,0.55640596,-0.30488,-2.82014,132.3,-158.1,-13.500001,,,x,,,
1798060,-3.2413368,9.460229,-3.928603,0.49543,-0.846042,-2.2180018,139.5,-138.90001,-13.500001,,,x,,,
1798080,-2.8423755,9.147999,-3.7096827,0.07622,-0.510674,-2.09605,139.5,-143.70001,-11.1,,,x,,,
1798100,-2.60252,8.706569,-3.643887,-0.045732,-0.312502,-1.730194,141.90001,-148.5,-17.7,,,x,,,
1798120,-2.1533146,8.598904,-3.5691192,-0.007622,-0.541162,-1.013726,151.5,-141.3,-14.700001,,,x,,,
1798140,-1.7435868,8.930275,-3.4656403,-0.022866,-0.34298998,-0.251526,153.90001,-126.9,-23.1,,,x,,,
1798160,-1.242343,9.472192,-3.627737,0.060976,-0.33536798,-0.106708,151.5,-143.70001,-17.1,,,x,,,
1798180,-1.1657807,8.985902,-3.434537,0.03811,-0.663114,-0.67835796,156.3,-153.3,-14.1,,,x,,,
1798200,-1.0132542,9.00265,-3.171354,0.137196,-0.632626,-0.28201398,158.70001,-153.3,-12.900001,,,x,,,
1798220,-0.99710435,9.237122,-3.1898966,-0.144818,0.007622,-0.213416,153.90001,-153.3,-14.1,,,x,,,
1798240,-0.96839345,9.083998,-3.145634,-0.396344,0.19055,-0.251526,156.3,-150.90001,-11.700001,,,,,,
1798263,-0.96958977,9.121082,-3.1534097,-0.525918,0.373478,-0.30488,153.90001,-138.90001,-12.900001,,,,,,
1798283,-1.025217,8.836965,-3.1073527,-0.525918,0.083841994,-0.373478,151.5,-143.70001,-21.900002,,,,,,
1798305,-0.8553445,8.656325,-2.8974047,-0.868908,-0.15244,-0.015244,144.3,-143.70001,-18.900002,,,,,,
1798325,-0.631639,8.729897,-2.8411791,-0.640248,-0.11432999,0.365856,158.70001,-141.3,-14.700001,,,,,,
1798345,-0.5496934,8.9679575,-2.9291062,-0.548784,0.106708,0.259148,144.3,-134.1,-20.1,,,,,,
1798406,-0.6711164,8.458938,-3.078642,0.068598,0.060976,0.17530599,149.1,-150.90001,-10.5,,,,,,
1798456,-0.43245736,9.110315,-3.33046,0.28201398,-0.060976,0.16768399,153.90001,-131.70001,-12.900001,,,,,,
1798476,-0.43484995,9.082203,-3.3819003,0.221038,-0.099086,-0.053354,146.70001,-150.90001,-22.5,,,,,,
1798516,-0.5048327,9.058277,-3.4243686,-0.030488,-0.312502,0.091464,149.1,-143.70001,-18.300001,,,,,,
1798536,-0.48090696,8.993678,-3.4207797,-0.11432999,-0.373478,0.19055,141.90001,-148.5,-18.300001,,,,,,
1798556,-0.4216908,8.862684,-3.2993567,-0.213416,-0.358234,0.144818,149.1,-141.3,-18.900002,,,,,,
1798576,-0.47851437,8.939845,-3.359171,-0.198172,-0.144818,0.060976,151.5,-143.70001,-13.500001,,,,,,
1798596,-0.60472256,8.776552,-3.338834,-0.213416,-0.091464,0.030488,158.70001,-143.70001,-16.5,,,,,,
1798619,-0.5329454,8.845338,-3.2832067,-0.17530599,-0.015244,0.144818,139.5,-138.90001,-15.900001,,,,,,
1798639,-0.49586052,8.970948,-3.2395422,-0.144818,0.068598,0.121952,141.90001,-143.70001,-15.900001,,,,,,
1798659,-0.5754135,8.99966,-3.3190954,-0.182928,0.22865999,-0.106708,156.3,-150.90001,-11.700001,,,,,,
1798679,-0.78835243,8.7304945,-3.3322544,-0.297258,0.221038,-0.320124,161.1,-150.90001,-11.700001,,,,,,
1798699,-0.81467074,8.774757,-3.4130037,-0.16768399,0.030488,-0.23628199,134.70001,-153.3,-20.1,,,,,,
1798719,-0.849363,8.747243,-3.4698274,-0.251526,-0.213416,-0.30488,149.1,-153.3,-14.700001,,,,,,
1798739,-0.9887303,8.520547,-3.5110993,-0.434454,-0.47256398,-0.19055,137.1,-146.1,-17.1,,,,,,
1798759,-0.85414815,9.105531,-3.5625396,-0.17530599,-0.769822,0.129574,139.5,-148.5,-14.700001,,,,,,
1798779,-0.78595984,9.024781,-3.5152862,-0.41921,-0.785066,-0.35061198,156.3,-146.1,-17.7,,,,,,
1798800,-0.73751026,9.194056,-3.5433989,-0.41921,-0.708846,-0.53354,151.5,-155.70001,-14.700001,,,,,,
1798820,-0.8505593,8.715541,-3.368143,-0.579272,-0.731712,-0.70122397,134.70001,-143.70001,-11.700001,,,,,,
1798841,-0.8475686,8.888405,-3.4303498,-0.480186,-0.16768399,-0.274392,153.90001,-136.5,-17.1,,,,,,
1798901,-0.80270785,8.778944,-3.162382,-0.67073596,0.007622,-0.480186,149.1,-141.3,-16.5,,,,,,
1798940,-0.8415872,8.854909,-3.271842,-0.40396598,0.41158798,-0.060976,156.3,-136.5,-11.700001,,,,,,
1798982,-0.62805015,8.871656,-3.0828288,-0.060976,0.26677,-0.160062,146.70001,-148.5,-15.900001,,,,,,
1799061,-1.2411467,8.596511,-3.4022372,-0.19055,0.16768399,0.07622,144.3,-134.1,-17.7,,,x,,,
1799081,-1.5121055,9.005042,-3.6151762,-0.320124,0.388722,0.46494198,158.70001,-150.90001,-16.5,,,x,,,
1799123,-2.9679854,8.842946,-4.015932,-1.051836,0.518296,0.92226195,141.90001,-146.1,-14.700001,,,x,,,
1799167,-4.8138547,10.395725,-4.508802,-1.48629,2.492394,0.975616,137.1,-150.90001,-14.1,,,x,,,
1799187,-5.86539,10.019493,-5.1213,-1.516778,3.475632,-0.35061198,141.90001,-146.1,-22.5,,,x,,,
1799209,-6.678266,9.381274,-5.1984606,-2.2256238,1.3719599,1.1432999,149.1,-146.1,-17.1,,,x,,,
1799249,-6.3570633,8.633595,-4.280909,-3.3155699,0.83842,3.7347798,141.90001,-153.3,-16.5,,,x,,,
1799298,-4.849145,7.0485168,-3.1695597,-2.454284,0.243904,2.568614,134.70001,-160.5,-17.1,,,x,,,
1799319,-4.1523085,6.346895,-2.5283504,-1.661596,-0.388722,2.82014,120.3,-158.1,-9.900001,,,x,,,
1799361,-3.1635783,5.640488,-2.2771304,-1.1128119,0.182928,4.161612,127.50001,-162.90001,-20.1,,,x,,,
1799381,-2.0701728,5.935971,-2.0994818,-0.289636,-0.891774,6.1204658,115.50001,-155.70001,-21.900002,,,x,,,
1799401,-0.39776507,6.5945263,-1.5162925,-1.1356779,-1.6311079,6.9283977,108.3,-153.3,-15.900001,,,x,,,
1799421,0.16269489,4.698413,-1.1352754,-2.2332458,-0.87653,6.410102,98.700005,-160.5,-22.5,,,x,,,
1799444,2.2777283,5.271434,-1.2489225,-1.684462,-0.99086,10.419273,93.9,-167.70001,-12.900001,,,x,,,
1799464,4.313807,6.6997995,-0.9630102,-3.2241058,-0.35061198,12.835447,96.3,-179.70001,-20.7,,,x,,,
1799487,5.4795876,7.29555,-1.2136321,-3.064044,0.373478,12.439104,74.700005,-162.90001,-24.300001,,,x,,,
1799508,7.2375298,8.702382,-1.1849213,-1.02897,-0.045732,13.353744,50.7,-162.90001,-18.900002,,,x,,,
1799529,9.049903,10.106822,-1.367953,-1.722572,0.739334,12.04276,45.9,-174.90001,-20.7,,,x,,,
1799549,9.451856,9.728795,-0.799119,-1.455802,-0.28201398,9.093046,36.300003,-170.1,-20.1,,,x,,,
1799572,9.176709,9.825096,-1.2572966,-0.91463995,1.67684,7.5305357,31.500002,-184.5,-18.300001,,,x,,,
1799593,8.539687,9.866966,-2.3040466,0.396344,2.378064,5.5488157,29.1,-170.1,-24.300001,,,x,,,
1799656,7.2471004,9.13783,-2.192194,1.1128119,1.440558,-0.16768399,19.5,-174.90001,-26.1,,,x,,,
1799677,7.455852,9.639672,-3.1055584,1.250008,0.72409,-1.661596,17.1,-182.1,-18.300001,,,x,,,
1799719,5.3701277,9.002051,-2.8214405,-0.92988396,2.2942219,-0.868908,7.5000005,-170.1,-18.300001,,,x,,,
1799739,5.505906,8.218485,-2.7095876,0.213416,0.083841994,-1.463424,17.1,-172.5,-24.300001,,,x,,,
1799759,6.885224,9.019996,-1.2160246,1.806414,-1.18141,0.769822,24.300001,-174.90001,-15.900001,,,x,,,
1799781,5.5836644,9.612158,-2.488873,-0.853664,3.01069,0.998482,21.900002,-177.3,-20.7,,,x,,,
1799801,6.012533,9.976427,-3.6893458,-2.042696,1.051836,0.81555396,2.7,-174.90001,-18.900002,,,x,,,
1799821,6.401326,9.196448,-2.046247,-0.975616,-3.407034,-1.493912,9.900001,-170.1,-17.7,,,x,,,
1799841,6.3983355,8.369217,-1.3236904,-0.69360197,-2.2256238,-2.873494,7.5000005,-177.3,-23.7,,,x,,,
1799906,5.894699,8.893189,-2.204755,1.036592,-1.585376,-5.0381417,29.1,-165.3,-17.1,,,x,,,
1799928,5.9132414,8.229849,-1.9104687,0.830798,-2.454284,-4.72564,31.500002,-174.90001,-24.900002,,,x,,,
1799948,6.6758738,8.769374,-1.5784993,0.160062,-2.545748,-3.92533,33.9,-182.1,-21.900002,,,x,,,
1799970,6.59333,7.982816,-0.857737,-0.754578,-1.6539739,-5.434486,29.1,-186.90001,-20.1,,,x,,,
1800012,4.798901,6.809858,-1.0814425,0.503052,1.669218,-7.286632,41.100002,-177.3,-14.1,,,x,,,
1800032,3.8586204,6.8367743,-1.2937832,1.25763,2.05794,-6.4939437,55.500004,-179.70001,-17.1,,,x,,,
1800072,2.5588555,6.041244,-1.5330404,1.234764,1.158544,-6.486322,60.300003,-167.70001,-14.700001,,,x,,,
1800132,0.635826,5.912045,-1.4361413,1.8902559,-0.106708,-5.75461,81.9,-155.70001,-14.1,,,x,,,
1800172,-1.7878493,7.8087564,-3.061894,0.884152,4.0777698,-7.477182,84.3,-160.5,-17.1,,,x,,,
1800199,-3.1474283,8.510378,-3.7898338,1.71495,1.6463519,-6.112844,105.9,-165.3,-14.1,,,x,,,
1800219,-3.957912,8.116202,-4.2115245,0.80030996,0.274392,-6.196686,110.700005,-162.90001,-11.700001,,,x,,,
1800259,-3.5966337,9.357946,-3.5248566,0.70122397,-2.545748,-3.50612,113.100006,-162.90001,-20.1,,,x,,,
1800379,-3.7958152,9.655224,-4.122401,1.570132,-2.309466,-2.301844,146.70001,-153.3,-17.1,,,x,,,
1800400,-3.4088168,9.855003,-3.8251243,1.3872039,-3.2927039,-2.111294,144.3,-148.5,-14.1,,,x,,,
1800440,-3.24672,9.4536495,-3.9938006,0.53354,-1.974098,-2.01983,151.5,-158.1,-12.900001,,,x,,,
1800460,-3.0612957,9.587634,-4.2318616,0.594516,-1.8902559,-1.455802,144.3,-141.3,-18.300001,,,x,,,
1800500,-2.56065,9.260449,-3.8496482,0.15244,-1.951232,-0.998482,158.70001,-150.90001,-9.900001,,,x,,,
1800520,-2.3626647,9.060072,-3.786245,-0.17530599,-1.1051899,-0.861286,151.5,-148.5,-20.1,,,x,,,
1800540,-2.1987736,9.055884,-3.975258,-0.19055,-0.594516,-0.541162,141.90001,-148.5,-15.3,,,x,,,
1800560,-1.9613107,8.958985,-3.919631,0.0,-0.72409,-0.28201398,151.5,-141.3,-16.5,,,x,,,
1800580,-1.6861651,8.831581,-3.5404081,-0.007622,-0.81555396,-0.022866,158.70001,-148.5,-21.300001,,,x,,,
1800600,-1.3362514,9.112708,-3.480594,-0.106708,-0.19055,0.274392,144.3,-138.90001,-17.1,,,,,,
1800621,-1.1005831,8.934462,-3.552371,-0.22865999,0.251526,0.022866,149.1,-141.3,-21.900002,,,,,,
1800641,-0.9857396,8.689223,-3.4859772,-0.198172,0.365856,0.083841994,151.5,-148.5,-14.1,,,,,,
1800682,-0.790745,8.714345,-3.4369295,-0.007622,0.33536798,0.358234,141.90001,-150.90001,-15.900001,,,,,,
1800702,-0.65077955,8.810048,-3.2975621,0.07622,0.312502,0.297258,146.70001,-143.70001,-12.900001,,,,,,
1800722,-0.6406111,8.705971,-3.2909827,-0.129574,0.55640596,-0.106708,163.5,-138.90001,-18.300001,,,,,,
1800742,-0.55507666,8.654531,-3.3208897,-0.144818,0.67073596,-0.182928,149.1,-146.1,-14.1,,,,,,
1800762,-0.46475708,8.780141,-3.3478062,-0.144818,0.92988396,-0.251526,151.5,-148.5,-14.1,,,,,,
1800782,-0.55507666,8.647951,-3.3155065,-0.182928,1.02897,-0.3811,153.90001,-150.90001,-15.900001,,,,,,
1800802,-0.6477888,8.548659,-3.2335608,-0.274392,1.074702,-0.327746,151.5,-150.90001,-17.1,,,,,,
1800823,-0.60651696,9.134839,-3.4267612,-0.26677,1.310984,-0.274392,163.5,-146.1,-15.900001,,,,,,
1800843,-0.7829692,9.188074,-3.636111,-0.259148,1.41007,-0.739334,158.70001,-146.1,-14.1,,,,,,
1800863,-0.9941136,9.09297,-3.6923366,-0.160062,1.1204339,-0.853664,149.1,-148.5,-15.900001,,,,,,
1800883,-1.0760592,8.823805,-3.7533472,0.007622,0.998482,-0.640248,153.90001,-141.3,-16.5,,,,,,
1800903,-1.1657807,8.908143,-3.6444852,-0.068598,0.769822,-0.259148,163.5,-150.90001,-14.1,,,,,,
1800923,-1.1831268,8.891396,-3.7413843,-0.274392,0.983238,-0.23628199,141.90001,-138.90001,-9.3,,,,,,
1800946,-1.2608854,8.694008,-3.8478537,-0.160062,1.044214,-0.251526,151.5,-158.1,-11.1,,,,,,
1800966,-1.200473,8.650344,-3.920229,-0.15244,0.640248,-0.045732,149.1,-146.1,-14.700001,,,,,,
1800986,-1.146042,8.531911,-3.7892358,-0.26677,0.11432999,0.23628199,146.70001,-138.90001,-18.900002,,,,,,
1801006,-1.0413669,8.57438,-3.8035913,-0.442076,0.030488,0.434454,139.5,-143.70001,-12.900001,,,,,,
1801030,-0.88704604,8.489443,-3.8006005,-0.548784,-0.17530599,0.297258,161.1,-143.70001,-12.900001,,,,,,
1801050,-0.7853617,8.510378,-3.6343167,-0.49543,-0.373478,0.40396598,153.90001,-153.3,-15.3,,,,,,
1801070,-0.66513497,8.800478,-3.6420925,-0.449698,-0.16768399,0.47256398,139.5,-138.90001,-14.700001,,,,,,
1801094,-0.48509395,8.955995,-3.6391017,-0.49543,-0.15244,0.20579399,149.1,-143.70001,-17.7,,,,,,
1801114,-0.39597064,8.864479,-3.4447055,-0.480186,-0.15244,0.030488,158.70001,-146.1,-17.7,,,,,,
1801134,-0.38939106,8.713747,-3.4453034,-0.55640596,0.160062,-0.137196,146.70001,-141.3,-13.500001,,,,,,
1801154,-0.28830492,8.868666,-3.4147983,-0.320124,0.251526,-0.022866,141.90001,-136.5,-14.1,,,,,,
1801174,-0.3229972,8.691017,-3.3621616,-0.30488,0.35061198,-0.053354,153.90001,-160.5,-16.5,,,,,,
1801194,-0.3953725,8.70298,-3.3226843,-0.213416,0.45731997,0.053354,146.70001,-126.9,-19.5,,,,,,
1801214,-0.40374652,8.825002,-3.3376377,-0.106708,0.510674,-0.137196,153.90001,-143.70001,-12.3,,,,,,
1801234,-0.5150011,9.048707,-3.401639,-0.22865999,0.708846,-0.33536798,153.90001,-141.3,-15.900001,,,x,,,
1801254,-0.68666816,8.518154,-3.4088168,-0.625004,0.625004,-0.57164997,153.90001,-148.5,-7.5000005,,,x,,,
1801318,-2.2849061,8.807057,-3.9632952,-0.80793196,1.044214,0.30488,144.3,-158.1,-14.1,,,x,,,
1801338,-3.0828288,8.818421,-3.8974996,-0.846042,1.173788,1.006104,146.70001,-150.90001,-11.1,,,x,,,
1801359,-4.214515,9.831078,-4.207936,-1.440558,2.339954,1.8292799,139.5,-146.1,-17.1,,,x,,,
1801400,-6.364241,10.052391,-5.7164526,-1.288118,4.817104,1.211898,158.70001,-146.1,-15.900001,,,x,,,
1801440,-7.2267632,9.727001,-5.7738743,-3.54423,1.1280559,3.452766,141.90001,-153.3,-15.3,,,x,,,
1801460,-6.744062,9.174915,-5.3659406,-4.1921,0.33536798,5.3658876,129.90001,-155.70001,-14.700001,,,x,,,
1801520,-3.4644442,6.4713087,-2.8657029,-3.879598,-0.47256398,5.800342,113.100006,-162.90001,-17.7,,,x,,,
1801543,-2.5026302,5.4030256,-2.5421076,-2.62959,0.46494198,5.5488157,117.9,-162.90001,-20.1,,,x,,,
1801564,-1.1669769,5.1404405,-2.2579896,-1.1051899,0.213416,6.333882,105.9,-162.90001,-21.300001,,,x,,,
1801587,0.9438696,6.0256925,-1.4235803,-1.326228,0.594516,6.692116,93.9,-162.90001,-15.900001,,,x,,,
1801607,2.5445,5.77507,-0.8230447,-2.903982,0.60976,6.760714,84.3,-167.70001,-20.7,,,x,,,
1801627,4.087111,7.078424,0.11663788,-4.23021,1.310984,8.033587,65.100006,-172.5,-18.900002,,,x,,,
1801647,4.2581797,8.333926,-0.3259879,-5.167716,4.4207597,6.5701637,74.700005,-179.70001,-23.1,,,x,,,
1801667,4.5369143,7.899076,-1.1867156,-4.314052,3.7500238,4.72564,74.700005,-162.90001,-15.900001,,,x,,,
1801687,5.51428,8.792104,-0.6471907,-2.2103798,0.853664,6.112844,67.5,-174.90001,-23.1,,,x,,,
1801770,5.347996,8.846535,-0.6543684,-0.480186,-0.022866,1.9131219,43.5,-184.5,-23.7,,,x,,,
1801819,5.4155865,9.362134,-1.5659384,0.960372,1.3948259,2.385686,45.9,-167.70001,-16.5,,,x,,,
1801840,5.973056,9.455444,-1.5958455,0.69360197,1.227142,2.6829438,43.5,-179.70001,-20.1,,,x,,,
1801881,6.8541203,9.570288,-1.367953,-1.44818,2.126538,3.96344,24.300001,-177.3,-17.1,,,x,,,
1801901,6.945038,9.813133,-1.3799158,-1.661596,2.530504,3.932952,41.100002,-179.70001,-22.5,,,x,,,
1801921,7.2267632,9.706066,-1.79084,-1.806414,2.59148,3.475632,36.300003,-177.3,-23.7,,,x,,,
1801941,6.8924017,8.182596,-1.1855193,-1.6234859,1.577754,3.071666,14.700001,-177.3,-26.7,,,x,,,
1802006,7.3900566,9.49851,-0.9241309,-0.083841994,-1.547266,-1.166166,21.900002,-172.5,-27.300001,,,x,,,
1802026,7.3015313,9.483557,-0.70461243,-0.40396598,-1.3719599,-1.432936,19.5,-170.1,-24.900002,,,x,,,
1802066,6.873261,9.56969,-1.03718,0.16768399,-0.967994,-3.2241058,19.5,-182.1,-26.1,,,x,,,
1802114,6.9593935,9.582849,-1.0784518,1.082324,-1.814036,-1.6158639,24.300001,-170.1,-22.5,,,x,,,
1802178,5.283995,7.6502485,-0.32359535,0.17530599,-2.103672,-5.228692,36.300003,-174.90001,-27.900002,,,x,,,
1802240,3.8957052,7.309307,0.006579573,1.71495,-1.265252,-5.403998,57.9,-174.90001,-25.500002,,,x,,,
1802261,3.0230145,6.162667,-0.004785144,1.6387299,-0.92988396,-6.684494,72.3,-162.90001,-25.500002,,,x,,,
1802304,-1.6831744,5.669199,-2.5462947,4.367406,2.980202,-4.9466777,74.700005,-170.1,-21.300001,,,x,,,
1802345,-2.7975147,8.138931,-4.33534,3.414656,0.769822,-4.519846,89.100006,-162.90001,-18.900002,,,x,,,
1802416,-2.911162,9.27301,-4.846154,1.6311079,-1.250008,-4.352162,91.5,-165.3,-12.3,,,x,,,
1802478,-2.64439,9.731188,-4.6708984,1.3643379,-0.68597996,-2.7515419,89.100006,-160.5,-12.900001,,,x,,,
1802518,-2.0558174,9.278992,-4.124794,0.47256398,-0.60976,-3.528986,115.50001,-162.90001,-9.3,,,x,,,
1802594,-1.5868733,9.348974,-3.9004903,0.22865999,-0.41158798,-1.265252,122.700005,-158.1,-14.700001,,,x,,,
1802614,-1.3852991,9.104933,-3.6223538,-0.091464,-0.907018,-0.93750596,127.50001,-153.3,-15.3,,,x,,,
1802654,-0.80988556,9.195251,-3.455472,-0.586894,-0.91463995,0.030488,125.100006,-172.5,-11.1,,,x,,,
1802675,-0.4438221,9.442285,-3.3777134,-0.830798,-0.830798,0.129574,129.90001,-162.90001,-11.700001,,,x,,,
1802695,-0.27933276,9.02837,-3.154008,-1.021348,-0.868908,-0.26677,125.100006,-150.90001,-17.7,,,x,,,
1802715,-0.1280026,9.201832,-3.16298,-0.87653,-0.41158798,0.20579399,113.100006,-155.70001,-18.300001,,,x,,,
1802735,-0.13697474,9.062464,-3.054716,-0.884152,-0.20579399,0.144818,115.50001,-160.5,-18.900002,,,,,,
1802755,0.0681883,9.227551,-2.9177413,-0.640248,-0.099086,0.22865999,129.90001,-162.90001,-17.7,,,,,,
1802775,0.14056359,9.255664,-2.8860397,-0.708846,0.17530599,0.068598,117.9,-160.5,-14.1,,,,,,
1802797,0.29428634,9.187476,-2.8704882,-0.92226195,0.221038,0.015244,127.50001,-153.3,-15.900001,,,,,,
1802838,0.18422803,8.820814,-2.6790824,-0.099086,0.23628199,-0.785066,117.9,-158.1,-20.7,,,,,,
1802858,0.3020622,9.0977545,-2.8627121,0.053354,0.144818,-1.1356779,117.9,-167.70001,-13.500001,,,,,,
1802879,0.2895012,8.813039,-2.9554243,0.47256398,-0.396344,-2.073184,115.50001,-162.90001,-10.5,,,,,,
1802900,0.44920537,8.834572,-2.8465624,0.503052,-0.975616,-1.3872039,120.3,-158.1,-16.5,,,,,,
1802960,0.31282878,8.938648,-3.0044723,-0.586894,0.121952,-0.45731997,120.3,-158.1,-13.500001,,,,,,
1802980,0.1782466,8.6652975,-2.8764696,-0.365856,0.22865999,-0.060976,129.90001,-155.70001,-16.5,,,,,,
1803000,0.08374002,8.865077,-2.9386764,-0.251526,0.41158798,0.312502,125.100006,-150.90001,-15.900001,,,,,,
1803020,0.11903045,9.0540905,-2.9763594,-0.129574,0.46494198,0.129574,127.50001,-160.5,-15.900001,,,,,,
1803040,-0.01016843,8.90276,-3.07924,-0.07622,0.64787,-0.26677,134.70001,-160.5,-15.900001,,,,,,
1803060,-0.0765623,8.853712,-3.1605875,0.243904,0.442076,-0.129574,122.700005,-153.3,-17.7,,,,,,
1803080,0.002392572,9.040931,-2.9721725,0.259148,0.182928,-0.091464,113.100006,-162.90001,-17.7,,,,,,
1803100,-0.05682358,8.963771,-2.957817,0.17530599,0.373478,-0.28201398,117.9,-165.3,-19.5,,,,,,
1803123,-0.17346147,9.016407,-3.066679,0.129574,0.41158798,-0.26677,125.100006,-150.90001,-17.1,,,,,,
1803143,-0.18841504,9.115699,-3.175541,-0.007622,0.289636,-0.160062,125.100006,-158.1,-12.900001,,,,,,
1803163,-0.0891233,9.00265,-3.1952798,0.0,-0.060976,-0.17530599,127.50001,-153.3,-16.5,,,,,,
1803183,-0.027514577,9.058277,-3.2251868,0.060976,-0.182928,0.030488,120.3,-160.5,-13.500001,,,,,,
1803203,-0.04187001,9.203626,-3.2120278,-0.251526,-0.3811,0.022866,122.700005,-153.3,-11.700001,,,,,,
1803223,-0.041271865,9.030165,-3.2664587,-0.69360197,-0.518296,0.007622,122.700005,-155.70001,-20.1,,,,,,
1803266,0.12979703,8.799879,-3.1958778,-0.53354,-0.899396,0.03811,125.100006,-153.3,-14.1,,,,,,
1803286,0.23626648,9.2484865,-3.2072427,-0.259148,-0.617382,0.33536798,115.50001,-148.5,-10.5,,,,,,
1803306,0.21473333,9.07024,-3.2024574,-0.297258,-0.19055,-0.099086,115.50001,-155.70001,-14.700001,,,,,,
1803326,0.12142302,8.955397,-3.070268,-0.091464,0.19055,-0.35061198,129.90001,-155.70001,-13.500001,,,,,,
1803349,-0.13458216,8.64197,-3.2449257,-0.320124,0.891774,-0.327746,117.9,-153.3,-12.900001,,,,,,
1803369,-0.22191104,8.862684,-3.271842,-0.243904,0.830798,-0.198172,117.9,-158.1,-17.7,,,,,,
1803389,-0.1752559,8.933266,-3.3735263,-0.251526,0.83842,-0.15244,120.3,-155.70001,-18.300001,,,,,,
1803411,-0.027514577,8.979322,-3.262272,-0.251526,0.55640596,-0.106708,115.50001,-150.90001,-14.700001,,,,,,
1803431,-0.26617363,8.780141,-3.1300821,-0.548784,0.69360197,-0.11432999,115.50001,-155.70001,-15.3,,,,,,
1803453,-0.009570288,9.13125,-3.326273,-0.41158798,0.64787,-0.068598,127.50001,-155.70001,-11.1,,,,,,
1803473,-0.17286332,9.004444,-3.2443275,-0.289636,0.426832,-0.068598,113.100006,-158.1,-23.7,,,,,,
1803493,-0.09091773,9.149195,-3.368143,-0.426832,0.312502,0.0,125.100006,-153.3,-11.700001,,,,,,
1803516,-0.07536601,9.101942,-3.3741245,-0.137196,-0.41921,0.099086,110.700005,-150.90001,-23.7,,,,,,
1803537,0.026916433,8.991285,-3.107951,-0.617382,-0.503052,-0.251526,117.9,-155.70001,-15.900001,,,,,,
1803557,0.0681883,8.856703,-3.145634,-0.487808,-0.33536798,-0.297258,127.50001,-150.90001,-14.700001,,,,,,
1803577,0.1016843,8.673671,-3.061894,-0.67073596,-0.091464,-0.365856,117.9,-146.1,-12.3,,,,,,
1803617,-0.24105161,8.687428,-3.1402507,-0.41921,0.617382,0.030488,127.50001,-162.90001,-17.1,,,x,,,
1803637,-0.4258778,8.993079,-3.299955,-0.3811,0.72409,-0.045732,120.3,-158.1,-18.300001,,,x,,,
1803657,-0.69504213,8.729897,-3.2790198,-0.251526,0.548784,-0.22865999,113.100006,-153.3,-19.5,,,x,,,
1803679,-0.8936256,8.780141,-3.4046297,-0.243904,0.617382,0.007622,125.100006,-158.1,-19.5,,,x,,,
1803700,-1.3506068,8.60967,-3.3747227,-0.099086,0.40396598,-0.091464,127.50001,-155.70001,-21.300001,,,x,,,
1803740,-2.0845282,9.014613,-3.033781,0.548784,0.327746,-0.20579399,113.100006,-150.90001,-9.3,,,x,,,
1803760,-2.8902268,9.680346,-3.343619,-0.243904,1.516778,-0.442076,127.50001,-150.90001,-11.1,,,x,,,
1803780,-3.6714015,10.110411,-4.0105486,-0.594516,2.637212,-0.67073596,115.50001,-143.70001,-16.5,,,x,,,
1803802,-4.751648,10.129551,-4.623047,-0.785066,3.094532,-0.23628199,122.700005,-155.70001,-16.5,,,x,,,
1803822,-5.877951,9.775451,-5.0010734,-1.806414,3.384168,1.02897,105.9,-148.5,-11.700001,,,x,,,
1803843,-6.2733235,9.60797,-5.496934,-2.332332,3.574718,2.7591639,122.700005,-150.90001,-19.5,,,x,,,
1803883,-4.7414794,8.753224,-4.86051,-2.7896519,0.92226195,3.7728899,110.700005,-148.5,-18.900002,,,x,,,
1803919,-3.0469403,6.5789747,-3.6989162,-1.6387299,0.46494198,3.650938,96.3,-165.3,-15.900001,,,x,,,
1803939,-2.1814275,6.2643514,-2.9380782,-1.204276,0.053354,4.11588,98.700005,-170.1,-14.700001,,,x,,,
1803979,0.25779963,5.766098,-1.8105788,-1.94361,-1.051836,3.879598,79.5,-165.3,-11.1,,,x,,,
1804000,1.1526215,5.447288,-1.0844332,-2.05794,-1.5929979,4.0167937,79.5,-153.3,-14.700001,,,x,,,
1804020,2.5337336,5.723032,-0.046655152,-2.149404,-0.312502,4.984788,91.5,-162.90001,-16.5,,,x,,,
1804040,2.8022997,6.9468327,-1.1580048,-2.576236,2.995446,5.045764,91.5,-162.90001,-17.1,,,x,,,
1804158,7.2889705,9.872948,-0.6543684,-0.868908,2.32471,3.864354,43.5,-170.1,-24.300001,,,x,,,
1804198,6.811652,11.001045,-2.64439,2.179892,0.41921,2.408552,38.7,-167.70001,-23.7,,,x,,,
1804218,6.59991,10.791098,-2.1915958,1.669218,-0.47256398,1.516778,38.7,-182.1,-21.300001,,,x,,,
1804238,5.927597,9.792797,-2.0019846,0.68597996,0.16768399,0.46494198,31.500002,-182.1,-21.900002,,,x,,,
1804284,5.515476,9.797582,-2.2789247,1.21952,0.617382,0.503052,29.1,-184.5,-17.7,,,x,,,
1804304,4.6834593,9.203626,-2.234662,0.221038,1.150922,0.15244,29.1,-174.90001,-19.5,,,x,,,
1804324,3.9758563,9.0433235,-2.53493,0.17530599,0.99086,0.160062,31.500002,-167.70001,-18.300001,,,x,,,
1804344,4.0440445,8.688026,-2.0474434,0.327746,-0.33536798,-0.35061198,26.7,-172.5,-15.900001,,,x,,,
1804366,4.8754635,10.041026,-1.5007408,0.28201398,-0.731712,0.525918,31.500002,-174.90001,-12.900001,,,x,,,
1804386,4.7887325,8.957191,-1.9834421,-0.434454,0.891774,0.64787,33.9,-186.90001,-20.7,,,x,,,
1804406,5.124291,9.591223,-2.263373,0.49543,0.617382,0.92226195,38.7,-170.1,-23.1,,,x,,,
1804429,6.1973596,10.794088,-2.234662,0.80793196,-0.373478,0.891774,38.7,-179.70001,-10.5,,,x,,,
1804449,6.6005077,10.255759,-1.5360311,-0.708846,-0.548784,0.289636,29.1,-170.1,-20.1,,,x,,,
1804469,7.0808163,9.8239,-1.8219435,-1.013726,-0.449698,0.289636,43.5,-172.5,-19.5,,,x,,,
1804489,7.584453,9.651037,-1.9266185,-0.182928,-0.853664,0.022866,29.1,-179.70001,-23.1,,,x,,,
1804513,7.120892,9.277198,-1.8895336,0.16768399,-2.2713559,-2.888738,26.7,-182.1,-13.500001,,,x,,,
1804533,6.81225,9.063063,-1.5922565,1.036592,-3.1783738,-4.0777698,33.9,-174.90001,-15.3,,,x,,,
1804554,6.3905597,8.470901,-1.568929,0.80793196,-3.140264,-4.626554,33.9,-172.5,-17.7,,,x,,,
1804574,6.1650596,8.524734,-1.4905723,0.777444,-2.652456,-5.37351,38.7,-182.1,-18.900002,,,x,,,
1804594,5.296556,7.626921,-1.6281452,0.617382,-1.6387299,-6.714982,55.500004,-170.1,-16.5,,,x,,,
1804616,4.4453983,7.161566,-1.7280351,1.3719599,-1.082324,-6.547298,60.300003,-170.1,-15.900001,,,x,,,
1804636,3.292777,7.30512,-2.3979552,1.288118,-0.503052,-5.8613176,72.3,-162.90001,-17.7,,,x,,,
1804656,3.142045,7.350579,-2.5450983,1.082324,-0.785066,-5.83083,65.100006,-167.70001,-26.1,,,x,,,
1804676,2.9679854,7.2614555,-2.3207948,0.884152,-1.768304,-5.632658,62.7,-179.70001,-18.900002,,,x,,,
1804696,2.597735,7.349383,-2.3160095,0.19055,-1.730194,-5.121984,62.7,-158.1,-25.500002,,,x,,,
1804716,1.9361888,6.46772,-2.1826236,-0.503052,-1.8673899,-5.6097918,79.5,-167.70001,-15.3,,,x,,,
1804736,1.3374476,5.5376077,-1.8566358,-0.320124,-2.065562,-6.036624,93.9,-172.5,-15.900001,,,x,,,
1804756,-0.025720147,5.89111,-2.041462,0.07622,-0.716468,-5.5183277,89.100006,-167.70001,-18.900002,,,x,,,
1804842,-5.6177588,8.1251745,-3.8125632,0.213416,-1.06708,-5.7165,125.100006,-155.70001,-19.5,,,x,,,
1804880,-4.966979,9.436303,-3.3143103,0.487808,-3.361302,-4.9619217,125.100006,-162.90001,-17.1,,,x,,,
1804900,-4.7971067,8.990687,-3.6618314,0.442076,-0.94512796,-4.4055157,120.3,-158.1,-20.7,,,x,,,
1804942,-4.801294,9.227551,-4.0195208,0.81555396,-0.213416,-3.2850819,132.3,-165.3,-18.300001,,,x,,,
1804986,-3.7252345,9.155176,-3.4506867,0.49543,-0.739334,-2.179892,137.1,-141.3,-14.700001,,,x,,,
1805026,-2.6784842,8.925489,-3.1354654,-0.34298998,0.64787,-1.089946,141.90001,-150.90001,-17.1,,,x,,,
1805062,-2.234662,8.673073,-3.1097453,0.0,0.731712,-0.49543,149.1,-158.1,-22.5,,,x,,,
1805082,-1.9487498,9.315478,-3.262272,0.19055,0.655492,-0.34298998,146.70001,-150.90001,-15.3,,,x,,,
1805122,-1.5282553,8.85431,-3.3208897,0.11432999,-0.22865999,-0.373478,132.3,-148.5,-20.7,,,x,,,
1805162,-1.0700778,9.3346195,-3.209037,0.07622,-0.525918,0.510674,153.90001,-146.1,-17.7,,,x,,,
1805182,-0.88285905,9.128858,-3.0900066,-0.144818,-0.541162,0.442076,151.5,-143.70001,-14.700001,,,x,,,
1805202,-0.8039042,9.240711,-3.1318767,-0.160062,-0.198172,0.41921,134.70001,-160.5,-17.1,,,x,,,
1805222,-0.77938026,9.162354,-3.0828288,-0.11432999,-0.03811,0.251526,151.5,-148.5,-18.900002,,,x,,,
1805242,-0.83141875,8.822609,-2.9990888,-0.327746,0.274392,0.20579399,151.5,-138.90001,-18.300001,,,x,,,
1805262,-0.736314,8.862086,-3.0200238,-0.221038,0.449698,0.320124,146.70001,-138.90001,-13.500001,,,,,,
1805306,-0.757249,9.043921,-3.2078407,-0.129574,0.663114,-0.053354,151.5,-155.70001,-12.900001,,,,,,
1805326,-0.7554546,8.915919,-3.359769,-0.007622,0.3811,0.068598,153.90001,-150.90001,-24.300001,,,,,,
1805346,-0.52457136,9.073231,-3.279618,0.274392,-0.15244,0.34298998,151.5,-146.1,-18.300001,,,,,,
1805366,-0.4372425,9.016407,-3.2102332,0.243904,-0.26677,0.434454,149.1,-153.3,-15.3,,,,,,
1805386,-0.4151112,9.326843,-3.259879,0.17530599,-0.23628199,0.663114,149.1,-148.5,-15.900001,,,,,,
1805426,-0.49765494,8.862684,-3.1115398,-0.746956,-0.129574,0.07622,137.1,-143.70001,-15.3,,,,,,
1805446,-0.6932477,8.62582,-3.2078407,-0.777444,-0.091464,0.19055,151.5,-136.5,-16.5,,,,,,
1805466,-0.54072124,9.12168,-3.1569986,-0.40396598,-0.327746,0.518296,137.1,-153.3,-21.300001,,,,,,
1805486,-0.43305552,9.104334,-3.0577068,-0.64787,-0.198172,0.312502,146.70001,-148.5,-18.300001,,,,,,
1805506,-0.3995595,9.081007,-2.9811447,-0.69360197,-0.060976,0.144818,134.70001,-143.70001,-16.5,,,,,,
1805526,-0.5443101,8.81603,-3.0852215,-0.769822,0.26677,-0.137196,139.5,-150.90001,-16.5,,,,,,
1805548,-0.598143,8.842946,-3.116923,-0.434454,0.20579399,0.0,132.3,-146.1,-21.300001,,,,,,
1805568,-0.6268538,8.745448,-3.0756512,-0.297258,0.11432999,-0.121952,141.90001,-153.3,-16.5,,,,,,
1805588,-0.48688838,8.784925,-3.0606976,-0.053354,-0.030488,-0.007622,141.90001,-150.90001,-9.900001,,,,,,
1805608,-0.45638308,8.834572,-3.0612957,0.053354,0.015244,0.015244,144.3,-153.3,-16.5,,,,,,
1805628,-0.49526238,8.953004,-3.1246989,0.007622,0.068598,0.19055,153.90001,-146.1,-12.900001,,,,,,
1805668,-0.43903694,8.784925,-3.3167028,0.160062,0.35061198,0.083841994,134.70001,-150.90001,-20.1,,,,,,
1805712,-0.37324122,9.088782,-3.3346472,0.20579399,0.053354,0.015244,146.70001,-150.90001,-14.700001,,,,,,
1805732,-0.32479164,9.090577,-3.322086,-0.083841994,0.129574,-0.030488,141.90001,-143.70001,-20.7,,,,,,
1805752,-0.32419348,8.906947,-3.3089268,-0.137196,0.26677,-0.083841994,137.1,-146.1,-17.7,,,,,,
1805772,-0.37563378,8.8602915,-3.2957678,-0.106708,0.40396598,-0.23628199,129.90001,-148.5,-11.700001,,,,,,
1805792,-0.38879293,8.850123,-3.2772253,-0.068598,0.480186,-0.297258,137.1,-160.5,-12.900001,,,,,,
1805815,-0.38640037,8.862086,-3.2861974,-0.129574,0.487808,-0.358234,137.1,-146.1,-14.700001,,,,,,
1805835,-0.39656878,9.140223,-3.4088168,-0.091464,0.617382,-0.60976,146.70001,-146.1,-15.3,,,,,,
1805855,-0.5873764,8.719728,-3.3125157,-0.106708,0.16768399,-0.83842,144.3,-148.5,-15.3,,,,,,
1805875,-0.41570938,9.066651,-3.4692292,0.221038,0.129574,-0.45731997,139.5,-153.3,-14.700001,,,,,,
1805895,-0.5048327,8.818421,-3.3448155,0.0,0.15244,-0.312502,146.70001,-148.5,-10.5,,,,,,
1805917,-0.5419175,8.994276,-3.3400304,-0.160062,0.221038,-0.030488,139.5,-153.3,-10.5,,,,,,
1805938,-0.58797455,8.944032,-3.3196936,-0.30488,0.23628199,-0.11432999,156.3,-158.1,-15.3,,,x,,,
1805958,-0.6430037,8.877638,-3.3466098,-0.259148,0.144818,-0.23628199,144.3,-150.90001,-18.900002,,,x,,,
1806038,-0.711192,8.99607,-3.2652624,-0.22865999,-0.449698,-0.358234,146.70001,-150.90001,-23.7,,,x,,,
1806094,-0.6962384,8.97693,-3.225785,-0.17530599,-0.480186,-0.045732,125.100006,-138.90001,-18.300001,,,x,,,
1806198,-1.9977975,8.833974,-3.6127834,-0.69360197,0.7622,0.94512796,137.1,-146.1,-12.900001,,,x,,,
1806218,-2.6910453,9.117494,-3.6504664,-0.69360197,1.044214,1.06708,139.5,-153.3,-13.500001,,,x,,,
1806258,-4.139149,9.860985,-4.1469254,-1.6387299,2.195136,0.358234,144.3,-160.5,-14.700001,,,x,,,
1806278,-5.0692616,9.067249,-3.6450832,-2.2256238,2.2027578,0.297258,146.70001,-148.5,-11.1,,,x,,,
1806302,-6.4910474,9.33761,-4.134364,-3.2088618,5.0686297,1.417692,137.1,-153.3,-14.700001,,,x,,,
1806322,-6.12618,10.07512,-4.7289186,-3.1783738,4.15399,1.996964,139.5,-153.3,-20.1,,,x,,,
1806342,-5.8683805,8.927284,-4.170253,-3.612828,1.8902559,1.6082419,122.700005,-158.1,-22.5,,,x,,,
1806362,-4.678674,8.024088,-3.439322,-3.368924,0.26677,2.301844,132.3,-141.3,-15.3,,,x,,,
1806382,-3.4578645,7.2279596,-2.5127985,-2.7972739,-0.28201398,2.43904,120.3,-155.70001,-17.7,,,x,,,
1806406,-2.7119803,6.6752753,-2.045649,-2.179892,0.769822,2.560992,120.3,-153.3,-21.900002,,,x,,,
1806426,-2.0905097,6.4976273,-2.1150336,-1.67684,1.501534,2.7286758,122.700005,-158.1,-19.5,,,x,,,
1806448,-1.4367394,6.2362385,-2.171259,-1.272874,1.554888,2.812518,117.9,-150.90001,-14.1,,,x,,,
1806509,1.640108,5.7457614,-1.9481517,-0.80793196,0.640248,4.565578,113.100006,-172.5,-20.1,,,x,,,
1806576,4.3688364,8.998463,-3.2616737,-0.099086,0.884152,9.855246,69.9,-167.70001,-14.700001,,,x,,,
1806616,6.538899,10.08828,-2.4637508,-0.87653,-2.873494,9.154022,57.9,-170.1,-21.900002,,,x,,,
1806636,7.441497,10.183982,-1.3302699,-2.05794,-2.545748,7.6524878,55.500004,-167.70001,-13.500001,,,x,,,
1806676,6.538899,10.222263,-2.250812,-0.708846,-0.60976,3.940574,38.7,-167.70001,-21.300001,,,x,,,
1806697,7.019806,10.782723,-1.8847485,-0.442076,-1.417692,2.2561119,31.500002,-158.1,-19.5,,,x,,,
1806718,6.6698923,9.685131,-1.422384,-1.8521459,-0.632626,0.95274997,29.1,-165.3,-24.900002,,,x,,,
1806778,5.699704,10.189963,-2.5038264,-0.731712,0.56402797,-0.55640596,48.300003,-177.3,-20.7,,,x,,,
1806799,5.4078107,9.519445,-1.7214555,-1.699706,0.45731997,-0.365856,45.9,-184.5,-21.300001,,,x,,,
1806820,5.213414,9.108521,-1.6981279,-1.493912,0.67835796,-1.4024479,33.9,-174.90001,-21.300001,,,x,,,
1806860,5.7577243,9.94652,-1.4271691,-0.503052,0.388722,-1.036592,33.9,-179.70001,-21.900002,,,x,,,
1806880,5.2158065,9.573876,-1.2417448,-1.074702,0.868908,-1.1051899,29.1,-172.5,-20.1,,,x,,,
1806924,5.7409763,9.027174,-1.6891557,0.960372,0.26677,-2.309466,48.300003,-174.90001,-19.5,,,x,,,
1806945,6.0938807,9.68872,-1.8674023,0.99086,-0.312502,-1.1204339,41.100002,-167.70001,-21.900002,,,x,,,
1806989,6.0143275,9.461426,-1.9349926,0.510674,-1.211898,-3.62045,53.100002,-174.90001,-21.300001,,,x,,,
1807009,5.8588104,8.810646,-1.7788771,0.92226195,-1.722572,-4.87808,45.9,-174.90001,-17.7,,,x,,,
1807029,5.6632175,8.462526,-1.7076982,1.082324,-1.6539739,-4.855214,60.300003,-174.90001,-18.900002,,,x,,,
1807049,4.8796506,8.290261,-1.7980177,0.87653,-1.3643379,-4.718018,53.100002,-182.1,-22.5,,,x,,,
1807089,4.078139,7.4899464,-2.0277047,0.80030996,-1.509156,-6.006136,69.9,-167.70001,-20.7,,,x,,,
1807109,3.6157742,6.8415594,-1.8596265,1.051836,-1.570132,-5.8918056,62.7,-167.70001,-24.300001,,,x,,,
1807129,2.950041,6.6334057,-1.7513626,0.80030996,-1.18141,-5.670768,84.3,-165.3,-22.5,,,x,,,
1807149,1.8351027,5.2146106,-1.7705032,0.22865999,-0.91463995,-6.219552,91.5,-165.3,-18.900002,,,x,,,
1807170,-0.08732887,3.5296416,-1.6622393,0.967994,-0.091464,-6.28815,98.700005,-158.1,-15.900001,,,x,,,
1807190,-1.359579,5.8887177,-2.6509697,2.13416,1.18141,-3.932952,103.50001,-158.1,-19.5,,,x,,,
1807210,-2.7753835,7.943339,-4.015932,2.073184,1.920744,-4.5274677,98.700005,-170.1,-18.900002,,,x,,,
1807290,-3.7964134,9.564904,-3.991408,0.92226195,0.769822,-3.955818,127.50001,-160.5,-18.900002,,,x,,,
1807310,-4.041652,9.61754,-4.0512223,0.907018,0.792688,-4.237832,129.90001,-160.5,-15.900001,,,x,,,
1807330,-4.360462,8.927284,-3.8041892,0.716468,0.891774,-4.397894,127.50001,-155.70001,-12.900001,,,x,,,
1807350,-4.688245,9.422546,-4.246815,0.91463995,1.3414719,-3.323192,122.700005,-167.70001,-16.5,,,x,,,
1807371,-4.7552366,9.504492,-4.4866705,0.769822,0.594516,-2.85825,129.90001,-143.70001,-12.900001,,,x,,,
1807391,-4.259376,9.426733,-4.0111465,0.49543,-0.80793196,-1.974098,134.70001,-143.70001,-14.700001,,,x,,,
1807411,-3.7964134,9.801769,-3.7288232,0.198172,-0.49543,-1.326228,132.3,-150.90001,-18.900002,,,x,,,
1807453,-3.1534097,9.596007,-3.627737,-0.17530599,-0.739334,-1.471046,141.90001,-141.3,-16.5,,,x,,,
1807473,-2.7077932,9.210804,-3.405826,-0.487808,-0.80793196,-1.1280559,146.70001,-148.5,-15.3,,,x,,,
1807493,-2.356085,8.770571,-3.363358,-0.55640596,-0.792688,-0.67073596,139.5,-153.3,-14.700001,,,x,,,
1807515,-1.9505442,9.057081,-3.1324747,-0.045732,-1.3948259,0.121952,141.90001,-146.1,-17.1,,,x,,,
1807535,-1.6419024,9.315478,-3.1863077,-0.099086,-0.830798,0.312502,129.90001,-153.3,-11.1,,,x,,,
1807555,-1.2812222,9.375293,-3.1581948,-0.121952,-0.80030996,-0.22865999,129.90001,-153.3,-14.700001,,,x,,,
1807615,-0.97796375,8.832777,-3.1994667,-0.221038,0.099086,0.030488,122.700005,-150.90001,-12.900001,,,x,,,
1807637,-0.81048375,9.028968,-3.2413368,-0.091464,0.083841994,0.213416,139.5,-146.1,-14.1,,,x,,,
1807657,-0.80270785,8.807057,-3.2784216,-0.16768399,-0.03811,0.007622,139.5,-150.90001,-20.7,,,x,,,
1807699,-0.4521961,8.826198,-3.058305,-0.068598,-0.358234,0.327746,137.1,-150.90001,-12.3,,,x,,,
1807719,-0.3953725,8.808253,-3.1970742,-0.19055,-0.160062,0.41921,146.70001,-150.90001,-21.300001,,,x,,,
1807739,-0.5126085,8.746046,-3.480594,0.068598,-0.137196,0.632626,139.5,-143.70001,-16.5,,,x,,,
1807760,-0.65616286,8.826796,-3.6205595,0.47256398,-0.586894,1.1204339,127.50001,-143.70001,-15.3,,,,,,
1807780,-0.59933925,8.849525,-3.3783114,0.388722,-1.44818,1.684462,144.3,-153.3,-17.7,,,,,,
1807800,-0.33615634,9.297534,-3.3537877,0.160062,-1.318606,2.301844,129.90001,-146.1,-11.700001,,,,,,
1807824,-0.34991363,9.668982,-3.4321444,-0.586894,-1.089946,1.570132,149.1,-160.5,-12.3,,,,,,
1807844,0.028710863,9.629503,-3.426163,-1.29574,-1.074702,0.846042,137.1,-153.3,-17.7,,,,,,
1807865,0.15611531,8.475088,-2.7251394,-0.92988396,-1.41007,-0.365856,146.70001,-155.70001,-19.5,,,,,,
1807885,0.4827014,8.891396,-2.7000175,-1.707328,-0.259148,0.67073596,139.5,-153.3,-15.900001,,,,,,
1807947,0.29189378,8.94762,-2.8609178,0.060976,0.602138,-0.57164997,149.1,-155.70001,-14.1,,,,,,
1808082,-0.660948,8.692214,-3.2329628,-0.49543,0.365856,-0.26677,137.1,-153.3,-13.500001,,,,,,
1808117,-0.2548089,8.984107,-3.1498208,0.045732,0.03811,-0.33536798,125.100006,-158.1,-22.5,,,,,,
1808139,-0.22191104,8.972144,-3.0266035,0.137196,0.0,-0.49543,134.70001,-146.1,-14.1,,,,,,
1808179,-0.38520408,8.745448,-3.2688513,0.099086,0.198172,-0.625004,139.5,-146.1,-8.700001,,,,,,
1808199,-0.58079684,8.647951,-3.2688513,0.160062,-0.03811,-0.487808,146.70001,-143.70001,-10.5,,,,,,
1808241,-0.6681257,8.927882,-3.4249666,0.160062,-0.289636,-0.41921,137.1,-155.70001,-11.700001,,,,,,
1808261,-0.66274244,8.765785,-3.3729281,-0.03811,-0.160062,-0.510674,146.70001,-148.5,-15.3,,,,,,
1808281,-0.88704604,8.705971,-3.4447055,-0.19055,-0.045732,-0.30488,132.3,-146.1,-16.5,,,,,,
1808304,-0.9103736,8.71255,-3.6247463,-0.106708,0.03811,0.03811,141.90001,-141.3,-17.1,,,,,,
1808325,-0.96241206,8.832179,-3.4536774,0.15244,-0.30488,0.221038,139.5,-143.70001,-9.3,,,,,,
1808345,-1.0557224,8.884816,-3.3759189,0.160062,-0.28201398,0.243904,146.70001,-148.5,-17.1,,,x,,,
1808365,-1.1956878,8.810048,-3.2790198,0.160062,-0.11432999,0.297258,144.3,-158.1,-13.500001,,,x,,,
1808385,-1.531246,8.83517,-3.1462321,0.03811,0.129574,0.17530599,146.70001,-153.3,-23.7,,,x,,,
1808427,-1.8769727,9.261047,-2.727532,-0.015244,0.64787,-0.259148,132.3,-155.70001,-17.7,,,x,,,
1808451,-2.7371023,8.5468645,-3.0965862,-0.769822,1.204276,-1.821658,141.90001,-138.90001,-20.7,,,x,,,
1808515,-2.8776658,8.225064,-2.8980026,-0.396344,-0.853664,-2.301844,139.5,-136.5,-17.7,,,x,,,
1808599,-4.120607,8.607277,-4.400538,-2.012208,-2.55337,-2.454284,141.90001,-143.70001,-18.900002,,,x,,,
1808620,-4.700207,7.510283,-3.9351826,-2.2637339,-1.8597679,-2.09605,144.3,-138.90001,-13.500001,,,x,,,
1808660,-3.815554,8.740065,-4.5452886,-0.846042,-0.80793196,-0.35061198,153.90001,-146.1,-13.500001,,,x,,,
1808717,-3.1450357,8.658718,-4.2516003,-0.525918,0.106708,-0.007622,149.1,-141.3,-18.300001,,,x,,,
1808737,-2.556463,8.482265,-3.8957052,-0.525918,0.67835796,0.28201398,149.1,-134.1,-15.3,,,x,,,
1808777,-2.1903996,8.116202,-3.501529,-0.785066,2.073184,-0.739334,151.5,-148.5,-19.5,,,x,,,
1808797,-2.1575017,7.451665,-3.4399202,-0.548784,2.004586,-0.83842,158.70001,-138.90001,-11.1,,,x,,,
1808817,-1.9864328,7.3655324,-3.363358,-0.320124,1.4024479,-0.480186,170.70001,-138.90001,-27.300001,,,x,,,
1808837,-0.32538977,8.4816675,-2.2663636,-0.396344,-0.716468,0.754578,149.1,-146.1,-11.700001,,,x,,,
1808901,2.4571714,9.296338,-2.3225892,-0.640248,1.94361,5.289668,129.90001,-155.70001,-23.1,,,x,,,
1808963,3.5200713,9.36333,-2.5373225,-2.050318,3.079288,4.824726,129.90001,-143.70001,-21.300001,,,x,,,
1808983,4.2599745,10.009324,-2.3195984,-1.29574,0.480186,4.9009457,137.1,-153.3,-12.3,,,x,,,
1809023,3.6600368,10.392735,-2.4733212,-0.259148,-0.53354,4.085392,117.9,-165.3,-15.3,,,x,,,
1809066,3.242533,11.150581,-2.7783742,1.432936,-2.675322,4.5884438,113.100006,-155.70001,-20.7,,,x,,,
1809086,3.4369295,9.666589,-2.1365666,0.548784,-1.577754,3.071666,122.700005,-150.90001,-17.1,,,x,,,
1809108,3.3579745,11.071627,-2.8411791,0.70122397,1.455802,3.117398,103.50001,-148.5,-21.300001,,,x,,,
1809138,3.1558022,10.862276,-3.8969014,0.060976,1.455802,0.426832,101.100006,-160.5,-18.300001,,,x,,,
1809158,3.2443275,10.33292,-2.936882,-0.716468,0.67073596,0.632626,103.50001,-162.90001,-17.7,,,x,,,
1809200,3.5116973,11.583637,-3.5033233,-1.044214,2.36282,-0.40396598,101.100006,-174.90001,-13.500001,,,x,,,
1809220,3.627737,11.366511,-3.6827662,-0.503052,1.227142,-1.6387299,93.9,-167.70001,-15.3,,,x,,,
1809240,4.330555,11.5704775,-2.950041,-0.121952,-0.95274997,-1.196654,103.50001,-158.1,-18.300001,,,x,,,
1809264,4.443604,10.337705,-2.421881,-1.44818,0.33536798,-0.82317597,101.100006,-162.90001,-12.900001,,,x,,,
1809285,4.096681,11.38625,-3.3412266,-0.746956,1.158544,-1.425314,98.700005,-170.1,-20.1,,,x,,,
1809305,4.045241,10.579953,-3.4500887,0.35061198,-0.053354,-2.599102,110.700005,-148.5,-11.700001,,,x,,,
1809327,3.7850487,9.236524,-2.933293,0.40396598,-1.775926,-2.2561119,127.50001,-167.70001,-17.7,,,x,,,
1809347,3.672598,8.44219,-2.735906,-0.045732,-1.432936,-0.632626,122.700005,-158.1,-10.5,,,x,,,
1809368,3.5565581,9.342395,-2.9548264,-0.03811,-1.554888,0.426832,105.9,-158.1,-23.1,,,x,,,
1809388,3.145634,8.604885,-2.698821,-0.083841994,-1.951232,-0.289636,115.50001,-162.90001,-17.1,,,x,,,
1809408,2.5983331,7.518059,-2.2849061,-0.640248,-2.576236,-0.731712,120.3,-167.70001,-23.1,,,x,,,
1809430,2.347711,6.1889853,-1.4887779,-1.265252,-2.7591639,-0.67835796,110.700005,-167.70001,-18.300001,,,x,,,
1809492,-1.1203218,6.2332478,-2.104267,-2.2027578,2.179892,-1.8978779,115.50001,-158.1,-21.900002,,,x,,,
1809512,-1.9224315,6.2021446,-2.0767524,-1.211898,0.45731997,-2.446662,113.100006,-155.70001,-17.1,,,x,,,
1809532,-2.9255173,6.998273,-1.9619089,-0.82317597,-0.068598,-1.21952,117.9,-160.5,-19.5,,,x,,,
1809554,-3.442911,9.29574,-2.141352,-1.814036,-0.3811,-0.541162,122.700005,-179.70001,-14.1,,,x,,,
1809575,-3.5188751,8.475088,-2.3447204,-1.33385,0.20579399,-1.920744,120.3,-155.70001,-23.7,,,x,,,
1809595,-3.89092,8.684438,-2.5325372,-0.967994,0.35061198,-1.463424,129.90001,-158.1,-15.3,,,x,,,
1809615,-3.824526,9.287366,-2.9775558,-0.49543,0.41158798,-1.1280559,134.70001,-155.70001,-20.1,,,x,,,
1809635,-3.4710236,9.692906,-2.9219284,-0.030488,-0.34298998,-1.21952,120.3,-155.70001,-18.900002,,,x,,,
1809655,-3.4907625,9.185083,-3.0014815,0.33536798,-0.045732,-1.8750119,132.3,-165.3,-24.300001,,,x,,,
1809715,-3.4656403,9.592419,-3.7431786,3.46801,-2.7972739,-2.317088,129.90001,-150.90001,-15.900001,,,x,,,
1809856,-1.1759491,8.491238,-3.1946816,-0.548784,-0.746956,-0.251526,151.5,-153.3,-15.900001,,,x,,,
1809896,-1.1179292,8.627016,-3.1773355,-0.525918,-0.327746,0.030488,146.70001,-158.1,-21.900002,,,x,,,
1809917,-0.88226086,8.714345,-3.116923,-0.358234,-0.35061198,0.015244,137.1,-155.70001,-18.300001,,,x,,,
1809937,-0.5203844,9.024781,-2.9291062,-0.3811,-0.053354,-0.160062,137.1,-155.70001,-13.500001,,,x,,,
1809979,-0.40374652,8.810646,-2.857329,0.068598,1.166166,-0.480186,137.1,-143.70001,-11.1,,,,,,
1810021,-0.79852086,8.970948,-3.275431,-0.20579399,1.98172,-1.1432999,132.3,-165.3,-20.1,,,,,,
1810100,-0.7835673,9.22157,-2.957219,-0.3811,1.6006199,-0.19055,134.70001,-138.90001,-18.300001,,,,,,
1810140,-0.7877543,9.063063,-2.948845,-0.26677,0.868908,-0.060976,137.1,-153.3,-18.900002,,,,,,
1810237,-0.62565756,8.774757,-2.820244,-0.198172,0.083841994,-0.30488,141.90001,-155.70001,-18.300001,,,,,,
1810295,-0.29727706,9.23114,-2.9673872,-0.426832,0.320124,0.640248,134.70001,-153.3,-18.900002,,,,,,
1810335,-0.22430362,9.058875,-2.9147508,-0.312502,0.015244,0.045732,146.70001,-150.90001,-16.5,,,,,,
1810399,-0.2829216,9.008033,-3.100773,-0.327746,0.23628199,-0.259148,134.70001,-150.90001,-15.3,,,,,,
1810820,-0.34871736,9.092371,-2.9554243,-0.487808,-0.251526,-0.144818,132.3,-153.3,-21.900002,,,x,,,
1810840,-0.3798208,9.126466,-3.0086591,-0.487808,-0.17530599,-0.40396598,134.70001,-150.90001,-11.1,,,x,,,
1810880,-0.6041244,8.892591,-3.0606976,-0.198172,-0.083841994,-0.56402797,127.50001,-148.5,-18.300001,,,x,,,
1810904,-0.59694666,8.869863,-2.9482467,0.0,-0.221038,-0.28201398,144.3,-146.1,-9.900001,,,x,,,
1810964,-1.45588,8.821412,-3.1988685,-0.20579399,0.198172,0.22865999,144.3,-146.1,-21.300001,,,x,,,
1811118,-6.98631,9.140223,-5.3001447,-2.7210538,1.8369019,2.850628,125.100006,-155.70001,-19.5,,,x,,,
1811138,-6.170443,8.191568,-5.0004754,-2.7896519,0.769822,3.559474,125.100006,-153.3,-20.1,,,x,,,
1811178,-3.6797755,5.9467373,-2.9362838,-3.2927039,-1.94361,4.336918,120.3,-153.3,-17.1,,,x,,,
1811198,-2.1281927,6.1100307,-2.2286806,-2.926848,-1.6311079,5.175338,103.50001,-155.70001,-20.7,,,x,,,
1811218,-0.8463723,6.513777,-1.6843706,-2.89636,-1.669218,4.862836,120.3,-155.70001,-23.7,,,x,,,
1811238,0.8756813,5.864194,-0.90558845,-2.7058098,-2.469528,4.794238,108.3,-158.1,-20.7,,,x,,,
1811258,2.3943663,5.4771953,0.18422803,-2.545748,-2.431418,6.25004,101.100006,-153.3,-27.300001,,,x,,,
1811302,5.3785014,9.039735,-0.62805015,-3.3003259,1.478668,8.948228,86.700005,-162.90001,-21.300001,,,x,,,
1811322,5.3665385,8.66111,-0.71179014,-2.446662,1.082324,7.9345016,60.300003,-179.70001,-19.5,,,x,,,
1811342,5.812753,9.454247,-0.9271216,-1.821658,1.33385,8.0945635,69.9,-172.5,-23.1,,,x,,,
1811362,5.889914,9.859789,-1.2949796,-1.6006199,1.272874,6.4482117,60.300003,-182.1,-25.500002,,,x,,,
1811382,6.0382533,9.910032,-1.4971519,-0.289636,0.449698,5.79272,65.100006,-174.90001,-27.900002,,,x,,,
1811402,5.864194,9.597204,-1.2740445,-0.251526,-0.083841994,5.3658876,45.9,-170.1,-15.900001,,,x,,,
1811422,5.7260227,9.581653,-1.8010085,-0.198172,0.632626,4.9009457,57.9,-179.70001,-24.300001,,,x,,,
1811442,5.45626,9.036744,-1.8177565,0.426832,-0.007622,2.843006,33.9,-179.70001,-24.900002,,,x,,,
1811462,5.992196,9.456042,-1.631734,1.303362,-0.26677,2.7744079,38.7,-170.1,-20.1,,,x,,,
1811482,5.949728,9.889696,-1.9176464,0.121952,0.68597996,2.7286758,36.300003,-177.3,-30.300001,,,x,,,
1811502,5.626731,9.514062,-2.159296,-0.525918,1.006104,2.05794,33.9,-167.70001,-23.1,,,x,,,
1811522,5.066271,9.4052,-2.0384712,0.289636,0.792688,1.021348,24.300001,-177.3,-20.1,,,x,,,
1811544,5.7553315,9.441687,-2.443414,0.22865999,1.051836,1.509156,36.300003,-174.90001,-21.300001,,,x,,,
1811606,5.819931,10.2097025,-2.0336862,-0.60976,-0.55640596,0.53354,5.1000004,-167.70001,-23.1,,,x,,,
1811628,6.6704903,10.161253,-1.485189,-0.846042,-1.166166,0.083841994,26.7,-165.3,-22.5,,,x,,,
1811649,7.107135,9.926183,-0.5455064,-1.989342,-1.3643379,0.33536798,26.7,-167.70001,-23.7,,,x,,,
1811669,7.296148,9.810741,-0.45279422,-1.539644,0.373478,-0.22865999,29.1,-172.5,-19.5,,,x,,,
1811692,7.177716,10.1881695,-0.96121573,0.11432999,0.67835796,-2.195136,21.900002,-172.5,-20.1,,,x,,,
1811712,7.262054,9.80117,-0.6794904,-0.07622,-0.022866,-2.339954,21.900002,-179.70001,-27.900002,,,x,,,
1811734,7.354168,9.49851,-0.36307278,0.022866,0.251526,-2.827762,29.1,-179.70001,-24.900002,,,x,,,
1811774,5.3539777,8.342898,-1.2070525,2.17227,0.289636,-5.5488157,45.9,-182.1,-21.300001,,,x,,,
1811837,3.7437768,8.123978,-1.3924768,1.996964,-1.440558,-4.756128,53.100002,-160.5,-22.5,,,x,,,
1811858,3.3914707,7.5587325,-1.6054157,2.004586,-0.907018,-5.419242,57.9,-174.90001,-24.300001,,,x,,,
1811878,2.9530318,7.564714,-1.7878493,2.339954,-0.53354,-5.205826,45.9,-172.5,-24.300001,,,x,,,
1811898,2.4948545,7.236932,-1.8709912,2.2637339,-0.160062,-4.9314337,69.9,-172.5,-20.1,,,x,,,
1811958,0.8254373,8.00734,-2.6754935,1.9131219,0.663114,-4.672286,89.100006,-170.1,-16.5,,,x,,,
1811979,0.4743274,7.6544356,-2.8537402,1.6158639,0.70122397,-5.4573517,77.100006,-172.5,-17.7,,,x,,,
1812019,-1.0611056,7.6711836,-3.133671,1.737816,0.92988396,-5.899428,103.50001,-165.3,-20.7,,,x,,,
1812039,-1.8674023,8.018106,-3.761123,1.501534,1.288118,-6.150954,101.100006,-165.3,-16.5,,,x,,,
1812059,-2.1927922,8.080912,-3.7814598,1.204276,0.121952,-6.166198,105.9,-158.1,-18.300001,,,x,,,
1812082,-2.9135544,8.040237,-3.7072902,1.006104,0.28201398,-5.5030837,113.100006,-165.3,-18.900002,,,x,,,
1812142,-3.7461693,8.769374,-3.9746602,0.426832,-0.434454,-3.6890478,117.9,-158.1,-15.3,,,x,,,
1812203,-3.8000023,8.9464245,-4.1481214,0.053354,-0.861286,-2.500016,117.9,-158.1,-20.1,,,x,,,
1812263,-2.9817426,9.283179,-3.9644916,0.182928,-1.196654,-1.75306,129.90001,-150.90001,-11.1,,,x,,,
1812283,-2.6575491,9.004444,-3.706692,0.11432999,-1.318606,-1.41007,149.1,-150.90001,-15.3,,,x,,,
1812323,-1.9750681,9.233533,-3.5667264,0.11432999,-0.632626,-0.16768399,139.5,-158.1,-17.1,,,x,,,
1812343,-1.6999223,9.114503,-3.4285555,-0.144818,-0.388722,0.0,137.1,-165.3,-15.900001,,,x,,,
1812386,-0.9839452,8.89618,-3.1869059,-0.320124,0.03811,0.3811,151.5,-153.3,-14.1,,,x,,,
1812406,-0.773997,9.027174,-3.1408486,-0.358234,0.243904,0.40396598,132.3,-150.90001,-9.900001,,,x,,,
1812447,-0.44501838,9.021193,-3.200663,-0.33536798,0.083841994,0.442076,139.5,-155.70001,-15.900001,,,x,,,
1812487,-0.40374652,9.001453,-3.250309,-0.213416,0.045732,0.396344,129.90001,-143.70001,-10.5,,,x,,,
1812529,-0.29309005,8.881825,-3.2449257,-0.541162,0.083841994,-0.160062,132.3,-155.70001,-15.900001,,,,,,
1812558,-0.31522134,8.782534,-3.255094,-0.297258,-0.144818,0.0,129.90001,-134.1,-12.3,,,,,,
1812578,-0.2697625,8.97693,-3.117521,-0.23628199,-0.289636,0.091464,141.90001,-131.70001,-11.1,,,,,,
1812618,-0.28710863,8.991285,-3.2120278,-0.41921,-0.045732,-0.20579399,146.70001,-143.70001,-11.1,,,,,,
1812661,-0.27873462,8.858498,-3.1013713,-0.449698,-0.068598,-0.221038,134.70001,-129.3,-9.900001,,,,,,
1812740,-0.29847333,8.930873,-3.2664587,-0.312502,0.144818,-0.19055,132.3,-150.90001,-26.1,,,,,,
1812760,-0.25301448,8.923695,-3.2532997,-0.34298998,0.182928,-0.099086,139.5,-136.5,-14.1,,,,,,
1812803,-0.33077306,8.958985,-3.2574866,-0.33536798,0.23628199,0.0,139.5,-153.3,-18.300001,,,,,,
1812823,-0.21951847,8.927284,-3.1229045,-0.487808,0.297258,-0.053354,144.3,-141.3,-17.1,,,,,,
1812843,-0.24224791,8.647353,-3.0577068,-0.739334,0.41158798,-0.099086,122.700005,-155.70001,-13.500001,,,,,,
1812863,-0.29548264,9.143811,-3.0744548,-0.297258,0.449698,0.160062,134.70001,-150.90001,-14.1,,,,,,
1812883,-0.38221335,8.973341,-3.1360636,-0.510674,0.60976,-0.182928,132.3,-155.70001,-12.900001,,,,,,
1812903,-0.57840425,8.884217,-3.175541,-0.320124,0.49543,-0.182928,137.1,-146.1,-8.700001,,,,,,
1812923,-0.52277696,8.899769,-2.9919112,-0.198172,0.23628199,-0.022866,144.3,-148.5,-16.5,,,,,,
1812963,-0.57122654,8.97035,-3.0846233,-0.373478,0.320124,0.068598,132.3,-153.3,-11.700001,,,,,,
1813026,-0.45638308,8.890797,-3.0654826,-0.33536798,-0.045732,0.426832,132.3,-160.5,-16.5,,,,,,
1813179,-0.2757439,9.1838875,-3.1318767,-0.289636,0.17530599,0.144818,132.3,-158.1,-14.700001,,,,,,
1813214,-0.16807817,9.138429,-3.0720623,-0.46494198,-0.07622,0.007622,127.50001,-160.5,-12.3,,,,,,
1813237,-0.14833945,8.923695,-2.9984908,-0.754578,0.068598,-0.03811,127.50001,-158.1,-15.900001,,,,,,
1813278,-0.2619866,8.823805,-3.0804362,-0.388722,-0.274392,0.548784,134.70001,-150.90001,-23.1,,,,,,
1813338,-0.21592961,9.26344,-3.1725502,-0.19055,-0.060976,-0.41921,137.1,-141.3,-14.700001,,,,,,
1813382,-0.23925719,8.883021,-3.0738568,-0.137196,0.297258,-0.510674,137.1,-150.90001,-22.5,,,,,,
1813402,-0.32120278,9.19585,-3.2736366,-0.160062,0.510674,-0.17530599,139.5,-150.90001,-17.7,,,,,,
1813442,-0.32538977,8.826796,-3.1510172,-0.259148,0.297258,-0.160062,151.5,-155.70001,-12.900001,,,,,,
1813541,-0.43664438,8.839955,-3.1875038,-0.007622,0.129574,-0.053354,141.90001,-158.1,-18.900002,,,x,,,
