time,sensor_accX[g],sensor_accY[g],sensor_accZ[g],sensor_gyroX[°/s],sensor_gyroY[°/s],sensor_gyroZ[°/s],sensor_magX[µT],sensor_magY[µT],sensor_magZ[µT]
1759998,-2.869889974594116,8.312393188476562,-3.6941308975219727,-0.3201240003108978,0.2972579896450043,-0.36585599184036255,221.10000610351562,-102.9000015258789,-10.5
1760022,-2.954228162765503,8.257363319396973,-3.7102808952331543,-0.4344539940357208,0.510673999786377,-0.3125019967556,225.90000915527344,-114.9000015258789,-12.90000057220459
1760042,-3.0026776790618896,8.250783920288086,-3.7605247497558594,-0.426831990480423,0.457319974899292,-0.19817200303077698,223.50001525878906,-114.9000015258789,-10.5
1760062,-2.9859297275543213,8.34768295288086,-3.746767520904541,-0.35061198472976685,0.2439039945602417,-0.1448179930448532,230.70001220703125,-102.9000015258789,-13.500000953674316
1760082,-2.921330213546753,8.216092109680176,-3.7001123428344727,-0.41158798336982727,0.04573199898004532,-0.18292799592018127,223.50001525878906,-105.30000305175781,-10.5
1760126,-2.8268237113952637,8.37280559539795,-3.6672146320343018,-0.23628199100494385,-0.02286599949002266,-0.10670799762010574,221.10000610351562,-105.30000305175781,-15.300000190734863
1760146,-2.854936361312866,8.324356079101562,-3.666616439819336,-0.2743920087814331,0.1448179930448532,-0.228659987449646,233.10000610351562,-107.70000457763672,-6.300000190734863
1760166,-2.9009933471679688,8.345291137695312,-3.6803736686706543,-0.19817200303077698,0.2591480016708374,-0.19054999947547913,225.90000915527344,-112.50000762939453,-8.100000381469727
1760186,-2.9099655151367188,8.343496322631836,-3.68396258354187,-0.28201398253440857,0.38109999895095825,-0.26677000522613525,228.3000030517578,-105.30000305175781,-11.100000381469727
1760210,-2.9978926181793213,8.33093547821045,-3.7694969177246094,-0.2591480016708374,0.41158798336982727,-0.2439039945602417,228.3000030517578,-114.9000015258789,-15.300000190734863
1760230,-2.9937055110931396,8.3578519821167,-3.779067277908325,-0.18292799592018127,0.2743920087814331,-0.13719600439071655,237.90000915527344,-100.50000762939453,-14.700000762939453
1760250,-3.013444185256958,8.26513957977295,-3.785048723220825,-0.26677000522613525,0.25152599811553955,-0.1448179930448532,228.3000030517578,-107.70000457763672,-8.100000381469727
1760270,-2.980546474456787,8.3518705368042,-3.765310049057007,-0.1600620001554489,0.12195199728012085,0.038109999150037766,211.50001525878906,-107.70000457763672,-11.100000381469727
1760294,-2.9608078002929688,8.31299114227295,-3.7300195693969727,-0.2591480016708374,0.060975998640060425,0.060975998640060425,216.3000030517578,-114.9000015258789,-11.700000762939453
1760314,-2.9560225009918213,8.34469223022461,-3.7252345085144043,-0.3048799932003021,0.038109999150037766,0.13719600439071655,228.3000030517578,-102.9000015258789,-8.700000762939453
1760334,-2.9500410556793213,8.339309692382812,-3.71386981010437,-0.33536797761917114,0.015243999660015106,-0.02286599949002266,223.50001525878906,-105.30000305175781,-14.100000381469727
1760357,-2.906376600265503,8.287869453430176,-3.6767847537994385,-0.25152599811553955,-0.07621999830007553,0,228.3000030517578,-105.30000305175781,-11.700000762939453
1760377,-2.828618049621582,8.466115951538086,-3.6803736686706543,-0.1600620001554489,-0.09146399796009064,0.06859800219535828,223.50001525878906,-114.9000015258789,-4.5
1760397,-2.9673871994018555,8.186782836914062,-3.7898337841033936,-0.2896359860897064,0.13719600439071655,-0.06859800219535828,218.70001220703125,-107.70000457763672,-15.90000057220459
1760417,-2.9398727416992188,8.251381874084473,-3.6379055976867676,-0.3734779953956604,0.030487999320030212,0.15243999660015106,218.70001220703125,-110.10000610351562,-3.9000000953674316
1760437,-2.969181776046753,8.31897258758545,-3.8382835388183594,-0.3201240003108978,0.18292799592018127,0.2591480016708374,225.90000915527344,-107.70000457763672,-9.300000190734863
1760457,-2.858525276184082,8.446974754333496,-3.7994041442871094,0.007621999830007553,-0.060975998640060425,0.25152599811553955,223.50001525878906,-119.70000457763672,-13.500000953674316
1760477,-2.887834310531616,8.432021141052246,-3.717458486557007,0.015243999660015106,0.007621999830007553,-0.007621999830007553,223.50001525878906,-105.30000305175781,-12.300000190734863
1760497,-2.8860397338867188,8.399123191833496,-3.7694969177246094,-0.17530599236488342,0.17530599236488342,-0.10670799762010574,223.50001525878906,-105.30000305175781,-12.90000057220459
1760517,-2.865104913711548,8.399123191833496,-3.7784690856933594,-0.1448179930448532,0.114329993724823,-0.08384199440479279,233.10000610351562,-112.50000762939453,-14.100000381469727
1760539,-2.845964193344116,8.299233436584473,-3.6803736686706543,-0.457319974899292,0.2439039945602417,0.05335399881005287,235.50001525878906,-107.70000457763672,-15.300000190734863
1760559,-2.873478889465332,8.314187049865723,-3.6534571647644043,-0.457319974899292,0.228659987449646,0.13719600439071655,218.70001220703125,-112.50000762939453,-9.90000057220459
1760579,-2.9165451526641846,8.31897258758545,-3.690542221069336,-0.3582339882850647,0.1295740008354187,0.09146399796009064,235.50001525878906,-117.30000305175781,-9.300000190734863
1760599,-2.954228162765503,8.350075721740723,-3.66302752494812,-0.228659987449646,-0.05335399881005287,0.13719600439071655,221.10000610351562,-114.9000015258789,-15.90000057220459
1760659,-3.1252970695495605,8.37160873413086,-3.722841739654541,-0.030487999320030212,-0.22103799879550934,0.26677000522613525,225.90000915527344,-114.9000015258789,-11.700000762939453
1760679,-3.168363332748413,8.421853065490723,-3.797011613845825,0.02286599949002266,-0.3048799932003021,0.35061198472976685,223.50001525878906,-102.9000015258789,-13.500000953674316
1760702,-3.299356698989868,8.468507766723633,-3.752150774002075,0,-0.5030519962310791,0.4344539940357208,213.90000915527344,-107.70000457763672,-8.100000381469727
1760722,-3.41599440574646,8.146109580993652,-3.797609806060791,-0.015243999660015106,-0.4725639820098877,0.3734779953956604,223.50001525878906,-110.10000610351562,-17.700000762939453
1760742,-3.055314302444458,8.46731185913086,-3.6355130672454834,0.3887220025062561,-1.1051899194717407,1.2042759656906128,230.70001220703125,-114.9000015258789,-15.90000057220459
1760762,-3.1964759826660156,8.472695350646973,-3.5697171688079834,0.038109999150037766,-0.5945159792900085,1.1128119230270386,209.10000610351562,-114.9000015258789,-15.90000057220459
1760782,-3.2772252559661865,8.62163257598877,-3.7210474014282227,0.06859800219535828,-0.4725639820098877,1.3490939140319824,213.90000915527344,-105.30000305175781,-11.100000381469727
1760802,-3.2347571849823,8.472097396850586,-3.523660182952881,-0.060975998640060425,-0.571649968624115,1.1585439443588257,213.90000915527344,-114.9000015258789,-17.700000762939453
1760842,-3.22578501701355,8.2621488571167,-3.7599267959594727,0.2896359860897064,-0.13719600439071655,1.6082419157028198,211.50001525878906,-117.30000305175781,-10.5
1760906,-3.1486246585845947,8.643165588378906,-4.047035217285156,0.39634400606155396,0.19054999947547913,1.806414008140564,211.50001525878906,-107.70000457763672,-12.300000190734863
1760926,-3.3107213973999023,8.57198715209961,-4.38498592376709,0.2972579896450043,0.26677000522613525,1.699705958366394,204.3000030517578,-129.3000030517578,-4.5
1760946,-3.6414945125579834,8.167642593383789,-4.378406524658203,0.33536797761917114,0,1.7606819868087769,209.10000610351562,-124.50000762939453,-18.30000114440918
1760966,-3.3304600715637207,8.452956199645996,-4.449585437774658,0.7240899801254272,0.02286599949002266,2.5076379776000977,206.70001220703125,-114.9000015258789,-14.100000381469727
1760986,-3.0086591243743896,8.95539665222168,-4.444202423095703,0.510673999786377,0.18292799592018127,2.896359920501709,209.10000610351562,-117.30000305175781,-8.100000381469727
1761006,-2.8034961223602295,8.87165641784668,-4.398743629455566,0.09908600151538849,0.6021379828453064,2.6067240238189697,204.3000030517578,-131.70001220703125,-11.100000381469727
1761046,-2.972172498703003,8.94642448425293,-4.427454471588135,-0.39634400606155396,1.371959924697876,3.0792880058288574,206.70001220703125,-129.3000030517578,-4.5
1761074,-3.3974521160125732,8.670680046081543,-5.034569263458252,-0.9527499675750732,1.7149499654769897,2.2637338638305664,194.70001220703125,-134.10000610351562,-9.300000190734863
1761134,-2.8274219036102295,8.99906063079834,-5.056700706481934,-1.577754020690918,0.8307979702949524,3.201239824295044,189.90000915527344,-126.9000015258789,-17.100000381469727
1761154,-2.528350353240967,9.00324821472168,-5.084813594818115,-1.646351933479309,-0.09908600151538849,3.3384358882904053,180.3000030517578,-131.70001220703125,-15.90000057220459
1761177,-2.6031181812286377,8.574379920959473,-4.690637111663818,-2.027451992034912,-0.2896359860897064,3.3384358882904053,177.90000915527344,-138.90000915527344,-15.90000057220459
1761197,-2.3327574729919434,9.018799781799316,-4.684057712554932,-2.073184013366699,0.19054999947547913,4.268320083618164,165.90000915527344,-150.90000915527344,-11.100000381469727
1761259,-2.256195306777954,8.87883472442627,-4.4430060386657715,-3.1783738136291504,1.371959924697876,3.6738038063049316,168.3000030517578,-150.90000915527344,-9.300000190734863
1761281,-2.121613025665283,8.464919090270996,-4.115821838378906,-3.0259339809417725,0.9298839569091797,3.803377866744995,161.10000610351562,-153.3000030517578,-12.90000057220459
1761301,-1.9637033939361572,8.50918197631836,-3.8382835388183594,-2.7591638565063477,1.1204339265823364,4.352161884307861,163.5,-143.70001220703125,-12.90000057220459
1761321,-1.609602689743042,9.093567848205566,-3.71386981010437,-2.5686140060424805,1.0518360137939453,4.771371841430664,158.70001220703125,-155.70001220703125,-10.5
1761341,-1.9008983373641968,9.134241104125977,-3.7300195693969727,-2.7058098316192627,1.5853760242462158,4.436003684997559,161.10000610351562,-155.70001220703125,-12.300000190734863
1761364,-2.101276159286499,8.78193473815918,-3.573904275894165,-2.3628199100494385,1.189031958580017,4.405515670776367,146.70001220703125,-153.3000030517578,-14.100000381469727
1761387,-2.0103585720062256,8.82081413269043,-3.47580885887146,-2.378063917160034,1.2881180047988892,4.756127834320068,149.10000610351562,-160.5,-17.100000381469727
1761407,-1.9104686975479126,8.56002426147461,-3.5122954845428467,-2.5000159740448,1.0061039924621582,4.809482097625732,129.90000915527344,-158.10000610351562,-12.90000057220459
1761427,-1.718464732170105,8.078518867492676,-3.3167028427124023,-2.2027578353881836,0.09146399796009064,4.9466776847839355,122.70000457763672,-158.10000610351562,-22.5
1761450,-1.1508270502090454,8.16345500946045,-3.087614059448242,-1.875011920928955,-0.9375059604644775,5.365887641906738,120.30000305175781,-165.3000030517578,-14.700000762939453
1761491,-0.4240833520889282,8.179605484008789,-2.8657028675079346,-1.753059983253479,-2.1570260524749756,5.815586090087891,105.9000015258789,-170.10000610351562,-24.30000114440918
1761553,0.7859598398208618,8.463125228881836,-2.6067070960998535,-2.278977870941162,-5.434485912322998,6.692115783691406,96.30000305175781,-177.3000030517578,-23.700000762939453
1761573,1.0246188640594482,9.062463760375977,-2.628838300704956,-2.2027578353881836,-6.417723655700684,6.402479648590088,101.10000610351562,-172.5,-28.500001907348633
1761595,1.0551241636276245,9.351964950561523,-2.567229747772217,-2.431417942047119,-7.027483940124512,5.472595691680908,81.9000015258789,-184.5,-19.5
1761615,1.0317965745925903,9.255663871765137,-2.360870361328125,-2.888737916946411,-7.39333963394165,4.664663791656494,81.9000015258789,-191.70001220703125,-21.900001525878906
1761635,1.2572965621948242,9.423144340515137,-2.0133492946624756,-2.987823963165283,-7.469559669494629,4.237832069396973,74.70000457763672,-174.90000915527344,-29.700000762939453
1761675,1.5192831754684448,9.497912406921387,-1.2507169246673584,-3.1783738136291504,-5.983269691467285,2.8582499027252197,74.70000457763672,-194.10000610351562,-25.500001907348633
1761695,1.2285857200622559,8.549257278442383,-0.9695897698402405,-2.9268479347229004,-4.67990779876709,2.5152599811553955,69.9000015258789,-182.10000610351562,-27.30000114440918
1761715,1.3631678819656372,8.557631492614746,-0.6944440007209778,-2.134160041809082,-3.452765941619873,3.041177988052368,67.5,-184.5,-24.30000114440918
1761739,1.515694260597229,8.488844871520996,-0.709397554397583,-1.7835479974746704,-1.829279899597168,3.0106899738311768,55.500003814697266,-177.3000030517578,-24.30000114440918
1761802,1.9744699001312256,8.019302368164062,-0.6663312911987305,0.2743920087814331,0.17530599236488342,1.8216580152511597,55.500003814697266,-174.90000915527344,-26.100000381469727
1761822,2.2520081996917725,8.499611854553223,-0.7261455655097961,0.9298839569091797,0.8384199738502502,2.332331895828247,45.900001525878906,-191.70001220703125,-25.500001907348633
1761842,2.2436342239379883,8.72331714630127,-0.6806867122650146,0.8765299916267395,1.3948259353637695,1.8673899173736572,53.10000228881836,-177.3000030517578,-30.900001525878906
1761862,2.1718571186065674,8.857300758361816,-0.7578471302986145,0.8307979702949524,1.8216580152511597,1.242385983467102,53.10000228881836,-174.90000915527344,-19.5
1761882,1.9774606227874756,8.735877990722656,-0.7668192982673645,0.6478700041770935,2.0503180027008057,0.2896359860897064,38.70000076293945,-177.3000030517578,-23.700000762939453
1761902,1.721455454826355,8.406899452209473,-0.8625221848487854,0.44969800114631653,2.28659987449646,-0.2591480016708374,45.900001525878906,-170.10000610351562,-33.900001525878906
1761922,1.7459793090820312,8.65871810913086,-0.8379983305931091,0.8384199738502502,2.042695999145508,-0.38109999895095825,41.10000228881836,-174.90000915527344,-26.100000381469727
1761942,2.044452667236328,9.37469482421875,-0.8254373073577881,0.5945159792900085,1.699705958366394,-0.6707359552383423,41.10000228881836,-184.5,-30.30000114440918
1761962,1.9050853252410889,8.834571838378906,-0.7261455655097961,-0.015243999660015106,1.9664759635925293,-1.7683039903640747,62.70000076293945,-182.10000610351562,-18.30000114440918
1761982,1.8386914730072021,8.222073554992676,-0.6926495432853699,-0.007621999830007553,1.882633924484253,-2.1722700595855713,60.30000305175781,-172.5,-18.30000114440918
1762002,1.939179539680481,8.046218872070312,-0.5359361171722412,0.38109999895095825,2.187514066696167,-1.6082419157028198,60.30000305175781,-177.3000030517578,-28.500001907348633
1762042,2.8040943145751953,9.99317455291748,-1.2626798152923584,-0.02286599949002266,3.041177988052368,-1.067080020904541,67.5,-179.70001220703125,-26.700000762939453
1762062,2.44102144241333,8.99307918548584,-1.2812222242355347,-0.8079319596290588,3.4680099487304688,-2.2180018424987793,45.900001525878906,-194.10000610351562,-23.700000762939453
1762082,2.891423225402832,9.736571311950684,-1.8380934000015259,0.12195199728012085,3.445143938064575,-1.2042759656906128,55.500003814697266,-184.5,-24.900001525878906
1762102,2.9643964767456055,9.971641540527344,-2.2615785598754883,-0.05335399881005287,3.414655923843384,-1.646351933479309,50.70000076293945,-186.90000915527344,-25.500001907348633
1762126,2.879460334777832,9.2760009765625,-2.3979551792144775,-0.2134159952402115,3.193617820739746,-2.03507399559021,53.10000228881836,-172.5,-22.5
1762166,2.390777349472046,9.721019744873047,-3.2126259803771973,0.2896359860897064,4.10825777053833,-1.2652519941329956,72.30000305175781,-174.90000915527344,-27.30000114440918
1762186,2.139557361602783,9.911827087402344,-3.7688989639282227,0.3048799932003021,4.496979713439941,-2.385685920715332,62.70000076293945,-186.90000915527344,-19.5
1762206,1.4546836614608765,9.013416290283203,-4.3772101402282715,0.7317119836807251,5.274424076080322,-3.910085916519165,74.70000457763672,-174.90000915527344,-27.30000114440918
1762227,1.5731160640716553,9.58882999420166,-5.103953838348389,2.431417942047119,4.832347869873047,-2.6295900344848633,41.10000228881836,-172.5,-20.700000762939453
1762247,2.41709566116333,11.337800025939941,-5.517868995666504,2.8201398849487305,3.49849796295166,-1.1737879514694214,60.30000305175781,-179.70001220703125,-21.30000114440918
1762267,2.581585168838501,11.321650505065918,-5.312705993652344,1.4939119815826416,1.524399995803833,-3.003067970275879,69.9000015258789,-167.70001220703125,-22.5
1762287,1.6221637725830078,9.237720489501953,-4.618860244750977,1.2500079870224,0.5335400104522705,-4.481735706329346,72.30000305175781,-165.3000030517578,-23.700000762939453
1762310,1.0904146432876587,7.796793460845947,-4.0255022048950195,0.5868939757347107,1.3033620119094849,-2.2713558673858643,79.5,-177.3000030517578,-22.5
1762330,1.4780112504959106,8.288467407226562,-3.64508318901062,-0.35061198472976685,1.8902559280395508,-0.4878079891204834,86.70000457763672,-182.10000610351562,-18.900001525878906
1762390,1.2608853578567505,7.28717565536499,-3.2742345333099365,-1.0442140102386475,2.8201398849487305,-0.853663980960846,89.10000610351562,-177.3000030517578,-14.100000381469727
1762410,1.3601771593093872,7.171135902404785,-3.093595504760742,-0.853663980960846,2.8048958778381348,-0.23628199100494385,77.10000610351562,-177.3000030517578,-14.700000762939453
1762450,1.4122155904769897,7.681352138519287,-3.615774154663086,-0.5411620140075684,3.041177988052368,0.4878079891204834,84.30000305175781,-179.70001220703125,-24.30000114440918
1762470,1.505525827407837,7.797989845275879,-3.7013087272644043,-0.3277460038661957,2.7134318351745605,0.7317119836807251,72.30000305175781,-172.5,-21.900001525878906
1762490,1.7059037685394287,8.510377883911133,-4.026698589324951,0.16768398880958557,2.339953899383545,1.3414719104766846,84.30000305175781,-172.5,-26.700000762939453
1762510,1.8279249668121338,8.73228931427002,-3.9447529315948486,0.114329993724823,1.4939119815826416,1.196653962135315,81.9000015258789,-177.3000030517578,-23.100000381469727
1762530,1.8847484588623047,9.054688453674316,-3.9220235347747803,0.007621999830007553,1.1280559301376343,1.2576299905776978,84.30000305175781,-182.10000610351562,-21.30000114440918
1762550,1.735212802886963,8.980518341064453,-3.952528715133667,-0.3277460038661957,0.8384199738502502,0.7088459730148315,69.9000015258789,-179.70001220703125,-20.700000762939453
1762572,1.5641438961029053,8.77894401550293,-3.8370871543884277,-0.36585599184036255,0.36585599184036255,0.36585599184036255,67.5,-172.5,-17.700000762939453
1762592,1.6030231714248657,8.60189437866211,-3.6618313789367676,-0.7621999979019165,0.13719600439071655,0.09146399796009064,69.9000015258789,-177.3000030517578,-18.30000114440918
1762615,1.6783891916275024,8.315383911132812,-3.5188751220703125,-1.0594580173492432,0.20579399168491364,0.114329993724823,69.9000015258789,-182.10000610351562,-24.30000114440918
1762635,1.7178666591644287,8.325551986694336,-3.44590163230896,-0.9908599853515625,0.3277460038661957,0.41158798336982727,57.900001525878906,-179.70001220703125,-17.700000762939453
1762656,1.9355906248092651,8.299233436584473,-3.033781051635742,-1.0975680351257324,0.33536797761917114,0.7088459730148315,74.70000457763672,-184.5,-23.700000762939453
1762676,2.0857245922088623,8.394338607788086,-2.912358045578003,-1.295740008354187,0.8993960022926331,0.9451279640197754,67.5,-170.10000610351562,-24.30000114440918
1762697,2.2645692825317383,8.3997220993042,-2.8483567237854004,-1.3338500261306763,1.1509219408035278,0.9756159782409668,57.900001525878906,-167.70001220703125,-20.700000762939453
1762717,2.345318555831909,8.45235824584961,-2.7616260051727295,-1.2652519941329956,1.196653962135315,1.0365920066833496,62.70000076293945,-182.10000610351562,-18.30000114440918
1762737,2.3357481956481934,8.499611854553223,-2.6282401084899902,-1.0823240280151367,1.067080020904541,0.7774440050125122,65.10000610351562,-179.70001220703125,-23.100000381469727
1762759,2.557061195373535,9.13065242767334,-2.816655158996582,-0.8231759667396545,1.0899460315704346,0.7621999979019165,57.900001525878906,-177.3000030517578,-20.700000762939453
1762819,2.0073678493499756,8.45833969116211,-2.6910452842712402,-0.7088459730148315,0.08384199440479279,-0.4878079891204834,72.30000305175781,-177.3000030517578,-18.30000114440918
1762839,1.8057936429977417,8.287869453430176,-2.501433849334717,-0.6097599864006042,-0.7469559907913208,-0.4344539940357208,67.5,-179.70001220703125,-24.900001525878906
1762863,1.7764846086502075,8.060574531555176,-2.2346620559692383,-0.7926880121231079,-1.1051899194717407,-0.22103799879550934,57.900001525878906,-170.10000610351562,-19.5
1762883,2.056415557861328,8.523537635803223,-2.182025671005249,-0.46494197845458984,-1.0594580173492432,0.7088459730148315,77.10000610351562,-167.70001220703125,-22.5
1762903,2.0396676063537598,8.893189430236816,-1.9619089365005493,-1.067080020904541,-1.2500079870224,0.9756159782409668,60.30000305175781,-165.3000030517578,-19.5
1762923,1.8751782178878784,8.851319313049316,-1.815363883972168,-1.3795819282531738,-0.967993974685669,1.1509219408035278,77.10000610351562,-172.5,-18.900001525878906
1762946,2.0701727867126465,10.22226333618164,-1.748371958732605,-0.7621999979019165,-1.2347639799118042,1.9207439422607422,67.5,-182.10000610351562,-30.30000114440918
1762966,2.724541187286377,12.015496253967285,-1.8410841226577759,-0.6936019659042358,-1.600619912147522,2.5686140060424805,50.70000076293945,-172.5,-25.500001907348633
1762986,2.3740293979644775,11.838445663452148,-0.7889505624771118,-1.3186060190200806,-2.339953899383545,0.3887220025062561,50.70000076293945,-179.70001220703125,-26.100000381469727
1763008,1.537825584411621,10.226449966430664,-0.43484994769096375,-2.088428020477295,-1.0823240280151367,-1.3186060190200806,55.500003814697266,-182.10000610351562,-24.900001525878906
1763028,1.2973721027374268,9.441686630249023,-0.9103736281394958,-1.981719970703125,-0.571649968624115,-1.2500079870224,65.10000610351562,-177.3000030517578,-32.70000076293945
1763048,1.546797752380371,9.08878231048584,-0.821250319480896,-0.9222619533538818,-1.0365920066833496,-0.16768398880958557,67.5,-165.3000030517578,-17.700000762939453
1763068,2.170062780380249,10.590719223022461,-1.2513151168823242,0.228659987449646,-1.021347999572754,1.6920839548110962,55.500003814697266,-162.90000915527344,-24.900001525878906
1763132,1.5617512464523315,9.26702880859375,-0.8021097183227539,-0.8765299916267395,-1.5701320171356201,-0.49542999267578125,53.10000228881836,-177.3000030517578,-25.500001907348633
1763182,1.4080286026000977,9.08399772644043,-1.2716519832611084,-0.7774440050125122,-0.2439039945602417,-0.7774440050125122,55.500003814697266,-177.3000030517578,-29.100000381469727
1763202,1.342831015586853,8.96616268157959,-1.2913906574249268,-0.5945159792900085,-0.2591480016708374,-0.7850660085678101,53.10000228881836,-177.3000030517578,-18.900001525878906
1763244,1.84945809841156,9.035547256469727,-0.9953098893165588,-0.2896359860897064,0.114329993724823,0.06859800219535828,53.10000228881836,-170.10000610351562,-27.30000114440918
1763296,2.1592960357666016,9.2760009765625,-1.0581148862838745,0.39634400606155396,0.7621999979019165,1.0061039924621582,55.500003814697266,-179.70001220703125,-30.900001525878906
1763336,2.3148133754730225,9.326245307922363,-1.0317965745925903,0.510673999786377,1.3795819282531738,1.1051899194717407,65.10000610351562,-177.3000030517578,-19.5
1763418,1.7938307523727417,8.847132682800293,-1.3003628253936768,0.342989981174469,1.9588539600372314,0.457319974899292,53.10000228881836,-182.10000610351562,-21.900001525878906
1763484,2.3704404830932617,9.307703018188477,-1.4516929388046265,0.7850660085678101,1.9512319564819336,0.6326259970664978,53.10000228881836,-172.5,-18.900001525878906
1763542,2.808281183242798,9.311291694641113,-1.408626675605774,-0.015243999660015106,2.1722700595855713,0.08384199440479279,41.10000228881836,-167.70001220703125,-16.5
1763562,2.879460334777832,9.125866889953613,-1.520479440689087,-0.015243999660015106,2.39330792427063,0.04573199898004532,48.30000305175781,-165.3000030517578,-25.500001907348633
1763602,2.709587574005127,8.61864185333252,-1.505525827407837,0.10670799762010574,2.134160041809082,-0.6173819899559021,62.70000076293945,-177.3000030517578,-17.700000762939453
1763645,2.662334442138672,8.79509449005127,-1.642500638961792,0.5792719721794128,2.03507399559021,-0.7317119836807251,43.5,-172.5,-21.30000114440918
1763720,2.552276134490967,9.695897102355957,-2.6156792640686035,0.5868939757347107,2.7591638565063477,-2.179892063140869,43.5,-174.90000915527344,-30.30000114440918
1763761,2.981144666671753,9.59481143951416,-2.8094775676727295,1.3643379211425781,1.7225719690322876,-1.1204339265823364,50.70000076293945,-167.70001220703125,-24.900001525878906
1763781,2.872880697250366,9.222766876220703,-2.664726972579956,0.8384199738502502,2.1494040489196777,-0.49542999267578125,45.900001525878906,-182.10000610351562,-17.100000381469727
1763841,2.462554693222046,9.00205135345459,-3.335843324661255,1.5472660064697266,2.0045859813690186,0.4420759975910187,62.70000076293945,-179.70001220703125,-17.700000762939453
1763881,2.101874351501465,8.30282211303711,-3.302945375442505,1.295740008354187,1.9664759635925293,-0.8384199738502502,57.900001525878906,-160.5,-17.100000381469727
1764019,3.0864176750183105,8.427834510803223,-3.4177889823913574,-0.41158798336982727,0.16768398880958557,0.28201398253440857,60.30000305175781,-170.10000610351562,-14.700000762939453
1764040,3.2156167030334473,8.506789207458496,-3.419583320617676,-0.39634400606155396,0.36585599184036255,0.4344539940357208,60.30000305175781,-177.3000030517578,-14.700000762939453
1764076,3.171354055404663,8.361440658569336,-3.5164825916290283,-0.1295740008354187,0.33536797761917114,0.2743920087814331,43.5,-165.3000030517578,-17.100000381469727
1764116,3.374124526977539,8.57198715209961,-3.555361747741699,0.18292799592018127,-0.18292799592018127,0.25152599811553955,50.70000076293945,-162.90000915527344,-25.500001907348633
1764136,3.389676332473755,8.553444862365723,-3.4680328369140625,0.038109999150037766,-0.48018598556518555,-0.02286599949002266,57.900001525878906,-177.3000030517578,-18.900001525878906
1764176,2.990116596221924,8.539687156677246,-3.46683669090271,-0.7240899801254272,-0.6173819899559021,-0.8307979702949524,50.70000076293945,-165.3000030517578,-20.100000381469727
1764197,2.9219284057617188,8.2262601852417,-3.20185923576355,-1.3643379211425781,-0.8384199738502502,-1.189031958580017,43.5,-174.90000915527344,-21.30000114440918
1764218,3.1043620109558105,8.564210891723633,-2.8920211791992188,-2.1570260524749756,-0.7240899801254272,-0.3582339882850647,55.500003814697266,-165.3000030517578,-19.5
1764258,3.030790328979492,8.2621488571167,-2.665325164794922,-2.903981924057007,-0.5640279650688171,0.3887220025062561,67.5,-186.90000915527344,-16.5
1764278,3.2503089904785156,8.80885124206543,-2.629436492919922,-2.5533699989318848,-0.7088459730148315,0.739333987236023,50.70000076293945,-170.10000610351562,-20.100000381469727
1764338,3.4064242839813232,8.69041919708252,-2.038471221923828,-1.7835479974746704,-0.9756159782409668,0.7317119836807251,53.10000228881836,-160.5,-20.100000381469727
1764438,2.6431937217712402,8.294448852539062,-1.5808918476104736,-1.5853760242462158,-0.28201398253440857,0.7469559907913208,55.500003814697266,-177.3000030517578,-15.300000190734863
1764458,2.4481992721557617,9.05289363861084,-1.7579421997070312,-1.2042759656906128,-0.26677000522613525,1.0975680351257324,48.30000305175781,-174.90000915527344,-22.5
1764498,1.6789872646331787,9.32205867767334,-1.5007407665252686,-1.1280559301376343,-0.6402480006217957,0.25152599811553955,50.70000076293945,-179.70001220703125,-21.30000114440918
1764518,1.5551717281341553,9.276598930358887,-1.4271690845489502,-1.0442140102386475,-0.8307979702949524,0.007621999830007553,53.10000228881836,-184.5,-33.900001525878906
1764538,1.515694260597229,9.173120498657227,-0.8972144722938538,-1.1585439443588257,-1.2118979692459106,0.3125019967556,41.10000228881836,-182.10000610351562,-21.30000114440918
1764578,1.2608853578567505,9.93036937713623,-0.8224465847015381,-1.196653962135315,-0.8612859845161438,0.39634400606155396,29.100000381469727,-179.70001220703125,-17.700000762939453
1764619,1.3900842666625977,9.783824920654297,-0.709995687007904,-1.0365920066833496,-0.8765299916267395,-0.2134159952402115,45.900001525878906,-174.90000915527344,-25.500001907348633
1764639,1.4044396877288818,9.59481143951416,-0.6495832800865173,-0.8917739987373352,-0.914639949798584,-0.2743920087814331,57.900001525878906,-182.10000610351562,-24.30000114440918
1764679,1.536629319190979,9.15756893157959,-0.703416109085083,-1.0823240280151367,-0.9070180058479309,-0.1448179930448532,53.10000228881836,-174.90000915527344,-21.30000114440918
1764699,1.708296298980713,9.418957710266113,-0.702817976474762,-0.17530599236488342,-0.9070180058479309,0.44969800114631653,48.30000305175781,-177.3000030517578,-33.30000305175781
1764719,1.9266184568405151,9.512866020202637,-0.7046124339103699,-0.22103799879550934,-0.6936019659042358,0.4344539940357208,36.30000305175781,-182.10000610351562,-22.5
1764739,2.039069414138794,9.287365913391113,-0.6573591232299805,-0.38109999895095825,-0.26677000522613525,0.571649968624115,45.900001525878906,-182.10000610351562,-29.100000381469727
1764760,2.22688627243042,9.140222549438477,-0.6914532780647278,-0.35061198472976685,0.22103799879550934,0.5487840175628662,41.10000228881836,-172.5,-22.5
1764780,2.3261780738830566,8.960780143737793,-0.7201641201972961,-0.4344539940357208,0.7317119836807251,0.6783579587936401,36.30000305175781,-177.3000030517578,-20.100000381469727
1764800,2.4272642135620117,8.947022438049316,-0.7937357425689697,-0.228659987449646,1.0975680351257324,0.8155539631843567,50.70000076293945,-179.70001220703125,-22.5
1764822,2.626445770263672,8.984705924987793,-0.8559426069259644,-0.09146399796009064,1.425313949584961,1.0518360137939453,31.500001907348633,-186.90000915527344,-21.900001525878906
1764842,2.697624683380127,8.958985328674316,-0.9534398913383484,-0.04573199898004532,1.7987920045852661,1.14329993724823,48.30000305175781,-177.3000030517578,-24.30000114440918
1764862,2.632427215576172,9.21439266204834,-1.1873137950897217,0.114329993724823,1.8902559280395508,1.0899460315704346,36.30000305175781,-174.90000915527344,-23.100000381469727
1764882,2.9847333431243896,10.014707565307617,-1.5545735359191895,0.739333987236023,1.5548880100250244,0.9756159782409668,36.30000305175781,-189.3000030517578,-18.30000114440918
1764922,2.563640832901001,8.79509449005127,-1.4493004083633423,0.08384199440479279,0.8307979702949524,-0.4878079891204834,41.10000228881836,-172.5,-25.500001907348633
1764942,2.583977699279785,8.597108840942383,-1.5874714851379395,0.7926880121231079,0.22103799879550934,-0.22103799879550934,33.900001525878906,-172.5,-23.700000762939453
1764962,2.528350353240967,8.475088119506836,-1.6251544952392578,0.7698220014572144,-0.04573199898004532,0.05335399881005287,33.900001525878906,-174.90000915527344,-21.900001525878906
1764982,2.5923516750335693,8.83995532989502,-1.8937206268310547,0.8612859845161438,-0.23628199100494385,0.4420759975910187,29.100000381469727,-165.3000030517578,-25.500001907348633
1765002,2.6096978187561035,8.884217262268066,-1.9068797826766968,0.7774440050125122,-0.5564059615135193,0.39634400606155396,36.30000305175781,-170.10000610351562,-20.700000762939453
1765022,2.7460744380950928,8.97633171081543,-1.9912179708480835,0.5640279650688171,-0.571649968624115,0.3125019967556,36.30000305175781,-165.3000030517578,-24.900001525878906
1765042,2.9620039463043213,9.125268936157227,-2.0366768836975098,0.426831990480423,-0.46494197845458984,0.2972579896450043,36.30000305175781,-179.70001220703125,-17.700000762939453
1765102,2.9907147884368896,9.24908447265625,-2.3381409645080566,-0.060975998640060425,0.3125019967556,0.20579399168491364,33.900001525878906,-182.10000610351562,-20.100000381469727
1765124,3.061893939971924,8.688026428222656,-2.1886050701141357,-0.5868939757347107,0.4039659798145294,-0.1600620001554489,31.500001907348633,-174.90000915527344,-24.900001525878906
1765145,3.2066445350646973,9.10373592376709,-2.19398832321167,-0.02286599949002266,0.2591480016708374,0.4878079891204834,21.900001525878906,-172.5,-22.5
1765165,3.078641891479492,8.647353172302246,-2.118622303009033,-0.48018598556518555,0.6478700041770935,0.2896359860897064,29.100000381469727,-174.90000915527344,-23.700000762939453
1765185,2.9584150314331055,8.57677173614502,-2.0935003757476807,-0.09146399796009064,0.571649968624115,0.6478700041770935,33.900001525878906,-179.70001220703125,-23.700000762939453
1765205,2.9039840698242188,8.418862342834473,-2.1329777240753174,-0.09146399796009064,0.5640279650688171,0.6250039935112,48.30000305175781,-177.3000030517578,-27.900001525878906
1765225,2.936283826828003,8.479872703552246,-2.19398832321167,0.1448179930448532,0.44969800114631653,0.8460419774055481,24.30000114440918,-165.3000030517578,-27.900001525878906
1765245,3.017033100128174,8.571389198303223,-2.1263983249664307,0.26677000522613525,0.3277460038661957,0.9527499675750732,24.30000114440918,-177.3000030517578,-23.100000381469727
1765285,3.070866107940674,8.619239807128906,-2.137763023376465,0.114329993724823,0.3201240003108978,1.1280559301376343,24.30000114440918,-177.3000030517578,-24.900001525878906
1765305,3.1013712882995605,8.641969680786133,-2.146735191345215,0.05335399881005287,0.26677000522613525,1.0899460315704346,19.5,-179.70001220703125,-23.100000381469727
1765325,3.1767373085021973,8.894386291503906,-2.2137272357940674,0.08384199440479279,0.20579399168491364,0.9908599853515625,33.900001525878906,-172.5,-18.30000114440918
1765345,3.1258952617645264,8.840553283691406,-2.2250919342041016,-0.13719600439071655,0.16768398880958557,0.6707359552383423,21.900001525878906,-177.3000030517578,-20.700000762939453
1765385,3.031388521194458,8.959583282470703,-2.3172059059143066,-0.3201240003108978,-0.015243999660015106,-0.10670799762010574,36.30000305175781,-174.90000915527344,-20.700000762939453
1765405,3.0810344219207764,9.000855445861816,-2.2520081996917725,-0.38109999895095825,-0.060975998640060425,-0.44969800114631653,26.700000762939453,-177.3000030517578,-24.30000114440918
1765465,2.995500087738037,8.86567497253418,-2.0516304969787598,-0.6554920077323914,0.114329993724823,-0.7850660085678101,29.100000381469727,-179.70001220703125,-26.100000381469727
1765485,2.980546474456787,8.820216178894043,-2.008563995361328,-0.7164679765701294,0.18292799592018127,-0.6021379828453064,17.100000381469727,-174.90000915527344,-17.700000762939453
1765505,2.8453660011291504,8.624025344848633,-1.9613107442855835,-0.7926880121231079,0.1600620001554489,-0.4039659798145294,29.100000381469727,-170.10000610351562,-15.90000057220459
1765526,2.9943037033081055,8.917713165283203,-1.9074779748916626,-0.48018598556518555,-0.09908600151538849,0.05335399881005287,21.900001525878906,-172.5,-17.700000762939453
1765546,2.9614057540893555,8.818421363830566,-2.002582550048828,-0.739333987236023,-0.13719600439071655,0.114329993724823,24.30000114440918,-182.10000610351562,-18.900001525878906
1765566,2.870488166809082,8.42544174194336,-1.7986159324645996,-0.685979962348938,-0.3582339882850647,0.36585599184036255,33.900001525878906,-170.10000610351562,-18.30000114440918
1765588,2.9620039463043213,8.91053581237793,-1.8811596632003784,-0.06859800219535828,-0.5259180068969727,0.6326259970664978,31.500001907348633,-177.3000030517578,-19.5
1765609,2.9679853916168213,8.899768829345703,-1.8727856874465942,-0.2134159952402115,-0.5182960033416748,0.38109999895095825,17.100000381469727,-184.5,-20.700000762939453
1765629,2.954228162765503,8.84892749786377,-1.958320140838623,-0.1448179930448532,-0.5335400104522705,0.16768398880958557,24.30000114440918,-174.90000915527344,-26.100000381469727
1765650,3.042753219604492,8.821412086486816,-1.921235203742981,-0.1448179930448532,-0.49542999267578125,0.030487999320030212,29.100000381469727,-184.5,-24.900001525878906
1765712,3.007462978363037,8.890796661376953,-1.931403636932373,-0.1600620001554489,-0.030487999320030212,0,21.900001525878906,-186.90000915527344,-23.700000762939453
1765761,3.0505292415618896,8.91651725769043,-1.945160984992981,-0.1448179930448532,0.13719600439071655,0.09146399796009064,26.700000762939453,-177.3000030517578,-24.30000114440918
1765781,3.0475385189056396,8.87883472442627,-1.937385082244873,-0.3048799932003021,0.18292799592018127,0.1295740008354187,17.100000381469727,-184.5,-21.900001525878906
1765801,3.070267915725708,8.835169792175293,-1.933198094367981,-0.38109999895095825,0.16768398880958557,0.2134159952402115,26.700000762939453,-177.3000030517578,-16.5
1765821,3.082230806350708,8.897974967956543,-1.9008983373641968,-0.2972579896450043,0.1295740008354187,0.18292799592018127,38.70000076293945,-182.10000610351562,-23.700000762939453
1765884,3.061295747756958,8.734682083129883,-1.8769726753234863,-0.19817200303077698,0.060975998640060425,-0.007621999830007553,29.100000381469727,-172.5,-21.900001525878906
1765924,3.0780436992645264,8.819618225097656,-1.9445627927780151,-0.114329993724823,0.06859800219535828,0.030487999320030212,17.100000381469727,-179.70001220703125,-21.30000114440918
1765944,3.124100685119629,8.82081413269043,-1.8757764101028442,-0.09146399796009064,0.09146399796009064,0.09908600151538849,21.900001525878906,-177.3000030517578,-21.900001525878906
1765964,3.0900065898895264,8.99906063079834,-1.9427683353424072,-0.16768398880958557,0.22103799879550934,-0.030487999320030212,21.900001525878906,-177.3000030517578,-14.100000381469727
1766008,3.0475385189056396,8.962574005126953,-1.9738718271255493,0.08384199440479279,0.09908600151538849,0.13719600439071655,21.900001525878906,-179.70001220703125,-26.100000381469727
1766028,3.067875385284424,8.85670280456543,-1.922431468963623,-0.28201398253440857,0.3277460038661957,-0.007621999830007553,14.700000762939453,-170.10000610351562,-24.900001525878906
1766048,2.960209608078003,8.967957496643066,-2.057013750076294,-0.18292799592018127,0.44969800114631653,-0.10670799762010574,7.500000476837158,-167.70001220703125,-16.5
1766068,2.9494431018829346,8.835169792175293,-1.9870309829711914,-0.25152599811553955,0.4039659798145294,-0.26677000522613525,26.700000762939453,-186.90000915527344,-26.700000762939453
1766088,2.9554243087768555,8.720924377441406,-1.9517405033111572,-0.19817200303077698,0.457319974899292,-0.3048799932003021,14.700000762939453,-167.70001220703125,-23.700000762939453
1766108,2.9620039463043213,8.782533645629883,-1.9487497806549072,-0.05335399881005287,0.5030519962310791,-0.26677000522613525,9.90000057220459,-184.5,-23.100000381469727
1766128,2.992509365081787,8.83277702331543,-1.9989937543869019,-0.08384199440479279,0.5564059615135193,-0.25152599811553955,33.900001525878906,-174.90000915527344,-20.700000762939453
1766150,2.987126111984253,8.83098316192627,-2.0193307399749756,-0.060975998640060425,0.5411620140075684,-0.19817200303077698,24.30000114440918,-184.5,-17.100000381469727
1766171,2.9919111728668213,8.79509449005127,-2.0289008617401123,-0.060975998640060425,0.48018598556518555,-0.18292799592018127,19.5,-165.3000030517578,-28.500001907348633
1766191,3.072660446166992,8.85191822052002,-2.032489776611328,0.015243999660015106,0.38109999895095825,-0.10670799762010574,17.100000381469727,-179.70001220703125,-24.900001525878906
1766231,3.145035743713379,8.826197624206543,-2.020526885986328,-0.08384199440479279,0.3048799932003021,0.007621999830007553,17.100000381469727,-177.3000030517578,-21.900001525878906
1766252,3.2036538124084473,8.790308952331543,-2.029499053955078,-0.13719600439071655,0.25152599811553955,0.02286599949002266,14.700000762939453,-182.10000610351562,-20.100000381469727
1766292,3.3250768184661865,8.908143043518066,-2.0247139930725098,-0.16768398880958557,0.09146399796009064,-0.06859800219535828,26.700000762939453,-177.3000030517578,-18.900001525878906
1766352,3.347806215286255,8.689821243286133,-1.9852365255355835,-0.3201240003108978,-0.1448179930448532,-0.39634400606155396,36.30000305175781,-191.70001220703125,-17.100000381469727
1766416,3.535623073577881,8.533705711364746,-1.7842605113983154,-0.46494197845458984,-0.23628199100494385,0.015243999660015106,29.100000381469727,-177.3000030517578,-24.30000114440918
1766436,3.6163723468780518,8.812440872192383,-1.7956252098083496,0.007621999830007553,-0.26677000522613525,0.22103799879550934,17.100000381469727,-177.3000030517578,-19.5
1766456,3.588259696960449,8.644362449645996,-1.6903520822525024,-0.23628199100494385,0.030487999320030212,0.1295740008354187,29.100000381469727,-182.10000610351562,-13.500000953674316
1766478,3.603811502456665,8.86388111114502,-1.755549669265747,0.007621999830007553,0.19054999947547913,0.1448179930448532,21.900001525878906,-174.90000915527344,-21.900001525878906
1766498,3.42496657371521,8.634193420410156,-1.7537552118301392,-0.26677000522613525,0.36585599184036255,-0.2439039945602417,24.30000114440918,-174.90000915527344,-22.5
1766518,3.2891881465911865,8.362038612365723,-1.7447830438613892,-0.16768398880958557,0.4192099869251251,-0.36585599184036255,21.900001525878906,-177.3000030517578,-18.30000114440918
1766538,3.3214879035949707,8.299233436584473,-1.7543532848358154,0.20579399168491364,0.16768398880958557,-0.48018598556518555,24.30000114440918,-160.5,-24.30000114440918
1766558,2.7891407012939453,6.7949042320251465,-1.3051480054855347,-0.5487840175628662,-0.22103799879550934,-1.2042759656906128,33.900001525878906,-162.90000915527344,-28.500001907348633
1766580,2.4158995151519775,5.797201633453369,-1.0557223558425903,-0.19817200303077698,-0.23628199100494385,-0.6173819899559021,29.100000381469727,-179.70001220703125,-17.100000381469727
1766620,1.327877402305603,3.687551498413086,-0.7488750219345093,-0.7545779943466187,-0.3582339882850647,-1.0518360137939453,21.900001525878906,-170.10000610351562,-24.30000114440918
1766716,3.860414743423462,16.080474853515625,-4.6290283203125,-1.5701320171356201,8.125051498413086,10.625067710876465,-6.900000095367432,-177.3000030517578,-23.100000381469727
1766736,6.082515716552734,19.599349975585938,-6.123787879943848,-0.6936019659042358,4.908567905426025,5.846074104309082,2.700000047683716,-167.70001220703125,-29.700000762939453
1766778,10.585335731506348,19.599349975585938,-5.108738899230957,3.5899620056152344,0.20579399168491364,6.051867961883545,-6.900000095367432,-155.70001220703125,-25.500001907348633
1766798,15.624691009521484,19.595163345336914,-7.15378999710083,-3.041177988052368,4.153989791870117,13.391853332519531,-26.100000381469727,-160.5,-22.5
1766818,11.158955574035645,19.599349975585938,-5.334836959838867,-0.09908600151538849,-3.3841679096221924,-5.663146018981934,-30.900001525878906,-177.3000030517578,-27.900001525878906
1766840,6.579572677612305,14.847702980041504,-3.9812395572662354,1.9740979671478271,-5.228692054748535,-10.556469917297363,-16.5,-182.10000610351562,-21.30000114440918
1766902,0.3720449209213257,0.48329952359199524,0.04964586719870567,-0.739333987236023,-4.32167387008667,-9.771403312683105,-4.5,-184.5,-17.700000762939453
1766923,-0.8804664611816406,-2.0522284507751465,0.5885726809501648,-2.698187828063965,-0.6021379828453064,-2.8277618885040283,17.100000381469727,-174.90000915527344,-17.700000762939453
1766943,0.4844958186149597,0.08015115559101105,0.33316564559936523,-0.9832379817962646,-1.2576299905776978,0.3887220025062561,29.100000381469727,-179.70001220703125,-21.900001525878906
1766965,1.324886679649353,1.7818678617477417,0.6316390037536621,-0.3048799932003021,-1.7225719690322876,0.19054999947547913,12.300000190734863,-170.10000610351562,-23.100000381469727
1766985,1.1316864490509033,1.3171107769012451,0.8475685715675354,-1.6387299299240112,-0.7698220014572144,-1.5091559886932373,24.30000114440918,-174.90000915527344,-24.900001525878906
1767007,0.5275620818138123,0.11723602563142776,0.909177303314209,-2.1570260524749756,-0.5030519962310791,-1.9131219387054443,19.5,-179.70001220703125,-26.700000762939453
1767090,-0.5945541262626648,-0.9994968771934509,0.3798207938671112,0.007621999830007553,0.114329993724823,-0.5411620140075684,38.70000076293945,-172.5,-21.900001525878906
1767110,-0.2799309194087982,-0.6908551454544067,0.29368820786476135,-0.04573199898004532,-0.5411620140075684,0.17530599236488342,26.700000762939453,-170.10000610351562,-22.5
1767131,0.1561153084039688,-0.18063917756080627,0.5245713591575623,0.7698220014572144,-0.3125019967556,1.1814099550247192,21.900001525878906,-179.70001220703125,-18.900001525878906
1767191,4.214515209197998,12.958767890930176,-2.2795228958129883,0.8612859845161438,3.0869100093841553,10.853727340698242,9.90000057220459,-182.10000610351562,-23.700000762939453
1767231,13.524012565612793,19.544919967651367,-5.943746566772461,-1.196653962135315,8.689080238342285,5.800342082977295,-14.100000381469727,-174.90000915527344,-26.100000381469727
1767318,10.258749961853027,19.095115661621094,-3.7575340270996094,-0.038109999150037766,-3.658559799194336,-11.806477546691895,-40.5,-165.3000030517578,-23.700000762939453
1767359,1.4062341451644897,2.4906673431396484,0.25361260771751404,1.7606819868087769,-7.225656032562256,-24.13125228881836,5.100000381469727,-177.3000030517578,-15.300000190734863
1767379,-2.3387389183044434,-4.555456638336182,1.0688815116882324,2.8658719062805176,-2.1722700595855713,-18.841583251953125,26.700000762939453,-167.70001220703125,-24.30000114440918
1767423,1.939179539680481,1.8733837604522705,0.8786720037460327,0.9298839569091797,-1.3643379211425781,2.9192259311676025,31.500001907348633,-177.3000030517578,-21.900001525878906
1767443,1.615584135055542,0.6334334015846252,0.3840077817440033,-0.015243999660015106,1.5091559886932373,0.510673999786377,45.900001525878906,-174.90000915527344,-17.700000762939453
1767463,1.4373375177383423,0.5616562366485596,0.3917836546897888,-0.800309956073761,1.0899460315704346,1.5320219993591309,33.900001525878906,-182.10000610351562,-22.5
1767505,0.7016217112541199,-0.5167955160140991,0.5335435271263123,-1.1128119230270386,1.3490939140319824,0.7164679765701294,36.30000305175781,-170.10000610351562,-23.100000381469727
1767549,-0.033496007323265076,-1.2704557180404663,0.6675275564193726,-0.5564059615135193,1.3643379211425781,0.9375059604644775,12.300000190734863,-174.90000915527344,-26.700000762939453
1767569,-0.14774131774902344,-0.6609479784965515,0.5502915382385254,-0.09146399796009064,1.5167779922485352,1.7606819868087769,21.900001525878906,-167.70001220703125,-19.5
1767589,-0.23865903913974762,-0.0059814294800162315,0.4109242260456085,-0.2896359860897064,1.3795819282531738,1.5701320171356201,26.700000762939453,-179.70001220703125,-20.700000762939453
1767609,-0.23148132860660553,0.2266961932182312,0.2781364917755127,-0.6326259970664978,1.196653962135315,0.9603719711303711,33.900001525878906,-167.70001220703125,-19.5
1767632,0.5275620818138123,3.1940834522247314,-0.6573591232299805,0.9527499675750732,2.6677000522613525,4.100636005401611,12.300000190734863,-184.5,-23.700000762939453
1767652,2.1569035053253174,8.052200317382812,-1.9032909870147705,-0.030487999320030212,2.8125178813934326,7.660109996795654,9.90000057220459,-170.10000610351562,-15.300000190734863
1767672,2.292083978652954,11.209198951721191,-2.4452085494995117,1.425313949584961,6.4253458976745605,9.222620010375977,5.100000381469727,-177.3000030517578,-22.5
1767692,9.49611759185791,19.599349975585938,-6.644172191619873,-0.7621999979019165,8.986337661743164,22.050445556640625,-11.700000762939453,-172.5,-24.900001525878906
1767712,12.629788398742676,19.52817153930664,-4.678674221038818,-5.541193962097168,2.6677000522613525,5.945159912109375,-16.5,-165.3000030517578,-24.30000114440918
1767732,12.961758613586426,19.599349975585938,-6.506000995635986,7.10370397567749,6.379613876342773,2.987823963165283,-28.500001907348633,-165.3000030517578,-27.30000114440918
1767752,19.599349975585938,19.599349975585938,-8.80107593536377,-2.5000159740448,6.570163726806641,13.719599723815918,-42.900001525878906,-160.5,-21.900001525878906
1767772,16.2132625579834,19.599349975585938,-7.3553643226623535,0.08384199440479279,-4.375028133392334,-4.329296112060547,-47.70000076293945,-177.3000030517578,-20.100000381469727
1767792,12.251164436340332,19.59097671508789,-5.857614040374756,1.653973937034607,-7.454315662384033,-7.484803676605225,-16.5,-177.3000030517578,-23.100000381469727
1767814,8.089285850524902,15.574446678161621,-4.173243522644043,0.02286599949002266,-7.980233669281006,-7.667731761932373,-35.70000076293945,-182.10000610351562,-27.30000114440918
1767854,1.3045498132705688,3.4985382556915283,-0.8397927284240723,1.7987920045852661,-9.237863540649414,-16.25772476196289,-9.300000190734863,-179.70001220703125,-26.700000762939453
1767874,-1.1669769287109375,-0.9008033275604248,0.5784042477607727,0.44969800114631653,-6.539675712585449,-12.042759895324707,17.100000381469727,-177.3000030517578,-16.5
1767894,-1.211837649345398,-1.1448456048965454,0.3929799199104309,-1.4329359531402588,-2.385685920715332,-3.155508041381836,5.100000381469727,-179.70001220703125,-18.30000114440918
1767918,-0.07237529754638672,0.34393221139907837,0.6663312911987305,-0.6326259970664978,-2.431417942047119,-1.7911700010299683,21.900001525878906,-182.10000610351562,-15.90000057220459
1767938,0.6579572558403015,0.6238631010055542,0.805698573589325,-0.5792719721794128,-1.5853760242462158,-1.4329359531402588,21.900001525878906,-177.3000030517578,-22.5
1767958,0.6812848448753357,0.712986409664154,0.924130916595459,-1.1128119230270386,-0.6097599864006042,-1.3414719104766846,12.300000190734863,-179.70001220703125,-17.100000381469727
1767978,0.1692744642496109,-0.49047723412513733,0.7668192982673645,-1.4862899780273438,0.060975998640060425,-1.9740979671478271,26.700000762939453,-167.70001220703125,-19.5
1767998,-0.04306629300117493,-1.20705246925354,0.8702980279922485,-0.5945159792900085,-0.1295740008354187,-1.14329993724823,31.500001907348633,-174.90000915527344,-16.5
1768018,-0.08553444594144821,-0.821250319480896,0.9372900128364563,-0.114329993724823,0.3048799932003021,0.4878079891204834,31.500001907348633,-189.3000030517578,-15.300000190734863
1768041,-0.2960807681083679,-0.6412092447280884,0.7805765867233276,-0.49542999267578125,0.6631140112876892,0.7088459730148315,29.100000381469727,-174.90000915527344,-21.30000114440918
1768061,-0.16209673881530762,-0.3487173616886139,0.6932476758956909,-0.9527499675750732,0.5487840175628662,1.2042759656906128,26.700000762939453,-184.5,-24.30000114440918
1768081,-0.04605700820684433,-0.18482618033885956,0.6872662901878357,-1.471045970916748,0.800309956073761,1.3109840154647827,26.700000762939453,-182.10000610351562,-18.900001525878906
1768101,0.27574390172958374,0.6890606880187988,0.4372425079345703,-1.3109840154647827,1.1509219408035278,1.7378159761428833,19.5,-179.70001220703125,-21.30000114440918
1768121,1.7531570196151733,3.7365992069244385,-0.2135370373725891,-0.007621999830007553,1.478667974472046,5.525949954986572,31.500001907348633,-186.90000915527344,-17.700000762939453
1768144,2.9649946689605713,7.728605270385742,0.9965062141418457,-0.9222619533538818,0.23628199100494385,7.7515740394592285,26.700000762939453,-182.10000610351562,-20.100000381469727
1768164,7.946927547454834,16.919071197509766,-1.6753984689712524,-2.538125991821289,13.803442001342773,18.026029586791992,-9.300000190734863,-184.5,-23.700000762939453
1768226,17.22831153869629,19.598154067993164,-9.552343368530273,6.143332004547119,5.792719841003418,17.218097686767578,-28.500001907348633,-177.3000030517578,-19.5
1768246,19.599349975585938,19.599349975585938,-8.260354042053223,-3.704291820526123,3.414655923843384,6.806446075439453,-54.900001525878906,-160.5,-23.100000381469727
1768266,15.384237289428711,19.599349975585938,-8.1843900680542,3.0640439987182617,-6.730226039886475,-9.649452209472656,-45.30000305175781,-158.10000610351562,-24.30000114440918
1768286,11.483148574829102,18.906702041625977,-6.268538475036621,0.7164679765701294,-10.983302116394043,-8.186027526855469,-33.30000305175781,-172.5,-18.30000114440918
1768307,7.097564697265625,13.47496509552002,-3.4387240409851074,-1.753059983253479,-11.943674087524414,-10.182991981506348,-33.30000305175781,-160.5,-23.100000381469727
1768327,4.012941360473633,7.151995658874512,-1.5886677503585815,0.457319974899292,-10.228723526000977,-16.196748733520508,-26.100000381469727,-165.3000030517578,-17.700000762939453
1768349,1.1723601818084717,0.9887303113937378,-0.12740445137023926,0.9603719711303711,-8.696702003479004,-18.658655166625977,12.300000190734863,-167.70001220703125,-19.5
1768389,-0.45877566933631897,-2.119818687438965,0.34632477164268494,-0.6326259970664978,-1.0747020244598389,-2.3018438816070557,21.900001525878906,-177.3000030517578,-24.30000114440918
1768409,0.8954200148582458,0.35410064458847046,0.5078234076499939,0.4192099869251251,-1.4481799602508545,0.16768398880958557,31.500001907348633,-165.3000030517578,-20.100000381469727
1768429,0.8559426069259644,0.24822933971881866,0.8021097183227539,0.4420759975910187,0.6783579587936401,-1.021347999572754,38.70000076293945,-182.10000610351562,-22.5
1768452,0.6938458681106567,-0.18183545768260956,0.5544785261154175,-0.228659987449646,1.7454379796981812,-0.3887220025062561,26.700000762939453,-162.90000915527344,-20.100000381469727
1768472,0.6011337041854858,0.01734614558517933,0.5909652709960938,-0.5259180068969727,1.9131219387054443,0.5792719721794128,24.30000114440918,-174.90000915527344,-19.5
1768494,-0.03947743773460388,-0.48808467388153076,0.46236452460289,-1.14329993724823,2.195136070251465,0.5640279650688171,21.900001525878906,-189.3000030517578,-16.5
1768514,-0.15073202550411224,-0.5580673813819885,0.5072252154350281,-1.1509219408035278,2.0198299884796143,0.5030519962310791,33.900001525878906,-177.3000030517578,-17.100000381469727
1768537,-0.1603023111820221,-0.60950767993927,0.3403433561325073,-1.2804960012435913,1.5701320171356201,0.4878079891204834,24.30000114440918,-177.3000030517578,-21.900001525878906
1768557,-0.030505292117595673,-0.6663312911987305,0.4312610924243927,-1.3186060190200806,0.914639949798584,0.7545779943466187,19.5,-170.10000610351562,-20.100000381469727
1768580,0.3780263662338257,-0.10407687723636627,0.41989636421203613,-1.1356779336929321,0.7850660085678101,1.7454379796981812,19.5,-174.90000915527344,-18.30000114440918
1768601,1.1669769287109375,2.136566638946533,-0.1854243278503418,-0.1600620001554489,1.524399995803833,4.207344055175781,26.700000762939453,-177.3000030517578,-24.30000114440918
1768621,2.720952272415161,5.943148612976074,-1.018039345741272,0.853663980960846,2.294221878051758,8.460419654846191,14.700000762939453,-189.3000030517578,-22.5
1768641,5.020812034606934,13.86435604095459,-3.2503089904785156,1.478667974472046,8.910118103027344,16.501628875732422,-11.700000762939453,-174.90000915527344,-21.30000114440918
1768661,8.507986068725586,18.74639892578125,-5.321079730987549,0.007621999830007553,11.6387939453125,21.59312629699707,-14.100000381469727,-167.70001220703125,-21.900001525878906
1768681,14.241186141967773,19.563461303710938,-7.28418493270874,-4.527467727661133,6.829311847686768,11.059521675109863,-38.10000228881836,-174.90000915527344,-21.30000114440918
1768724,19.574827194213867,19.599349975585938,-7.5850510597229,-3.414655923843384,3.7805118560791016,5.426863670349121,-40.5,-170.10000610351562,-18.900001525878906
1768780,8.581557273864746,17.199003219604492,-4.9825310707092285,1.6844619512557983,-7.957367897033691,-10.083906173706055,-21.30000114440918,-167.70001220703125,-20.700000762939453
1768819,2.1000800132751465,4.253394603729248,-0.33496007323265076,1.524399995803833,-10.518360137939453,-22.92697525024414,12.300000190734863,-167.70001220703125,-19.5
1768839,-1.000095009803772,-1.9595164060592651,1.5473958253860474,-0.8079319596290588,-7.416205883026123,-20.31262969970703,31.500001907348633,-177.3000030517578,-20.700000762939453
1768880,0.5449082255363464,0.25959405303001404,0.6884625554084778,-3.7195358276367188,-0.7240899801254272,1.7301939725875854,53.10000228881836,-177.3000030517578,-24.30000114440918
1768900,0.5305528044700623,1.0551241636276245,0.6854718327522278,-2.378063917160034,0.28201398253440857,0.8689079880714417,36.30000305175781,-184.5,-25.500001907348633
1768920,0.5939559936523438,1.1364716291427612,0.11962859332561493,-2.225623846054077,0.1448179930448532,0.9375059604644775,43.5,-160.5,-14.700000762939453
1768940,0.17106889188289642,-0.15790975093841553,0.7303325533866882,-1.8597679138183594,-1.0747020244598389,0.571649968624115,43.5,-179.70001220703125,-18.30000114440918
1768960,0.06639386713504791,-0.5353379845619202,1.0730684995651245,-1.4939119815826416,-1.0365920066833496,0.914639949798584,33.900001525878906,-172.5,-18.30000114440918
1769002,0.38460594415664673,-0.6932476758956909,0.8696998953819275,-0.8841519951820374,0.3734779953956604,0.8841519951820374,31.500001907348633,-174.90000915527344,-16.5
1769024,0.39058735966682434,-0.9743748903274536,0.617881715297699,-0.6173819899559021,0.853663980960846,1.295740008354187,41.10000228881836,-182.10000610351562,-24.900001525878906
1769054,0.5078234076499939,-0.3911854922771454,0.4533923864364624,0.20579399168491364,1.5548880100250244,3.155508041381836,41.10000228881836,-186.90000915527344,-22.5
1769078,1.4044396877288818,2.7382984161376953,-0.47612181305885315,1.9740979671478271,3.5975840091705322,6.775958061218262,33.900001525878906,-182.10000610351562,-22.5
1769160,13.74771785736084,19.564659118652344,-5.273228645324707,-2.332331895828247,-2.7210538387298584,4.382649898529053,-28.500001907348633,-177.3000030517578,-27.30000114440918
1769180,17.565067291259766,19.598752975463867,-6.554450511932373,0.015243999660015106,9.329327583312988,11.951295852661133,-35.70000076293945,-162.90000915527344,-24.30000114440918
1769243,8.318374633789062,17.655385971069336,-1.5300496816635132,-4.169233798980713,-10.122015953063965,-5.876561641693115,-30.900001525878906,-167.70001220703125,-19.5
1769297,0.8039041757583618,-0.07476787269115448,-0.021533146500587463,0.015243999660015106,-4.0396599769592285,-28.125179290771484,2.700000047683716,-165.3000030517578,-20.700000762939453
1769317,-2.5139949321746826,-6.6992011070251465,0.91575688123703,1.2576299905776978,-2.4695279598236084,-17.004682540893555,43.5,-160.5,-23.700000762939453
1769357,1.0981905460357666,1.5001425743103027,0.11903045326471329,0.7469559907913208,-0.007621999830007553,3.6890478134155273,24.30000114440918,-174.90000915527344,-14.700000762939453
1769377,0.8840553164482117,0.9839451909065247,-0.04426258057355881,1.5929979085922241,0.9451279640197754,0.7850660085678101,31.500001907348633,-172.5,-23.700000762939453
1769397,0.811680018901825,1.0957978963851929,-0.022131290286779404,1.4558019638061523,0.35061198472976685,1.1814099550247192,31.500001907348633,-179.70001220703125,-24.900001525878906
1769421,0.44382208585739136,0.41870006918907166,0.29368820786476135,0.4420759975910187,0.007621999830007553,-0.05335399881005287,38.70000076293945,-186.90000915527344,-15.90000057220459
1769461,0.08852516114711761,-0.36127835512161255,0.30325847864151,-0.9451279640197754,0.6173819899559021,-1.7911700010299683,31.500001907348633,-182.10000610351562,-17.700000762939453
1769481,-0.13577845692634583,-0.9504491686820984,0.3002677857875824,-0.9070180058479309,0.426831990480423,-2.0960500240325928,41.10000228881836,-172.5,-18.30000114440918
1769501,0.04366443678736687,-0.8170632719993591,0.3403433561325073,-0.5640279650688171,0.426831990480423,-1.189031958580017,41.10000228881836,-184.5,-15.90000057220459
1769524,0.5706284046173096,0.9348974823951721,0.16269488632678986,0.06859800219535828,1.5167779922485352,0.5792719721794128,29.100000381469727,-182.10000610351562,-21.900001525878906
1769544,2.1006782054901123,5.110533714294434,-1.405635952949524,1.4862899780273438,3.307947874069214,5.640279769897461,29.100000381469727,-162.90000915527344,-21.30000114440918
1769564,1.5509847402572632,8.19336223602295,-1.9810495376586914,1.7911700010299683,6.196685791015625,6.089977741241455,14.700000762939453,-172.5,-20.700000762939453
1769584,5.502317428588867,16.00391387939453,-6.077132701873779,3.757645845413208,16.074798583984375,20.960498809814453,9.90000057220459,-179.70001220703125,-23.700000762939453
1769608,15.776618957519531,19.52219009399414,-10.354453086853027,-0.9070180058479309,8.498529434204102,9.695183753967285,-42.900001525878906,-170.10000610351562,-21.30000114440918
1769650,17.729555130004883,19.599349975585938,-8.516359329223633,-4.2149658203125,-0.16768398880958557,0.12195199728012085,-2.1000001430511475,-165.3000030517578,-23.100000381469727
1769670,11.142207145690918,19.599349975585938,-7.997171401977539,-2.28659987449646,-6.7835798263549805,-10.693665504455566,-23.700000762939453,-170.10000610351562,-26.100000381469727
1769690,6.7320990562438965,15.928546905517578,-5.18889045715332,-3.5747179985046387,-13.696733474731445,-11.227205276489258,5.100000381469727,-174.90000915527344,-24.30000114440918
1769713,3.8592183589935303,10.649337768554688,-0.8302224278450012,-4.054903984069824,-13.734843254089355,-14.519909858703613,9.90000057220459,-172.5,-18.900001525878906
1769733,1.23695969581604,3.4895660877227783,0.5371323823928833,-1.6311079263687134,-7.35522985458374,-21.631235122680664,41.10000228881836,-184.5,-21.30000114440918
1769753,-1.3655604124069214,-2.1652774810791016,0.25122004747390747,0.20579399168491364,-4.382649898529053,-17.332427978515625,62.70000076293945,-179.70001220703125,-20.700000762939453
1769774,-1.0934053659439087,-1.9236278533935547,0.8302224278450012,-1.9664759635925293,-1.5320219993591309,-2.195136070251465,57.900001525878906,-170.10000610351562,-21.900001525878906
1769794,0.5197862386703491,1.6024249792099,0.8051004409790039,-1.1128119230270386,-0.342989981174469,0.8765299916267395,65.10000610351562,-184.5,-17.700000762939453
1769816,0.45099979639053345,1.5779011249542236,0.5700302720069885,0.2591480016708374,0.8384199738502502,-0.8612859845161438,60.30000305175781,-172.5,-17.700000762939453
1769836,0.43963509798049927,1.2136321067810059,0.9809544682502747,-0.07621999830007553,1.14329993724823,-0.8307979702949524,62.70000076293945,-165.3000030517578,-22.5
1769919,-0.7979227304458618,-0.5748153924942017,0.2691643238067627,-0.13719600439071655,2.591480016708374,0.04573199898004532,55.500003814697266,-182.10000610351562,-24.900001525878906
1769955,-0.5712265372276306,-1.0258152484893799,0.19738717377185822,0.09146399796009064,1.4405579566955566,1.2118979692459106,62.70000076293945,-177.3000030517578,-19.5
1769975,-0.45698124170303345,-0.19678904116153717,0.16807816922664642,0.6936019659042358,1.653973937034607,3.871975898742676,67.5,-179.70001220703125,-22.5
1770015,1.549788475036621,10.056577682495117,-1.918244481086731,2.2103798389434814,7.042727947235107,11.943674087524414,38.70000076293945,-179.70001220703125,-24.900001525878906
1770035,2.348907470703125,14.07550048828125,-4.137354850769043,4.253076076507568,12.469592094421387,19.451343536376953,21.900001525878906,-177.3000030517578,-25.500001907348633
1770055,12.623806953430176,19.599349975585938,-8.619239807128906,-4.57319974899292,19.611406326293945,29.237991333007812,9.90000057220459,-172.5,-17.100000381469727
1770075,15.839424133300781,19.588584899902344,-7.682548522949219,-1.9054999351501465,-1.9207439422607422,0.7621999979019165,-23.700000762939453,-179.70001220703125,-20.100000381469727
1770099,17.514225006103516,19.598752975463867,-5.397642135620117,-4.161612033843994,3.818621873855591,8.788166046142578,-23.700000762939453,-182.10000610351562,-20.100000381469727
1770119,14.11138916015625,19.599349975585938,-7.756718158721924,-0.800309956073761,3.650938034057617,1.6234859228134155,-30.900001525878906,-174.90000915527344,-23.700000762939453
1770139,9.98121166229248,19.50065803527832,-6.127974510192871,-2.4161739349365234,-6.852177619934082,-2.987823963165283,-28.500001907348633,-179.70001220703125,-18.30000114440918
1770201,-0.14175988733768463,-0.07476787269115448,0.12321744859218597,0.9070180058479309,-7.4390716552734375,-23.978811264038086,21.900001525878906,-170.10000610351562,-20.700000762939453
1770222,-2.8986008167266846,-5.578281402587891,1.0898164510726929,0.36585599184036255,-4.7027740478515625,-12.515323638916016,38.70000076293945,-167.70001220703125,-27.900001525878906
1770283,1.0862276554107666,0.3020622134208679,0.35110992193222046,-0.030487999320030212,0.46494197845458984,1.92836594581604,26.700000762939453,-184.5,-14.700000762939453
1770378,0.15850788354873657,-0.5520859360694885,0.5712265372276306,-1.2728739976882935,-0.342989981174469,1.753059983253479,17.100000381469727,-179.70001220703125,-26.700000762939453
1770398,0.14056359231472015,-0.6764997243881226,0.3606802225112915,-1.2728739976882935,-0.5411620140075684,1.4024479389190674,21.900001525878906,-182.10000610351562,-26.700000762939453
1770441,2.4278624057769775,5.023802757263184,-0.8254373073577881,1.1661659479141235,0.6478700041770935,6.562541961669922,14.700000762939453,-177.3000030517578,-22.5
1770461,3.4985382556915283,7.949320316314697,-1.2590909004211426,0.6250039935112,2.179892063140869,5.289668083190918,-4.5,-179.70001220703125,-18.30000114440918
1770482,5.4000349044799805,14.999032974243164,-3.42795729637146,3.917707920074463,6.364369869232178,17.553464889526367,2.700000047683716,-172.5,-23.100000381469727
1770506,12.827774047851562,19.506040573120117,-8.051602363586426,-0.3887220025062561,6.9283976554870605,10.640312194824219,-40.5,-172.5,-24.30000114440918
1770526,14.37337589263916,19.599349975585938,-6.585554122924805,-0.18292799592018127,-8.155539512634277,-1.7911700010299683,-35.70000076293945,-162.90000915527344,-19.5
1770546,19.599349975585938,19.599349975585938,-4.633813381195068,-4.900945663452148,1.013725996017456,6.6844940185546875,-33.30000305175781,-162.90000915527344,-23.100000381469727
1770566,13.93314266204834,19.599349975585938,-7.112517833709717,-0.10670799762010574,-2.1722700595855713,-8.307979583740234,-42.900001525878906,-177.3000030517578,-30.30000114440918
1770588,10.435800552368164,17.663162231445312,-3.9274067878723145,-2.3704419136047363,-9.840002059936523,-6.6387619972229,-33.30000305175781,-177.3000030517578,-26.100000381469727
1770608,5.577085018157959,10.933455467224121,-0.6268538236618042,-1.5320219993591309,-7.904013633728027,-9.14639949798584,-6.900000095367432,-167.70001220703125,-18.900001525878906
1770628,2.3704404830932617,6.45456075668335,-0.7835673093795776,3.4908759593963623,-0.5182960033416748,-16.68455696105957,-9.300000190734863,-177.3000030517578,-16.5
1770651,0.22849062085151672,-0.4492053687572479,-0.7811747193336487,2.644834041595459,-1.5167779922485352,-19.451343536376953,14.700000762939453,-174.90000915527344,-20.700000762939453
1770672,-2.3022522926330566,-4.334742069244385,0.5825912356376648,0.6478700041770935,-1.2804960012435913,-10.03817367553711,17.100000381469727,-179.70001220703125,-16.5
1770692,0.26437920331954956,-0.6818829774856567,-0.12441373616456985,-0.26677000522613525,1.6311079263687134,2.14178204536438,19.5,-174.90000915527344,-23.100000381469727
1770712,0.9606176018714905,1.5503865480422974,-0.13876916468143463,0.4039659798145294,0.4039659798145294,1.8902559280395508,19.5,-172.5,-17.100000381469727
1770732,1.0814424753189087,1.0742647647857666,-0.14295616745948792,-0.3734779953956604,0.8460419774055481,1.2347639799118042,19.5,-186.90000915527344,-19.5
1770752,0.5724228024482727,0.03469229117035866,0.023925717920064926,-0.9375059604644775,0.41158798336982727,1.1661659479141235,5.100000381469727,-174.90000915527344,-20.700000762939453
1770772,-0.1118527352809906,-0.8493630290031433,0.4181019365787506,-0.5564059615135193,-0.35061198472976685,1.2804960012435913,21.900001525878906,-194.10000610351562,-22.5
1770792,0.0795530155301094,-0.09390844404697418,0.4910753667354584,-0.5182960033416748,-0.3048799932003021,1.1128119230270386,12.300000190734863,-174.90000915527344,-26.100000381469727
1770852,0.4294666647911072,0.1662837415933609,0.6519758105278015,-0.3887220025062561,0.4878079891204834,0.6478700041770935,17.100000381469727,-186.90000915527344,-22.5
1770872,1.6102008819580078,4.038661479949951,-0.3792226314544678,1.417691946029663,2.5228819847106934,5.236313819885254,19.5,-172.5,-20.100000381469727
1770893,3.68994402885437,9.779637336730957,-2.1299872398376465,0.7926880121231079,6.166197776794434,12.019893646240234,7.500000476837158,-167.70001220703125,-19.5
1770913,4.797704696655273,14.895554542541504,-4.134364128112793,1.9588539600372314,8.940606117248535,13.856795310974121,-14.100000381469727,-162.90000915527344,-23.700000762939453
1770973,15.03671646118164,19.598752975463867,-5.080028057098389,1.7759259939193726,3.094532012939453,0.38109999895095825,-30.900001525878906,-167.70001220703125,-23.700000762939453
1771033,7.61196756362915,14.463096618652344,-2.235260248184204,-1.7454379796981812,-9.695183753967285,-7.179924011230469,-23.700000762939453,-179.70001220703125,-21.30000114440918
1771073,1.0987886190414429,3.508108615875244,-1.314718246459961,1.875011920928955,-3.5289859771728516,-22.93459701538086,-9.300000190734863,-177.3000030517578,-19.5
1771118,-2.2699525356292725,-4.087708950042725,0.4737292230129242,0.2972579896450043,-2.080806016921997,-5.312533855438232,41.10000228881836,-177.3000030517578,-21.30000114440918
1771156,0.6328352689743042,1.1741546392440796,-0.08254373073577881,0.6402480006217957,-1.0975680351257324,0.060975998640060425,41.10000228881836,-170.10000610351562,-23.100000381469727
1771176,0.5502915382385254,0.011364716105163097,0.04605700820684433,-0.3277460038661957,-0.4878079891204834,0.457319974899292,33.900001525878906,-179.70001220703125,-18.30000114440918
1771218,0.09988987445831299,-0.5855819582939148,0.2577996253967285,-1.7225719690322876,0.2439039945602417,3.1326420307159424,33.900001525878906,-184.5,-20.100000381469727
1771238,-0.20037789642810822,-0.6519758105278015,0.37563377618789673,-1.9740979671478271,0.46494197845458984,3.5442299842834473,31.500001907348633,-182.10000610351562,-22.5
1771258,-0.1782466024160385,0.22968690097332,0.20635932683944702,-1.653973937034607,0.7621999979019165,3.4832539558410645,26.700000762939453,-165.3000030517578,-17.100000381469727
1771278,0.705808699131012,2.6336236000061035,-0.29488447308540344,-0.3887220025062561,1.3567159175872803,4.771371841430664,24.30000114440918,-170.10000610351562,-15.90000057220459
1771299,4.366443634033203,11.084785461425781,-1.7399978637695312,0,4.169233798980713,15.061071395874023,7.500000476837158,-167.70001220703125,-22.5
1771319,6.507795333862305,14.704148292541504,-2.277728319168091,-1.6920839548110962,6.387235641479492,16.905595779418945,-6.900000095367432,-172.5,-25.500001907348633
1771341,9.859190940856934,19.376842498779297,-4.209132194519043,-1.707327961921692,3.0640439987182617,3.147886037826538,-21.30000114440918,-174.90000915527344,-18.900001525878906
1771361,6.763800621032715,14.004321098327637,-3.449490547180176,2.1036720275878906,-1.2271419763565063,-6.974129676818848,-18.900001525878906,-182.10000610351562,-28.500001907348633
1771401,11.471783638000488,19.54910659790039,-4.767199516296387,-1.3109840154647827,4.527467727661133,2.1570260524749756,-14.100000381469727,-174.90000915527344,-21.900001525878906
1771421,7.150200843811035,15.537960052490234,-4.162477016448975,1.3643379211425781,-1.9664759635925293,-9.436036109924316,-11.700000762939453,-165.3000030517578,-25.500001907348633
1771444,4.627233982086182,10.642159461975098,-2.682671308517456,2.888737916946411,-2.5609920024871826,-10.861350059509277,9.90000057220459,-174.90000915527344,-22.5
1771464,2.9135544300079346,7.392448902130127,-2.4452085494995117,1.4329359531402588,-1.8597679138183594,-9.718050003051758,7.500000476837158,-179.70001220703125,-17.100000381469727
1771484,1.3817102909088135,4.97475528717041,-1.5049277544021606,1.021347999572754,-2.4771499633789062,-7.522913932800293,2.700000047683716,-160.5,-18.900001525878906
1771504,1.1412568092346191,3.7276270389556885,-0.727940022945404,0.36585599184036255,-1.9512319564819336,-4.329296112060547,17.100000381469727,-172.5,-21.30000114440918
1771525,1.6706132888793945,3.770693302154541,-0.6782941222190857,-0.6631140112876892,0.7774440050125122,-0.914639949798584,14.700000762939453,-179.70001220703125,-21.30000114440918
1771545,2.27473783493042,4.841967582702637,-1.1879119873046875,-1.067080020904541,1.7225719690322876,0,29.100000381469727,-182.10000610351562,-17.700000762939453
1771565,2.334552049636841,5.077635765075684,-1.423580288887024,-1.1051899194717407,1.7454379796981812,-0.6936019659042358,26.700000762939453,-182.10000610351562,-21.30000114440918
1771585,2.7400929927825928,5.484373092651367,-1.845271110534668,-0.8841519951820374,1.3643379211425781,-0.8612859845161438,21.900001525878906,-174.90000915527344,-26.100000381469727
1771605,3.0744547843933105,5.477793216705322,-1.9690866470336914,-0.46494197845458984,0.38109999895095825,-1.0365920066833496,19.5,-167.70001220703125,-13.500000953674316
1771625,3.8257224559783936,6.492243766784668,-1.7543532848358154,0.3887220025062561,-0.3277460038661957,0.48018598556518555,21.900001525878906,-184.5,-28.500001907348633
1771647,5.425755023956299,9.51824951171875,-2.2496156692504883,-0.26677000522613525,1.806414008140564,3.3841679096221924,17.100000381469727,-177.3000030517578,-22.5
1771667,6.053206920623779,10.897566795349121,-2.9159469604492188,-0.33536797761917114,2.9802019596099854,4.992409706115723,24.30000114440918,-167.70001220703125,-12.90000057220459
1771689,6.8008856773376465,12.647134780883789,-3.6319241523742676,-1.8140360116958618,1.0747020244598389,1.2118979692459106,5.100000381469727,-177.3000030517578,-21.900001525878906
1771709,5.359959125518799,10.50219440460205,-3.470425605773926,-1.3795819282531738,-0.015243999660015106,-1.7149499654769897,17.100000381469727,-170.10000610351562,-27.900001525878906
1771729,4.789330959320068,9.77305793762207,-3.561941385269165,-0.9984819889068604,-0.5182960033416748,-1.9893419742584229,21.900001525878906,-172.5,-30.900001525878906
1771751,3.9932024478912354,8.601295471191406,-3.308926820755005,-0.510673999786377,-1.7987920045852661,-3.5213639736175537,19.5,-170.10000610351562,-23.100000381469727
1771812,2.6551566123962402,5.623142242431641,-2.1987736225128174,0.7317119836807251,-3.193617820739746,-2.5076379776000977,19.5,-172.5,-18.30000114440918
1771875,4.603906631469727,10.093064308166504,-2.0079660415649414,-1.3567159175872803,-2.324709892272949,1.8521459102630615,26.700000762939453,-172.5,-13.500000953674316
1771895,4.609289646148682,10.533297538757324,-2.2729432582855225,-0.9298839569091797,-0.739333987236023,1.6920839548110962,26.700000762939453,-179.70001220703125,-20.100000381469727
1771935,3.3155064582824707,8.989490509033203,-1.732222080230713,-2.5152599811553955,-1.2881180047988892,-1.5472660064697266,24.30000114440918,-172.5,-11.700000762939453
1771998,1.21303391456604,9.88072395324707,-1.4122155904769897,-1.981719970703125,-1.2195199728012085,-2.987823963165283,24.30000114440918,-184.5,-26.700000762939453
1772018,0.805698573589325,9.072632789611816,-1.23695969581604,-0.800309956073761,-1.8140360116958618,-2.583858013153076,19.5,-167.70001220703125,-24.30000114440918
1772038,0.5311509370803833,9.43630313873291,-0.9959080219268799,-1.2195199728012085,-1.3033620119094849,-1.6844619512557983,31.500001907348633,-170.10000610351562,-20.100000381469727
1772058,-0.1369747370481491,9.291552543640137,-1.4451134204864502,-1.4329359531402588,-0.5182960033416748,-1.981719970703125,31.500001907348633,-186.90000915527344,-26.100000381469727
1772122,0.33914706110954285,9.86577033996582,-1.6532671451568604,0.22103799879550934,-1.8673899173736572,-0.10670799762010574,29.100000381469727,-184.5,-19.5
1772198,1.4475059509277344,9.470995903015137,-1.4833946228027344,0.8079319596290588,-1.7987920045852661,-0.08384199440479279,17.100000381469727,-172.5,-17.700000762939453
1772233,1.6107990741729736,9.2879638671875,-1.7011185884475708,0.5868939757347107,-0.9375059604644775,0,21.900001525878906,-170.10000610351562,-22.5
1772297,1.9517405033111572,8.64555835723877,-1.6203693151474,-0.4192099869251251,0,-1.0823240280151367,24.30000114440918,-174.90000915527344,-21.900001525878906
1772356,2.295672655105591,8.736475944519043,-1.6090046167373657,-0.23628199100494385,0.5182960033416748,-0.967993974685669,33.900001525878906,-172.5,-23.700000762939453
1772376,2.420684576034546,8.973938941955566,-1.6855669021606445,0.08384199440479279,0.5792719721794128,-1.1280559301376343,33.900001525878906,-177.3000030517578,-18.900001525878906
1772416,2.432647466659546,9.04691219329834,-1.85543954372406,0.800309956073761,0.6707359552383423,-1.9512319564819336,38.70000076293945,-182.10000610351562,-19.5
1772439,2.4643490314483643,9.147998809814453,-1.9876290559768677,0.9603719711303711,0.8155539631843567,-2.3628199100494385,41.10000228881836,-174.90000915527344,-19.5
1772459,2.1832218170166016,8.50020980834961,-2.0588080883026123,0.914639949798584,1.14329993724823,-2.8811159133911133,33.900001525878906,-174.90000915527344,-23.700000762939453
1772522,2.850151300430298,9.57985782623291,-2.8991990089416504,0.7164679765701294,1.5167779922485352,-2.278977870941162,43.5,-160.5,-25.500001907348633
1772542,2.9554243087768555,9.420153617858887,-3.1994667053222656,0.41158798336982727,1.600619912147522,-2.583858013153076,60.30000305175781,-170.10000610351562,-16.5
1772562,3.472219944000244,9.731785774230957,-3.546389579772949,0.4192099869251251,1.371959924697876,-2.446661949157715,50.70000076293945,-174.90000915527344,-17.700000762939453
1772606,3.4153964519500732,8.481667518615723,-3.362759828567505,0.9375059604644775,-0.228659987449646,-2.2180018424987793,67.5,-167.70001220703125,-14.700000762939453
1772626,3.3424229621887207,8.804664611816406,-3.1731483936309814,0.5868939757347107,-0.030487999320030212,-1.8369019031524658,55.500003814697266,-174.90000915527344,-15.300000190734863
1772646,3.0128462314605713,8.53310775756836,-3.255094051361084,0.114329993724823,0.25152599811553955,-2.3628199100494385,57.900001525878906,-177.3000030517578,-26.100000381469727
1772666,2.9518356323242188,8.3757963180542,-3.1707558631896973,0.35061198472976685,0.030487999320030212,-2.5686140060424805,62.70000076293945,-170.10000610351562,-15.90000057220459
1772686,2.9261155128479004,8.30880355834961,-3.1462321281433105,0.41158798336982727,-0.09908600151538849,-2.6219680309295654,57.900001525878906,-160.5,-12.300000190734863
1772706,2.7263357639312744,7.928385257720947,-2.868095636367798,0.23628199100494385,-0.2134159952402115,-2.957335948944092,72.30000305175781,-162.90000915527344,-15.90000057220459
1772726,2.5564630031585693,7.740568161010742,-2.929704189300537,0.3201240003108978,0.06859800219535828,-2.6677000522613525,74.70000457763672,-167.70001220703125,-17.100000381469727
1772749,2.3417296409606934,7.831485748291016,-3.0923991203308105,0.6173819899559021,-0.05335399881005287,-2.278977870941162,74.70000457763672,-162.90000915527344,-15.300000190734863
1772769,2.4757137298583984,8.212503433227539,-3.002079486846924,1.295740008354187,-0.9222619533538818,-1.6920839548110962,67.5,-174.90000915527344,-20.700000762939453
1772792,2.6073052883148193,8.1963529586792,-2.890825033187866,0.9375059604644775,-1.2042759656906128,-1.3567159175872803,84.30000305175781,-158.10000610351562,-14.700000762939453
1772854,2.8304126262664795,7.821915626525879,-2.2215030193328857,-0.3734779953956604,-2.0045859813690186,-1.2500079870224,72.30000305175781,-148.5,-14.700000762939453
1772900,3.165372610092163,9.14560604095459,-2.4093198776245117,0.19054999947547913,-1.3186060190200806,0.015243999660015106,79.5,-165.3000030517578,-18.30000114440918
1772921,2.6306328773498535,9.032556533813477,-2.616875410079956,-0.5945159792900085,-1.2118979692459106,-1.8369019031524658,77.10000610351562,-158.10000610351562,-20.700000762939453
1772961,2.134174108505249,10.19534683227539,-2.694634199142456,1.1509219408035278,-2.2713558673858643,0.6173819899559021,74.70000457763672,-179.70001220703125,-18.30000114440918
1773004,0.7560527324676514,9.910032272338867,-3.552969217300415,0.030487999320030212,-0.8689079880714417,-1.1737879514694214,81.9000015258789,-167.70001220703125,-17.100000381469727
1773024,0.7835673093795776,9.94951057434082,-3.3938632011413574,0.7621999979019165,-2.187514066696167,-0.8307979702949524,101.10000610351562,-172.5,-12.90000057220459
1773087,-0.42169079184532166,10.3616304397583,-3.3795077800750732,1.0442140102386475,-1.8216580152511597,-1.1737879514694214,91.5,-162.90000915527344,-20.700000762939453
1773154,-1.740596055984497,8.50020980834961,-3.1964759826660156,0.08384199440479279,-0.06859800219535828,-2.6067240238189697,101.10000610351562,-167.70001220703125,-14.700000762939453
1773259,-1.552779197692871,8.052200317382812,-2.662334442138672,-0.457319974899292,-1.577754020690918,-2.446661949157715,101.10000610351562,-165.3000030517578,-18.900001525878906
1773279,-1.5031332969665527,8.141921997070312,-2.560051918029785,-0.7698220014572144,-1.600619912147522,-1.6311079263687134,117.9000015258789,-167.70001220703125,-19.5
1773319,-1.545601487159729,8.3458890914917,-2.423675298690796,-0.28201398253440857,-1.699705958366394,-1.3414719104766846,122.70000457763672,-172.5,-12.90000057220459
1773398,-0.8397927284240723,10.006932258605957,-3.0206220149993896,0.3201240003108978,0.4039659798145294,-1.3872039318084717,122.70000457763672,-155.70001220703125,-14.700000762939453
1773493,-0.45399051904678345,8.184988021850586,-3.1109416484832764,0.38109999895095825,2.2713558673858643,-1.2271419763565063,134.70001220703125,-153.3000030517578,-17.100000381469727
1773517,0.3116324841976166,9.784422874450684,-3.669607162475586,0.25152599811553955,3.3155698776245117,-0.5640279650688171,137.10000610351562,-150.90000915527344,-12.90000057220459
1773559,1.1137422323226929,9.784422874450684,-4.0135393142700195,0.510673999786377,2.0655620098114014,-0.685979962348938,129.90000915527344,-153.3000030517578,-20.100000381469727
1773623,1.035983681678772,8.74305534362793,-3.9208271503448486,0.030487999320030212,1.829279899597168,-0.5945159792900085,129.90000915527344,-143.70001220703125,-12.90000057220459
1774101,-2.0097603797912598,7.6323041915893555,-2.9972944259643555,-0.4878079891204834,-1.3490939140319824,-1.7606819868087769,132.3000030517578,-158.10000610351562,-11.700000762939453
1774157,-1.107162594795227,8.67845630645752,-2.7699999809265137,0.1600620001554489,0.15243999660015106,1.3872039318084717,120.30000305175781,-155.70001220703125,-14.100000381469727
1774177,-0.9325048923492432,9.866966247558594,-3.162381887435913,-0.28201398253440857,0.7164679765701294,0.571649968624115,134.70001220703125,-158.10000610351562,-9.90000057220459
1774219,-0.8583351373672485,8.836365699768066,-3.088212251663208,0.05335399881005287,0.26677000522613525,-0.18292799592018127,132.3000030517578,-158.10000610351562,-11.700000762939453
1774261,-0.9725804924964905,8.88481616973877,-3.299356698989868,-0.9298839569091797,1.0061039924621582,-0.2439039945602417,134.70001220703125,-150.90000915527344,-13.500000953674316
1774338,0.08912330120801926,9.74135684967041,-3.2885899543762207,-0.1600620001554489,1.478667974472046,0.9070180058479309,127.50000762939453,-155.70001220703125,-15.300000190734863
1774358,0.4815050959587097,10.684029579162598,-3.699514389038086,-0.35061198472976685,2.126538038253784,0.13719600439071655,129.90000915527344,-165.3000030517578,-11.100000381469727
1774400,-0.4545886516571045,9.174915313720703,-4.541699409484863,1.2576299905776978,0.6250039935112,-1.1051899194717407,139.5,-160.5,-15.90000057220459
1774440,-0.30684733390808105,9.275403022766113,-4.132569789886475,0.5945159792900085,-1.242385983467102,-0.3201240003108978,115.50000762939453,-148.5,-10.5
1774698,-0.48808467388153076,9.476977348327637,-3.9806413650512695,-0.9603719711303711,1.478667974472046,0.46494197845458984,132.3000030517578,-153.3000030517578,-14.700000762939453
1774717,-0.49944937229156494,9.10672664642334,-3.823928117752075,-0.8612859845161438,0.9527499675750732,0.6326259970664978,134.70001220703125,-160.5,-16.5
1774757,-0.22729432582855225,9.59780216217041,-3.4919586181640625,-1.2042759656906128,1.3109840154647827,1.471045970916748,132.3000030517578,-141.3000030517578,-14.100000381469727
1774819,-0.28351977467536926,8.80286979675293,-2.947648525238037,-1.1128119230270386,1.0899460315704346,-0.15243999660015106,127.50000762939453,-148.5,-12.90000057220459
1774861,-0.40673720836639404,8.75322437286377,-3.0026776790618896,-0.8231759667396545,0.5335400104522705,0.41158798336982727,134.70001220703125,-148.5,-14.700000762939453
1775000,0.04605700820684433,8.988892555236816,-3.299356698989868,0.228659987449646,0.02286599949002266,-0.19054999947547913,132.3000030517578,-160.5,-12.90000057220459
1775021,-0.032299719750881195,9.121082305908203,-3.338834047317505,0.030487999320030212,0.09146399796009064,-0.2743920087814331,117.9000015258789,-153.3000030517578,-14.100000381469727
1775061,-0.050842151045799255,8.813636779785156,-3.1737465858459473,-0.3887220025062561,0.16768398880958557,-0.2134159952402115,117.9000015258789,-150.90000915527344,-17.700000762939453
1775103,-0.10168430209159851,9.128259658813477,-3.410611152648926,-0.48018598556518555,0.5411620140075684,-0.09146399796009064,127.50000762939453,-160.5,-17.700000762939453
1775144,-0.1178341656923294,9.046314239501953,-3.2772252559661865,0.2743920087814331,-0.05335399881005287,-0.18292799592018127,125.10000610351562,-146.10000610351562,-17.100000381469727
1775199,-0.6729108691215515,8.75621509552002,-3.41898512840271,-0.3277460038661957,0.35061198472976685,-0.5487840175628662,132.3000030517578,-158.10000610351562,-12.90000057220459
1775234,-1.4391319751739502,8.54088306427002,-3.5637357234954834,-0.685979962348938,0.4420759975910187,-0.05335399881005287,132.3000030517578,-150.90000915527344,-11.100000381469727
1775296,-4.929296016693115,9.50508975982666,-4.939464569091797,-2.3628199100494385,2.294221878051758,-0.12195199728012085,117.9000015258789,-158.10000610351562,-15.90000057220459
1775316,-5.937765121459961,8.932068824768066,-5.052513599395752,-2.789651870727539,2.591480016708374,-0.9603719711303711,125.10000610351562,-148.5,-21.900001525878906
1775336,-7.497722148895264,8.61684799194336,-6.034664630889893,-0.9527499675750732,4.771371841430664,0.04573199898004532,125.10000610351562,-150.90000915527344,-18.30000114440918
1775379,-5.324668884277344,10.01410961151123,-4.704394340515137,-3.3155698776245117,-3.9481959342956543,-0.08384199440479279,129.90000915527344,-158.10000610351562,-20.100000381469727
1775475,-2.3794126510620117,4.919127941131592,-1.8739819526672363,0.44969800114631653,-4.8552141189575195,1.6615959405899048,122.70000457763672,-153.3000030517578,-17.700000762939453
1775495,-0.36905422806739807,5.4143900871276855,-0.8643165826797485,0,-3.803377866744995,3.620450019836426,129.90000915527344,-160.5,-21.30000114440918
1775539,3.070866107940674,5.722434043884277,-0.45937380194664,-4.161612033843994,0.7698220014572144,7.35522985458374,105.9000015258789,-165.3000030517578,-14.700000762939453
1775601,5.907259941101074,9.401013374328613,-1.2094451189041138,-3.1250200271606445,0.7317119836807251,8.711945533752441,81.9000015258789,-174.90000915527344,-17.100000381469727
1775621,6.8547186851501465,9.475780487060547,-1.0957978963851929,-1.5167779922485352,-0.19054999947547913,8.086941719055176,72.30000305175781,-170.10000610351562,-21.30000114440918
1775661,7.37390661239624,10.5530366897583,-2.211334466934204,-0.3048799932003021,-0.030487999320030212,6.303393840789795,57.900001525878906,-170.10000610351562,-20.100000381469727
1775705,8.222073554992676,10.801863670349121,-2.164081335067749,0.7469559907913208,-1.875011920928955,4.184477806091309,41.10000228881836,-167.70001220703125,-20.100000381469727
1775917,6.149507999420166,9.86277961730957,-2.5379207134246826,0.9375059604644775,-0.510673999786377,-2.7058098316192627,43.5,-177.3000030517578,-20.100000381469727
1776078,0.1351803094148636,5.538205623626709,-1.5761067867279053,0.05335399881005287,1.6615959405899048,-5.121984004974365,93.9000015258789,-162.90000915527344,-17.700000762939453
1776098,-1.2034636735916138,5.2654523849487305,-1.7758865356445312,0.5030519962310791,2.2637338638305664,-3.6738038063049316,86.70000457763672,-160.5,-18.30000114440918
1776140,-2.4374325275421143,7.975638389587402,-3.093595504760742,1.1204339265823364,2.3475759029388428,-0.457319974899292,89.10000610351562,-162.90000915527344,-11.700000762939453
1776182,-3.311917543411255,8.1843900680542,-3.5840725898742676,0.8841519951820374,0.23628199100494385,-0.9298839569091797,108.30000305175781,-162.90000915527344,-21.900001525878906
1776281,-3.4297518730163574,9.985997200012207,-4.30543327331543,0.6402480006217957,-1.2347639799118042,-0.20579399168491364,108.30000305175781,-162.90000915527344,-22.5
1776318,-2.5893609523773193,10.161850929260254,-3.6923365592956543,-0.08384199440479279,-1.9969639778137207,-0.5335400104522705,98.70000457763672,-155.70001220703125,-14.700000762939453
1776338,-2.039069414138794,10.09186840057373,-3.564932107925415,-0.6554920077323914,-0.9908599853515625,-0.7774440050125122,105.9000015258789,-170.10000610351562,-20.100000381469727
1776380,-1.4983481168746948,9.347180366516113,-3.236551523208618,-0.4192099869251251,-0.8689079880714417,-1.371959924697876,105.9000015258789,-167.70001220703125,-14.100000381469727
1776401,-1.2764370441436768,8.93147087097168,-3.0295941829681396,-0.19054999947547913,-0.7012239694595337,-1.0594580173492432,110.70000457763672,-160.5,-17.700000762939453
1776442,-0.6980328559875488,8.917713165283203,-3.145035743713379,-0.6173819899559021,0.07621999830007553,0.22103799879550934,105.9000015258789,-165.3000030517578,-17.700000762939453
1776462,-0.32897862792015076,8.936256408691406,-3.1887001991271973,-0.3277460038661957,-0.2439039945602417,0.571649968624115,122.70000457763672,-160.5,-12.300000190734863
1776482,0.2488274723291397,9.344189643859863,-2.9829390048980713,-0.12195199728012085,-0.510673999786377,0.7926880121231079,89.10000610351562,-167.70001220703125,-18.900001525878906
1776502,0.5514878034591675,9.16654109954834,-3.037968158721924,-0.6783579587936401,0.060975998640060425,0.19817200303077698,120.30000305175781,-160.5,-18.30000114440918
1776566,0.9019995927810669,8.806459426879883,-2.893815755844116,-0.342989981174469,0.6250039935112,-0.17530599236488342,103.50000762939453,-165.3000030517578,-18.30000114440918
1776586,0.8206521272659302,8.899768829345703,-2.9637985229492188,-0.28201398253440857,0.6936019659042358,-0.2896359860897064,113.10000610351562,-167.70001220703125,-15.300000190734863
1776650,0.812278151512146,9.078614234924316,-2.9410688877105713,0.06859800219535828,0.44969800114631653,-0.2439039945602417,105.9000015258789,-158.10000610351562,-12.300000190734863
1776679,0.5813949704170227,9.137231826782227,-3.079240083694458,0.15243999660015106,-0.05335399881005287,-0.6402480006217957,103.50000762939453,-162.90000915527344,-17.100000381469727
1776719,0.4575793743133545,9.119287490844727,-2.939274549484253,0.342989981174469,-0.41158798336982727,-0.4725639820098877,113.10000610351562,-162.90000915527344,-17.700000762939453
1776741,0.3367545008659363,9.247888565063477,-3.0684733390808105,0,-0.114329993724823,-0.33536797761917114,108.30000305175781,-174.90000915527344,-17.700000762939453
1776762,0.2871086299419403,9.058277130126953,-3.1372599601745605,-0.038109999150037766,0.04573199898004532,-0.08384199440479279,105.9000015258789,-148.5,-16.5
1776802,0.33316564559936523,9.120484352111816,-3.094193696975708,-0.13719600439071655,0,0.1295740008354187,110.70000457763672,-160.5,-15.300000190734863
1776822,0.36606350541114807,8.840553283691406,-2.9919111728668213,-0.19817200303077698,-0.23628199100494385,0.09146399796009064,113.10000610351562,-167.70001220703125,-16.5
1776842,0.5335435271263123,8.870460510253906,-2.8866379261016846,-0.228659987449646,-0.3734779953956604,0.16768398880958557,105.9000015258789,-158.10000610351562,-14.700000762939453
1776882,0.5610581040382385,8.78492546081543,-2.8746750354766846,-0.15243999660015106,-0.4420759975910187,0.114329993724823,122.70000457763672,-167.70001220703125,-17.700000762939453
1776941,0.3678579330444336,8.75322437286377,-2.9165451526641846,-0.1600620001554489,-0.2439039945602417,-0.22103799879550934,115.50000762939453,-153.3000030517578,-13.500000953674316
1777060,0.15551717579364777,9.12467098236084,-3.1157267093658447,-0.02286599949002266,0.28201398253440857,-0.49542999267578125,110.70000457763672,-158.10000610351562,-17.700000762939453
1777155,0.12142302095890045,9.153980255126953,-3.087614059448242,-0.457319974899292,0.6936019659042358,-0.33536797761917114,110.70000457763672,-165.3000030517578,-17.100000381469727
1777179,0.10288058966398239,8.908143043518066,-2.951237440109253,-0.2591480016708374,0.5640279650688171,-0.09908600151538849,108.30000305175781,-153.3000030517578,-22.5
1777221,0.23746275901794434,9.12766170501709,-2.9739668369293213,0.038109999150037766,0.26677000522613525,0.28201398253440857,103.50000762939453,-160.5,-14.700000762939453
1777241,0.30086591839790344,9.159961700439453,-2.956620693206787,-0.060975998640060425,0.19054999947547913,0.16768398880958557,110.70000457763672,-160.5,-17.700000762939453
1777261,0.3403433561325073,9.100147247314453,-3.079240083694458,-0.20579399168491364,0.19054999947547913,0.09146399796009064,101.10000610351562,-160.5,-11.700000762939453
1777281,0.37324121594429016,8.933863639831543,-3.0158369541168213,-0.16768398880958557,0.02286599949002266,0.02286599949002266,113.10000610351562,-162.90000915527344,-14.700000762939453
1777341,0.4946642518043518,9.11569881439209,-3.084623336791992,-0.2972579896450043,0.15243999660015106,-0.09146399796009064,103.50000762939453,-165.3000030517578,-17.100000381469727
1777361,0.4043446481227875,8.703577995300293,-3.002079486846924,-0.49542999267578125,0.07621999830007553,-0.35061198472976685,105.9000015258789,-153.3000030517578,-17.100000381469727
1777381,0.2117426097393036,8.653334617614746,-2.9793500900268555,-0.3048799932003021,0.1448179930448532,-0.007621999830007553,113.10000610351562,-167.70001220703125,-14.100000381469727
1777401,-0.21413518488407135,8.803468704223633,-3.0929973125457764,-0.4192099869251251,0.3734779953956604,0.2896359860897064,108.30000305175781,-165.3000030517578,-13.500000953674316
1777461,-3.2987585067749023,9.369311332702637,-3.8998920917510986,-0.800309956073761,1.8902559280395508,1.2804960012435913,101.10000610351562,-160.5,-14.100000381469727
1777518,-4.996288299560547,9.97822093963623,-5.618955135345459,-2.1112940311431885,2.949713945388794,-1.2576299905776978,108.30000305175781,-167.70001220703125,-12.90000057220459
1777579,-4.573400974273682,9.421948432922363,-4.535717964172363,-3.346057891845703,0.800309956073761,4.46649169921875,96.30000305175781,-167.70001220703125,-11.100000381469727
1777600,-3.541604518890381,9.218579292297363,-4.063783168792725,-3.1250200271606445,-0.3887220025062561,4.123501777648926,91.5,-158.10000610351562,-18.30000114440918
1777620,-2.8118700981140137,8.123977661132812,-3.46384596824646,-3.163130044937134,-0.9832379817962646,2.1036720275878906,86.70000457763672,-170.10000610351562,-17.100000381469727
1777660,-1.0174411535263062,5.470017433166504,-1.5796955823898315,-1.6311079263687134,-2.8734939098358154,0.9070180058479309,96.30000305175781,-165.3000030517578,-26.100000381469727
1777695,0.714780867099762,6.056197643280029,-1.2537076473236084,-1.4558019638061523,-2.4009299278259277,2.9192259311676025,91.5,-165.3000030517578,-24.30000114440918
1777716,1.5330404043197632,5.4299421310424805,-1.027011513710022,-1.7454379796981812,-1.478667974472046,3.75002384185791,74.70000457763672,-177.3000030517578,-18.900001525878906
1777757,4.18879508972168,7.6891279220581055,-0.815268874168396,-1.9207439422607422,-0.2591480016708374,6.7835798263549805,74.70000457763672,-170.10000610351562,-22.5
1777799,5.544785499572754,8.490041732788086,-2.2813172340393066,-0.685979962348938,-0.6402480006217957,6.432967662811279,50.70000076293945,-165.3000030517578,-24.30000114440918
1777819,7.023394584655762,8.971546173095703,-1.0748629570007324,-1.5701320171356201,-2.8734939098358154,6.74547004699707,45.900001525878906,-172.5,-24.900001525878906
1777861,7.150200843811035,8.978724479675293,-1.3763269186019897,-1.8902559280395508,0.426831990480423,4.42838191986084,55.500003814697266,-170.10000610351562,-23.700000762939453
1777881,7.660417079925537,8.86089038848877,-1.4540855884552002,-0.8460419774055481,-0.07621999830007553,3.3384358882904053,41.10000228881836,-182.10000610351562,-18.900001525878906
1777902,8.010929107666016,8.86388111114502,-0.9618139266967773,-0.09908600151538849,0.114329993724823,3.246971845626831,41.10000228881836,-172.5,-24.30000114440918
1777942,7.459441184997559,9.830479621887207,-2.253204584121704,0.8689079880714417,2.957335948944092,2.431417942047119,29.100000381469727,-165.3000030517578,-12.90000057220459
1777983,7.661015033721924,10.541671752929688,-2.0306954383850098,-0.8841519951820374,2.2027578353881836,3.147886037826538,24.30000114440918,-182.10000610351562,-26.700000762939453
1778023,6.976141452789307,9.67735481262207,-2.196381092071533,-1.021347999572754,1.6387299299240112,0.228659987449646,5.100000381469727,-174.90000915527344,-29.700000762939453
1778239,3.8263206481933594,6.890008926391602,-1.2572965621948242,2.7286758422851562,0.1448179930448532,-6.2729058265686035,48.30000305175781,-174.90000915527344,-23.100000381469727
1778259,3.005070209503174,6.095077037811279,-1.2644742727279663,2.3704419136047363,-0.2134159952402115,-6.295772075653076,48.30000305175781,-177.3000030517578,-20.700000762939453
1778299,0.2607903480529785,5.8707733154296875,-1.8099806308746338,2.644834041595459,0.23628199100494385,-4.984787940979004,53.10000228881836,-167.70001220703125,-17.700000762939453
1778319,-1.1819305419921875,7.36493444442749,-2.753850221633911,2.0503180027008057,1.9512319564819336,-4.809482097625732,65.10000610351562,-170.10000610351562,-17.700000762939453
1778342,-1.523470163345337,8.09167766571045,-3.603213310241699,0.6707359552383423,0.7926880121231079,-6.067111968994141,79.5,-172.5,-14.700000762939453
1778366,-2.25978422164917,8.356057167053223,-3.2389442920684814,0.2896359860897064,0.3048799932003021,-5.518327713012695,81.9000015258789,-172.5,-16.5
1778387,-2.867497444152832,8.853114128112793,-3.540408134460449,-0.739333987236023,1.7378159761428833,-5.388753890991211,81.9000015258789,-167.70001220703125,-17.100000381469727
1778407,-3.1707558631896973,8.137137413024902,-3.6199612617492676,-0.9908599853515625,0.7926880121231079,-5.701255798339844,89.10000610351562,-160.5,-24.30000114440918
1778427,-3.44889235496521,7.669389247894287,-3.2861974239349365,0.030487999320030212,-0.685979962348938,-4.458869934082031,96.30000305175781,-165.3000030517578,-16.5
1778448,-3.469229221343994,8.238821029663086,-3.7072901725769043,0.23628199100494385,-0.007621999830007553,-2.9268479347229004,98.70000457763672,-172.5,-15.90000057220459
1778468,-3.273038387298584,9.140222549438477,-4.315003395080566,1.4481799602508545,-0.5030519962310791,-1.478667974472046,103.50000762939453,-165.3000030517578,-14.700000762939453
1778488,-2.396160840988159,9.956687927246094,-3.969874858856201,1.6920839548110962,-2.8658719062805176,-1.0061039924621582,98.70000457763672,-177.3000030517578,-14.100000381469727
1778508,-2.3112244606018066,9.772459983825684,-3.407620429992676,0.8612859845161438,-2.2637338638305664,-1.577754020690918,103.50000762939453,-150.90000915527344,-16.5
1778530,-2.2992615699768066,9.846031188964844,-4.120606899261475,1.3033620119094849,0.10670799762010574,-1.2652519941329956,108.30000305175781,-158.10000610351562,-20.700000762939453
1778550,-2.3830015659332275,9.896873474121094,-4.057801723480225,1.3262280225753784,-0.114329993724823,-1.4024479389190674,98.70000457763672,-165.3000030517578,-18.30000114440918
1778570,-2.3297669887542725,9.974632263183594,-4.222291469573975,1.3872039318084717,0.3277460038661957,-1.4634239673614502,105.9000015258789,-162.90000915527344,-12.300000190734863
1778592,-2.0289008617401123,9.27001953125,-3.955519437789917,1.3109840154647827,-0.7012239694595337,-1.3338500261306763,108.30000305175781,-153.3000030517578,-12.90000057220459
1778613,-1.4941611289978027,9.4075927734375,-3.6791775226593018,0.853663980960846,-0.8079319596290588,-0.8765299916267395,110.70000457763672,-160.5,-11.100000381469727
1778654,-0.9654027819633484,8.951210021972656,-3.5338287353515625,-0.17530599236488342,-0.5792719721794128,0.13719600439071655,105.9000015258789,-162.90000915527344,-15.90000057220459
1778674,-0.6717145442962646,9.162952423095703,-3.4351351261138916,-0.4192099869251251,-0.48018598556518555,0.4878079891204834,108.30000305175781,-167.70001220703125,-17.700000762939453
1778697,-0.2984733283519745,9.230542182922363,-3.3196935653686523,-0.6250039935112,-0.6707359552383423,0.3887220025062561,120.30000305175781,-153.3000030517578,-16.5
1778718,-0.013757288455963135,9.132447242736816,-3.0834269523620605,-0.5564059615135193,-0.7469559907913208,0.15243999660015106,115.50000762939453,-162.90000915527344,-12.300000190734863
1778738,0.16209673881530762,9.119287490844727,-2.885441780090332,-0.5640279650688171,-0.46494197845458984,-0.08384199440479279,101.10000610351562,-153.3000030517578,-14.700000762939453
1778758,0.3146232068538666,9.158764839172363,-2.894413948059082,-0.4039659798145294,-0.09146399796009064,-0.23628199100494385,101.10000610351562,-158.10000610351562,-11.700000762939453
1778780,0.36307278275489807,8.94941520690918,-2.8064868450164795,-0.2896359860897064,0.2896359860897064,-0.3734779953956604,105.9000015258789,-167.70001220703125,-15.90000057220459
1778800,0.1752558946609497,8.48226547241211,-2.8896286487579346,-0.4039659798145294,0.4878079891204834,-0.49542999267578125,122.70000457763672,-158.10000610351562,-12.90000057220459
1778822,0.3313712179660797,8.79688835144043,-2.9524338245391846,0.1448179930448532,0.05335399881005287,0.3201240003108978,115.50000762939453,-162.90000915527344,-18.900001525878906
1778842,0.34632477164268494,8.815430641174316,-2.9075729846954346,-0.1600620001554489,0.228659987449646,0.38109999895095825,120.30000305175781,-160.5,-21.900001525878906
1778862,0.37144678831100464,8.997864723205566,-3.0068647861480713,-0.08384199440479279,0.28201398253440857,0.36585599184036255,108.30000305175781,-177.3000030517578,-15.90000057220459
1778884,0.5933578014373779,9.351366996765137,-3.124100685119629,-0.09908600151538849,0.41158798336982727,0.007621999830007553,93.9000015258789,-155.70001220703125,-16.5
1778904,0.5449082255363464,9.173120498657227,-2.897404670715332,-0.4420759975910187,0.05335399881005287,-0.3201240003108978,113.10000610351562,-158.10000610351562,-15.300000190734863
1778927,0.517991840839386,9.399816513061523,-3.1163249015808105,-0.5945159792900085,0.28201398253440857,-0.38109999895095825,101.10000610351562,-162.90000915527344,-13.500000953674316
1778948,0.5257676839828491,8.924293518066406,-2.918339490890503,-0.7164679765701294,-0.4344539940357208,-0.7240899801254272,115.50000762939453,-146.10000610351562,-25.500001907348633
1778971,0.7775858640670776,9.004444122314453,-2.6892507076263428,-0.5335400104522705,-0.6402480006217957,-0.2972579896450043,98.70000457763672,-160.5,-17.700000762939453
1778991,0.6669294238090515,8.930872917175293,-2.7137746810913086,-0.6097599864006042,-0.2591480016708374,-0.3734779953956604,120.30000305175781,-160.5,-19.5
1779011,0.515001118183136,8.57198715209961,-2.842973470687866,-0.19817200303077698,-0.09908600151538849,-0.571649968624115,120.30000305175781,-150.90000915527344,-21.30000114440918
1779032,0.6788922548294067,8.80107593536377,-2.8752732276916504,0.6097599864006042,-0.2743920087814331,-0.05335399881005287,110.70000457763672,-162.90000915527344,-11.700000762939453
1779052,0.8613258600234985,9.221570014953613,-2.852543830871582,0.36585599184036255,0.2134159952402115,0.1448179930448532,122.70000457763672,-155.70001220703125,-16.5
1779076,0.9498510360717773,9.418957710266113,-2.9913129806518555,-0.22103799879550934,0.7850660085678101,0.1448179930448532,101.10000610351562,-165.3000030517578,-13.500000953674316
1779096,0.9510473012924194,9.76707649230957,-3.1546061038970947,-0.8765299916267395,1.196653962135315,-0.114329993724823,103.50000762939453,-158.10000610351562,-14.700000762939453
1779116,0.7315288782119751,9.24609375,-3.016434907913208,-1.3490939140319824,1.3109840154647827,-1.295740008354187,113.10000610351562,-165.3000030517578,-15.300000190734863
1779138,0.47731807827949524,8.606081008911133,-3.096586227416992,-1.1051899194717407,0.9756159782409668,-0.7774440050125122,125.10000610351562,-158.10000610351562,-15.300000190734863
1779158,0.4617663621902466,9.00205135345459,-2.847160577774048,-1.1356779336929321,0.48018598556518555,-0.09908600151538849,115.50000762939453,-155.70001220703125,-21.30000114440918
1779199,0.22908875346183777,9.234729766845703,-2.7353076934814453,-0.853663980960846,0.030487999320030212,-0.3277460038661957,125.10000610351562,-158.10000610351562,-19.5
1779222,0.09211401641368866,8.72630786895752,-2.796318292617798,-0.7774440050125122,0.030487999320030212,-0.8917739987373352,120.30000305175781,-160.5,-19.5
1779242,0.18602246046066284,8.738868713378906,-2.7191579341888428,0.060975998640060425,-0.8307979702949524,-0.07621999830007553,125.10000610351562,-160.5,-18.900001525878906
1779262,0.39238178730010986,8.897974967956543,-2.4930598735809326,0.3887220025062561,-0.6326259970664978,0.08384199440479279,120.30000305175781,-155.70001220703125,-13.500000953674316
1779282,0.40554094314575195,9.155774116516113,-2.5558648109436035,0.426831990480423,-0.4192099869251251,0.38109999895095825,125.10000610351562,-138.90000915527344,-14.100000381469727
1779303,0.17346146702766418,8.951807975769043,-2.4966487884521484,-0.06859800219535828,-0.1600620001554489,0.18292799592018127,110.70000457763672,-158.10000610351562,-19.5
1779323,0.14056359231472015,9.01820182800293,-2.6665213108062744,0.18292799592018127,-0.114329993724823,0.33536797761917114,108.30000305175781,-160.5,-14.700000762939453
1779385,0.026318291202187538,9.29813289642334,-2.9907147884368896,0.19054999947547913,-0.46494197845458984,-0.038109999150037766,103.50000762939453,-150.90000915527344,-20.100000381469727
1779405,0.11125459522008896,9.162952423095703,-3.007462978363037,0.09908600151538849,-0.6936019659042358,-0.1295740008354187,108.30000305175781,-158.10000610351562,-14.700000762939453
1779428,0.13159145414829254,9.120484352111816,-3.1528115272521973,0.15243999660015106,-0.9222619533538818,0.19817200303077698,120.30000305175781,-155.70001220703125,-18.900001525878906
1779448,0.2811271846294403,9.266430854797363,-2.9667892456054688,0.07621999830007553,-1.295740008354187,0.38109999895095825,113.10000610351562,-158.10000610351562,-12.300000190734863
1779528,0.4492053687572479,8.876441955566406,-2.7586352825164795,-0.114329993724823,0.060975998640060425,-0.060975998640060425,105.9000015258789,-160.5,-21.900001525878906
1779553,0.41690564155578613,9.072632789611816,-2.7592334747314453,0.06859800219535828,0.3048799932003021,-0.3201240003108978,105.9000015258789,-162.90000915527344,-14.700000762939453
1779573,0.2338739037513733,8.833374977111816,-2.7981128692626953,0.02286599949002266,0.4878079891204834,-0.5792719721794128,110.70000457763672,-162.90000915527344,-8.100000381469727
1779613,-0.2972770631313324,8.694007873535156,-2.851945638656616,-0.23628199100494385,0.5945159792900085,-0.1600620001554489,120.30000305175781,-160.5,-18.900001525878906
1779633,-1.140060544013977,9.25327205657959,-2.8902268409729004,0,0.6478700041770935,0.6250039935112,120.30000305175781,-155.70001220703125,-16.5
1779653,-2.352496385574341,10.882015228271484,-2.9488449096679688,-0.5259180068969727,1.478667974472046,1.1509219408035278,96.30000305175781,-160.5,-22.5
1779673,-4.439417362213135,10.998054504394531,-3.3938632011413574,-2.888737916946411,3.3917899131774902,-0.685979962348938,120.30000305175781,-167.70001220703125,-19.5
1779693,-6.037655353546143,9.393237113952637,-3.5308380126953125,-3.5366079807281494,5.282045841217041,-2.8277618885040283,113.10000610351562,-160.5,-21.30000114440918
1779734,-6.529926776885986,9.462621688842773,-5.721237659454346,-1.0823240280151367,0.5868939757347107,2.1189160346984863,115.50000762939453,-150.90000915527344,-20.100000381469727
1779754,-5.386277675628662,9.724010467529297,-5.729013442993164,-1.524399995803833,0.02286599949002266,3.620450019836426,105.9000015258789,-150.90000915527344,-13.500000953674316
1779775,-4.830004692077637,8.66649341583252,-5.392857074737549,-0.8307979702949524,-1.0823240280151367,3.1173980236053467,113.10000610351562,-170.10000610351562,-15.90000057220459
1779795,-3.6528592109680176,8.403310775756836,-4.559045791625977,-0.23628199100494385,-3.0106899738311768,2.385685920715332,101.10000610351562,-182.10000610351562,-21.30000114440918
1779815,-2.748466968536377,7.116704940795898,-3.6678125858306885,0.02286599949002266,-2.583858013153076,0.7088459730148315,103.50000762939453,-155.70001220703125,-13.500000953674316
1779835,-2.354290723800659,5.968270778656006,-3.096586227416992,0.07621999830007553,-1.6082419157028198,0.3582339882850647,98.70000457763672,-162.90000915527344,-16.5
1779855,-1.5414143800735474,5.583066463470459,-2.9380781650543213,-0.28201398253440857,-0.8460419774055481,1.8978779315948486,96.30000305175781,-162.90000915527344,-21.900001525878906
1779879,-0.6023299694061279,4.92092227935791,-1.9732736349105835,-1.189031958580017,-1.2576299905776978,3.4680099487304688,101.10000610351562,-167.70001220703125,-20.100000381469727
1779920,2.1329777240753174,6.674079418182373,-1.0814424753189087,-3.346057891845703,-0.26677000522613525,8.071698188781738,91.5,-167.70001220703125,-12.90000057220459
1779941,4.367640018463135,7.541386604309082,-1.006076455116272,-2.8125178813934326,-0.2134159952402115,9.679940223693848,72.30000305175781,-170.10000610351562,-20.100000381469727
1779961,5.7720794677734375,9.447070121765137,-0.5257676839828491,-2.332331895828247,-0.35061198472976685,9.977197647094727,50.70000076293945,-174.90000915527344,-29.700000762939453
1779981,6.147115230560303,8.935657501220703,-0.8433815836906433,-3.696669816970825,1.981719970703125,8.147917747497559,57.900001525878906,-167.70001220703125,-19.5
1780024,7.538395881652832,9.125268936157227,-1.1944915056228638,-1.8978779315948486,2.492393970489502,7.263765811920166,48.30000305175781,-179.70001220703125,-16.5
1780044,6.3325395584106445,8.421853065490723,-2.020526885986328,-2.027451992034912,3.3689239025115967,5.472595691680908,31.500001907348633,-179.70001220703125,-20.700000762939453
1780064,6.751837730407715,8.866272926330566,-2.6096978187561035,-0.08384199440479279,1.425313949584961,3.96343994140625,29.100000381469727,-179.70001220703125,-22.5
1780084,8.47628402709961,10.37658405303955,-2.110248327255249,0.7545779943466187,-1.2271419763565063,4.184477806091309,12.300000190734863,-174.90000915527344,-17.700000762939453
1780104,7.884720802307129,10.253366470336914,-1.4821982383728027,-0.914639949798584,0.02286599949002266,3.056421995162964,21.900001525878906,-179.70001220703125,-17.100000381469727
1780128,6.945037841796875,8.73827075958252,-2.0695745944976807,-1.4405579566955566,0.9527499675750732,0.7469559907913208,9.90000057220459,-172.5,-19.5
1780148,7.936161041259766,9.515856742858887,-1.8979076147079468,0.8079319596290588,-0.16768398880958557,1.0975680351257324,17.100000381469727,-155.70001220703125,-16.5
1780168,8.463723182678223,10.43639850616455,-1.749568223953247,-0.5411620140075684,0.26677000522613525,1.3948259353637695,0.30000001192092896,-170.10000610351562,-21.900001525878906
1780191,7.598808288574219,9.826292991638184,-2.2161197662353516,-1.189031958580017,0.4725639820098877,0.8993960022926331,0.30000001192092896,-179.70001220703125,-20.100000381469727
1780212,7.425346851348877,9.50927734375,-1.7573440074920654,0,-0.7698220014572144,-1.0365920066833496,21.900001525878906,-172.5,-19.5
1780274,7.771073341369629,9.545165061950684,-1.007272720336914,-0.12195199728012085,0.038109999150037766,-3.2850818634033203,19.5,-167.70001220703125,-24.900001525878906
1780294,6.342708110809326,8.77296257019043,-1.1723601818084717,1.5167779922485352,-0.4192099869251251,-5.3582658767700195,21.900001525878906,-170.10000610351562,-24.30000114440918
1780317,7.658622741699219,9.757506370544434,-1.2764370441436768,2.385685920715332,-2.1646480560302734,-5.815586090087891,29.100000381469727,-158.10000610351562,-20.100000381469727
1780337,8.290860176086426,8.80406665802002,0.2165277600288391,1.8521459102630615,-2.4619059562683105,-6.493943691253662,43.5,-170.10000610351562,-19.5
1780359,6.066964149475098,7.3374199867248535,0.10527316480875015,0.7469559907913208,0.7621999979019165,-4.794238090515137,45.900001525878906,-170.10000610351562,-21.900001525878906
1780379,5.650058269500732,8.91950798034668,-1.1897063255310059,1.4100699424743652,1.5320219993591309,-4.169233798980713,45.900001525878906,-179.70001220703125,-19.5
1780399,5.177525520324707,7.5013108253479,-0.8260354399681091,1.4481799602508545,0.6173819899559021,-6.920775890350342,48.30000305175781,-170.10000610351562,-18.30000114440918
1780422,3.7330102920532227,5.684751033782959,-0.5377305150032043,1.524399995803833,0.5411620140075684,-6.775958061218262,45.900001525878906,-170.10000610351562,-17.700000762939453
1780442,2.411712408065796,5.109935283660889,-0.8918311595916748,2.042695999145508,1.14329993724823,-5.4649739265441895,72.30000305175781,-167.70001220703125,-24.900001525878906
1780462,1.2949795722961426,5.220592021942139,-1.615584135055542,2.2180018424987793,1.8597679138183594,-4.817103862762451,79.5,-162.90000915527344,-15.300000190734863
1780482,-0.08194559067487717,5.871969699859619,-2.8028979301452637,2.797273874282837,3.2241058349609375,-4.634175777435303,69.9000015258789,-177.3000030517578,-17.700000762939453
1780502,-1.0258152484893799,6.91871976852417,-4.243824481964111,3.1402640342712402,3.094532012939453,-4.763750076293945,81.9000015258789,-174.90000915527344,-9.300000190734863
1780522,-1.538423776626587,6.92769193649292,-4.562036514282227,2.682943820953369,1.3567159175872803,-4.817103862762451,81.9000015258789,-165.3000030517578,-19.5
1780544,-1.9906197786331177,7.454655647277832,-4.8868279457092285,1.9588539600372314,1.4329359531402588,-3.96343994140625,91.5,-160.5,-17.100000381469727
1780564,-1.948151707649231,8.2800931930542,-5.279808044433594,1.6844619512557983,1.3414719104766846,-3.300325870513916,89.10000610351562,-153.3000030517578,-9.90000057220459
1780586,-2.47391939163208,8.810646057128906,-4.875463485717773,0.8765299916267395,0.16768398880958557,-3.4222779273986816,84.30000305175781,-165.3000030517578,-8.100000381469727
1780628,-3.189298391342163,9.292749404907227,-5.027989864349365,0.457319974899292,1.1509219408035278,-4.2988080978393555,93.9000015258789,-153.3000030517578,-15.300000190734863
1780648,-3.6893458366394043,8.97932243347168,-4.775573253631592,0.2972579896450043,0.5792719721794128,-4.359784126281738,101.10000610351562,-155.70001220703125,-14.700000762939453
1780668,-3.791030168533325,9.59182071685791,-4.9197258949279785,0.457319974899292,0.26677000522613525,-3.399411916732788,105.9000015258789,-143.70001220703125,-15.90000057220459
1780689,-3.231168270111084,9.76408576965332,-4.26954460144043,-0.09146399796009064,-1.3262280225753784,-2.736297845840454,105.9000015258789,-167.70001220703125,-12.300000190734863
1780709,-3.1486246585845947,9.035547256469727,-3.788039445877075,-0.9070180058479309,-0.5640279650688171,-2.782029867172241,110.70000457763672,-148.5,-15.90000057220459
1780770,-1.9822458028793335,9.14261531829834,-3.8323020935058594,-0.2972579896450043,-1.189031958580017,-1.7301939725875854,120.30000305175781,-158.10000610351562,-19.5
1780836,-0.7285381555557251,9.589427947998047,-3.422574043273926,-0.8155539631843567,-1.0365920066833496,-0.228659987449646,129.90000915527344,-153.3000030517578,-16.5
1781000,-0.18901318311691284,9.286767959594727,-2.909367322921753,-0.3201240003108978,-0.6554920077323914,-0.4344539940357208,132.3000030517578,-150.90000915527344,-15.90000057220459
1781020,-0.023327575996518135,9.162952423095703,-2.8417773246765137,-0.571649968624115,-0.5792719721794128,-0.4039659798145294,120.30000305175781,-158.10000610351562,-15.90000057220459
1781060,-0.15133017301559448,8.83277702331543,-2.914750814437866,-0.48018598556518555,-0.3887220025062561,0.15243999660015106,113.10000610351562,-148.5,-20.700000762939453
1781080,0.10048802196979523,9.265832901000977,-2.890825033187866,-0.22103799879550934,-0.4039659798145294,0.2896359860897064,129.90000915527344,-155.70001220703125,-11.700000762939453
1781104,0.34094148874282837,9.549352645874023,-2.834599494934082,-0.23628199100494385,-0.13719600439071655,-0.030487999320030212,125.10000610351562,-146.10000610351562,-15.300000190734863
1781124,0.38340964913368225,9.078614234924316,-3.0026776790618896,-0.46494197845458984,0.4420759975910187,-0.571649968624115,132.3000030517578,-148.5,-17.700000762939453
1781144,0.3176139295101166,8.86866569519043,-2.947648525238037,-0.3125019967556,0.4192099869251251,-0.5640279650688171,127.50000762939453,-150.90000915527344,-9.300000190734863
1781164,0.02691643312573433,8.72331714630127,-3.2030556201934814,-0.44969800114631653,0.8460419774055481,-0.17530599236488342,115.50000762939453,-155.70001220703125,-18.30000114440918
1781184,0.08433815836906433,8.58095932006836,-3.3705356121063232,0.7317119836807251,0.6097599864006042,-0.060975998640060425,120.30000305175781,-162.90000915527344,-14.700000762939453
1781207,-0.39836323261260986,8.482863426208496,-3.1815223693847656,-0.038109999150037766,0.48018598556518555,0.3125019967556,132.3000030517578,-143.70001220703125,-13.500000953674316
1781227,0.1411617398262024,9.360937118530273,-3.4237704277038574,-0.3201240003108978,-0.2439039945602417,0.4878079891204834,129.90000915527344,-167.70001220703125,-18.900001525878906
1781247,-0.08493629842996597,7.943936824798584,-2.935685634613037,0.6250039935112,-1.1128119230270386,-0.967993974685669,125.10000610351562,-155.70001220703125,-14.700000762939453
1781267,0.8326150178909302,9.85560131072998,-3.145035743713379,-0.5259180068969727,-0.36585599184036255,2.4237959384918213,132.3000030517578,-158.10000610351562,-23.700000762939453
1781290,1.8051954507827759,10.924483299255371,-3.502725124359131,-0.02286599949002266,-0.6097599864006042,1.295740008354187,132.3000030517578,-155.70001220703125,-12.300000190734863
1781310,0.2799309194087982,7.268035411834717,-2.2932801246643066,-1.067080020904541,-0.9603719711303711,-1.0518360137939453,113.10000610351562,-153.3000030517578,-20.100000381469727
1781330,0.5754135251045227,7.37988805770874,-3.1133341789245605,0.510673999786377,0.8612859845161438,1.2195199728012085,115.50000762939453,-160.5,-15.300000190734863
1781350,0.7955301403999329,9.63847541809082,-2.939274549484253,1.0365920066833496,0.060975998640060425,0.9984819889068604,117.9000015258789,-167.70001220703125,-11.700000762939453
1781370,0.2751457691192627,8.932068824768066,-3.180924415588379,0.3125019967556,0.6783579587936401,-1.4481799602508545,134.70001220703125,-162.90000915527344,-9.90000057220459
1781390,0.1722651720046997,8.782533645629883,-3.260477304458618,0.46494197845458984,0.5792719721794128,-1.806414008140564,117.9000015258789,-155.70001220703125,-15.90000057220459
1781453,-0.48090696334838867,9.119885444641113,-3.1169230937957764,-0.5868939757347107,0.1295740008354187,-1.2881180047988892,110.70000457763672,-153.3000030517578,-11.700000762939453
1781553,-0.11364716291427612,9.17252254486084,-3.154007911682129,0.6250039935112,0.23628199100494385,0.28201398253440857,132.3000030517578,-141.3000030517578,-11.100000381469727
1781593,-0.22789247334003448,9.328039169311523,-3.269449472427368,0.914639949798584,-0.3048799932003021,-0.510673999786377,129.90000915527344,-155.70001220703125,-15.300000190734863
