time,sensor_accX[g],sensor_accY[g],sensor_accZ[g],sensor_gyroX[°/s],sensor_gyroY[°/s],sensor_gyroZ[°/s],sensor_magX[µT],sensor_magY[µT],sensor_magZ[µT]
1000009,1.22798752784729,8.995471954345703,-2.2759339809417725,0.07621999830007553,-0.25152599811553955,-0.228659987449646,81.9000015258789,-174.90000915527344,-19.5
1000029,1.2561002969741821,9.082202911376953,-2.301654100418091,0.13719600439071655,-0.3277460038661957,-0.007621999830007553,93.9000015258789,-170.10000610351562,-14.700000762939453
1000049,1.2549039125442505,8.861488342285156,-2.271148920059204,0.007621999830007553,-0.33536797761917114,0.038109999150037766,84.30000305175781,-172.5,-21.30000114440918
1000069,1.4014489650726318,9.220972061157227,-2.2998597621917725,0.015243999660015106,-0.342989981174469,0.26677000522613525,77.10000610351562,-165.3000030517578,-19.5
1000089,1.435543179512024,9.2640380859375,-2.4224791526794434,-0.3048799932003021,-0.41158798336982727,0.015243999660015106,86.70000457763672,-158.10000610351562,-16.5
1000109,1.4833946228027344,9.031360626220703,-2.41709566116333,-0.2972579896450043,-0.3582339882850647,0,93.9000015258789,-158.10000610351562,-15.300000190734863
1000129,1.3847010135650635,8.80586051940918,-2.4404232501983643,-0.3125019967556,-0.2134159952402115,-0.007621999830007553,79.5,-172.5,-20.700000762939453
1000149,1.5886677503585815,8.864479064941406,-2.474517583847046,-0.15243999660015106,-0.3048799932003021,-0.1295740008354187,86.70000457763672,-165.3000030517578,-22.5
1000169,1.8117750883102417,8.81303882598877,-2.399749517440796,0.19817200303077698,-0.38109999895095825,-0.12195199728012085,79.5,-172.5,-18.30000114440918
1000189,1.7824660539627075,9.245495796203613,-2.4667415618896484,0.15243999660015106,-0.1295740008354187,0.19817200303077698,101.10000610351562,-158.10000610351562,-17.100000381469727
1000209,2.0133492946624756,9.290356636047363,-2.2843079566955566,-0.04573199898004532,-0.08384199440479279,-0.038109999150037766,91.5,-170.10000610351562,-23.100000381469727
1000230,1.845271110534668,8.90455436706543,-2.208343744277954,-0.6326259970664978,0.6326259970664978,-0.3887220025062561,81.9000015258789,-167.70001220703125,-15.300000190734863
1000250,1.5342366695404053,8.932068824768066,-2.888432502746582,-0.8155539631843567,1.5167779922485352,-0.33536797761917114,84.30000305175781,-170.10000610351562,-20.700000762939453
1000270,1.4816001653671265,8.992481231689453,-3.549380302429199,-0.17530599236488342,2.187514066696167,-0.06859800219535828,91.5,-162.90000915527344,-27.30000114440918
1000290,1.3332606554031372,8.911133766174316,-4.297059059143066,0.5792719721794128,2.7058098316192627,0.09908600151538849,91.5,-160.5,-18.900001525878906
1000313,2.115631580352783,9.52602481842041,-4.812060356140137,1.4405579566955566,1.9512319564819336,0.41158798336982727,84.30000305175781,-167.70001220703125,-19.5
1000333,2.667717695236206,9.436902046203613,-4.449585437774658,0.7317119836807251,2.324709892272949,-0.739333987236023,74.70000457763672,-172.5,-14.100000381469727
1000353,3.1246988773345947,8.351272583007812,-4.32636833190918,0.2896359860897064,4.054903984069824,-1.0594580173492432,84.30000305175781,-160.5,-17.100000381469727
1000394,3.136063575744629,6.651947975158691,-3.1827187538146973,0.19054999947547913,7.149435997009277,-2.03507399559021,89.10000610351562,-165.3000030517578,-18.30000114440918
1000416,3.996791362762451,6.043636798858643,-2.6964285373687744,1.935987949371338,6.554919719696045,-2.5686140060424805,91.5,-162.90000915527344,-14.700000762939453
1000437,4.931090831756592,5.987411022186279,-1.1155366897583008,0.7545779943466187,6.181441783905029,-2.9802019596099854,81.9000015258789,-174.90000915527344,-18.900001525878906
1000457,4.285694599151611,4.810863971710205,-0.8984107375144958,-0.457319974899292,9.443657875061035,-4.57319974899292,93.9000015258789,-153.3000030517578,-12.90000057220459
1000477,3.9453511238098145,4.200160026550293,-1.1693694591522217,0.3277460038661957,9.298839569091797,-5.129605770111084,81.9000015258789,-160.5,-18.30000114440918
1000501,3.7276270389556885,3.6857569217681885,-0.17286331951618195,0.1600620001554489,6.631139755249023,-6.044245719909668,98.70000457763672,-165.3000030517578,-17.100000381469727
1000521,3.0122480392456055,2.7221486568450928,0.708799421787262,-0.6326259970664978,6.836933612823486,-6.989373683929443,108.30000305175781,-158.10000610351562,-14.100000381469727
1000541,2.167072057723999,2.1766421794891357,0.4713366627693176,0.17530599236488342,7.9268798828125,-7.362851619720459,105.9000015258789,-160.5,-14.100000381469727
1000561,2.2585878372192383,2.9225265979766846,0.28591233491897583,1.4024479389190674,7.759195804595947,-6.5320539474487305,113.10000610351562,-148.5,-15.90000057220459
1000583,-0.6406111121177673,3.156998634338379,-0.5425156950950623,1.4558019638061523,7.78206205368042,-8.361333847045898,125.10000610351562,-155.70001220703125,-8.700000762939453
1000604,-1.6102008819580078,3.941164016723633,-1.2345670461654663,3.163130044937134,5.266801834106445,-6.539675712585449,132.3000030517578,-150.90000915527344,-14.700000762939453
1000625,-1.436739444732666,6.406111240386963,-0.5203843712806702,2.9802019596099854,2.4009299278259277,-4.634175777435303,129.90000915527344,-143.70001220703125,-18.30000114440918
1000645,-3.022416353225708,8.426039695739746,-0.5676376819610596,1.3795819282531738,2.3551979064941406,-4.832347869873047,127.50000762939453,-146.10000610351562,-14.100000381469727
1000665,-3.7988059520721436,8.924293518066406,-0.08015115559101105,0.6707359552383423,0.25152599811553955,-6.89028787612915,125.10000610351562,-150.90000915527344,-12.300000190734863
1000686,-3.2126259803771973,7.702885150909424,0.6723126769065857,0.23628199100494385,-0.426831990480423,-8.186027526855469,137.10000610351562,-148.5,-5.700000286102295
1000707,-3.859816551208496,7.442692756652832,-0.176452174782753,1.3414719104766846,0.457319974899292,-5.39637565612793,144.3000030517578,-150.90000915527344,-15.300000190734863
1000727,-3.997389554977417,10.770162582397461,-1.0485446453094482,1.6234859228134155,-0.4878079891204834,-2.4161739349365234,149.10000610351562,-129.3000030517578,-7.500000476837158
1000747,-3.69293475151062,10.995063781738281,-0.7345195412635803,1.7149499654769897,-3.460387945175171,-4.512223720550537,134.70001220703125,-136.5,-4.5
1000767,-5.142833232879639,8.97513484954834,-0.9875340461730957,1.7911700010299683,-3.7728898525238037,-4.733262062072754,156.3000030517578,-131.70001220703125,-9.300000190734863
1000787,-6.096272945404053,10.293442726135254,-1.7041093111038208,1.646351933479309,-5.297289848327637,-2.294221878051758,165.90000915527344,-136.5,-9.300000190734863
1000831,-5.670993328094482,11.778631210327148,-2.8040943145751953,0.18292799592018127,-8.025965690612793,-2.682943820953369,168.3000030517578,-141.3000030517578,-7.500000476837158
1000881,-3.368741273880005,15.271187782287598,-4.32038688659668,1.882633924484253,-12.690629959106445,4.268320083618164,168.3000030517578,-119.70000457763672,-10.5
1000926,-5.901278495788574,11.770855903625488,-5.928194999694824,2.4237959384918213,-6.730226039886475,1.3795819282531738,177.90000915527344,-134.10000610351562,-8.100000381469727
1000946,-3.970473051071167,12.592703819274902,-7.479777812957764,4.100636005401611,-11.1357421875,3.109776020050049,170.70001220703125,-141.3000030517578,-8.100000381469727
1000989,-5.428745746612549,12.671060562133789,-5.548374176025391,2.195136070251465,-11.646415710449219,1.2347639799118042,170.70001220703125,-138.90000915527344,-15.300000190734863
1001009,-4.86708927154541,12.224247932434082,-7.846439361572266,4.611310005187988,-8.559505462646484,2.7591638565063477,175.5,-126.9000015258789,-16.5
1001029,-3.213223934173584,12.855886459350586,-8.935059547424316,4.832347869873047,-13.414719581604004,4.53508996963501,168.3000030517578,-134.10000610351562,-14.700000762939453
1001049,-2.324383497238159,14.20888614654541,-6.962384223937988,3.3155698776245117,-16.2882137298584,6.417723655700684,156.3000030517578,-119.70000457763672,-15.300000190734863
1001073,-3.1785316467285156,14.94998550415039,-6.533515453338623,0.3887220025062561,-8.186027526855469,4.42838191986084,170.70001220703125,-131.70001220703125,-20.100000381469727
1001093,-3.9393696784973145,13.663379669189453,-7.824906349182129,0.20579399168491364,-4.397893905639648,2.5686140060424805,170.70001220703125,-146.10000610351562,-15.90000057220459
1001116,-3.71087908744812,12.784110069274902,-9.26523494720459,1.600619912147522,-4.603687763214111,2.987823963165283,165.90000915527344,-138.90000915527344,-17.700000762939453
1001136,-2.966191053390503,13.614930152893066,-7.921207427978516,-0.6478700041770935,-9.61134147644043,5.602169990539551,158.70001220703125,-136.5,-20.700000762939453
1001156,-2.504424571990967,14.23580265045166,-5.9006805419921875,-2.583858013153076,-8.186027526855469,5.686011791229248,151.5,-138.90000915527344,-13.500000953674316
1001176,-3.011051654815674,12.781717300415039,-6.596919059753418,-2.3170878887176514,-2.225623846054077,4.115880012512207,151.5,-138.90000915527344,-13.500000953674316
1001199,-2.6402029991149902,11.677545547485352,-7.809354782104492,-0.9298839569091797,-2.446661949157715,6.082355976104736,144.3000030517578,-150.90000915527344,-21.30000114440918
1001220,-1.5515828132629395,12.323539733886719,-6.002963066101074,-2.0960500240325928,-5.655523777008057,7.804927825927734,146.70001220703125,-143.70001220703125,-21.900001525878906
1001241,-1.0347872972488403,12.065141677856445,-4.74267578125,-2.789651870727539,-2.743919849395752,7.057971954345703,120.30000305175781,-143.70001220703125,-29.100000381469727
1001282,-1.0395724773406982,9.578063011169434,-6.157881736755371,-0.7240899801254272,1.3109840154647827,4.115880012512207,108.30000305175781,-150.90000915527344,-21.30000114440918
1001302,-0.33496007323265076,8.82081413269043,-5.893502712249756,-0.7088459730148315,-0.5335400104522705,5.952781677246094,108.30000305175781,-150.90000915527344,-14.700000762939453
1001325,0.21293890476226807,9.533203125,-4.862304210662842,-1.2804960012435913,-1.013725996017456,7.60675573348999,110.70000457763672,-162.90000915527344,-18.900001525878906
1001345,0.4815050959587097,9.512866020202637,-4.763012409210205,-1.242385983467102,0.8917739987373352,6.3719916343688965,115.50000762939453,-170.10000610351562,-22.5
1001365,0.8463723063468933,8.033060073852539,-4.548877239227295,-0.8841519951820374,0.6478700041770935,4.17685604095459,96.30000305175781,-162.90000915527344,-21.900001525878906
1001386,1.0276095867156982,6.760809898376465,-4.118214130401611,-0.6707359552383423,1.295740008354187,4.603687763214111,101.10000610351562,-158.10000610351562,-24.900001525878906
1001406,1.4588706493377686,7.18369722366333,-3.8945088386535645,-1.3338500261306763,2.7667858600616455,5.746987819671631,101.10000610351562,-162.90000915527344,-27.30000114440918
1001428,1.431954264640808,7.232146739959717,-3.6289334297180176,-1.2271419763565063,4.275941848754883,3.7805118560791016,77.10000610351562,-167.70001220703125,-23.100000381469727
1001448,1.3918787240982056,6.3917555809021,-3.7994041442871094,-0.6097599864006042,4.908567905426025,2.0045859813690186,84.30000305175781,-172.5,-30.900001525878906
1001468,1.833308219909668,5.943746566772461,-3.44291090965271,-0.1600620001554489,4.184477806091309,2.2103798389434814,91.5,-177.3000030517578,-20.700000762939453
1001488,1.8841503858566284,6.063375473022461,-2.700615406036377,-0.8993960022926331,4.245453834533691,2.644834041595459,69.9000015258789,-177.3000030517578,-27.900001525878906
1001508,1.8967113494873047,5.748752117156982,-2.4272642135620117,-1.3567159175872803,5.960403919219971,2.1570260524749756,74.70000457763672,-165.3000030517578,-15.90000057220459
1001528,1.9894235134124756,5.7631072998046875,-2.2914857864379883,-0.7469559907913208,6.509187698364258,1.6387299299240112,69.9000015258789,-177.3000030517578,-27.900001525878906
1001548,1.9050853252410889,5.618955135345459,-2.003180742263794,-0.426831990480423,6.753091812133789,0.44969800114631653,79.5,-167.70001220703125,-18.900001525878906
1001568,2.2460267543792725,5.709872722625732,-1.8859448432922363,0.35061198472976685,7.042727947235107,0.038109999150037766,62.70000076293945,-170.10000610351562,-19.5
1001589,2.723942995071411,6.650153636932373,-1.7890455722808838,0.3734779953956604,6.753091812133789,0.6402480006217957,74.70000457763672,-179.70001220703125,-21.30000114440918
1001609,2.5199763774871826,6.366633892059326,-1.5988361835479736,-0.914639949798584,6.875043869018555,-0.7012239694595337,72.30000305175781,-182.10000610351562,-20.100000381469727
1001629,2.1652774810791016,5.132664680480957,-1.3446253538131714,-0.7317119836807251,6.5320539474487305,-1.600619912147522,62.70000076293945,-160.5,-17.100000381469727
1001649,2.322589159011841,5.401230812072754,-1.0335910320281982,-0.800309956073761,6.6387619972229,-0.5868939757347107,60.30000305175781,-167.70001220703125,-20.700000762939453
1001672,2.46793794631958,6.474897861480713,-1.0437594652175903,-0.853663980960846,7.233277797698975,-0.4725639820098877,74.70000457763672,-172.5,-21.900001525878906
1001692,1.6622393131256104,5.835482597351074,-1.1747528314590454,-0.6631140112876892,6.6844940185546875,-2.4161739349365234,81.9000015258789,-170.10000610351562,-15.90000057220459
1001712,1.3302699327468872,5.422764301300049,-1.1765471696853638,-0.3201240003108978,6.234796047210693,-2.644834041595459,67.5,-179.70001220703125,-24.900001525878906
1001735,1.4451134204864502,5.786435127258301,-1.0910128355026245,0.6402480006217957,5.190581798553467,-1.2195199728012085,67.5,-179.70001220703125,-21.30000114440918
1001799,2.3853940963745117,8.345291137695312,0.08912330120801926,-0.007621999830007553,2.690565824508667,-0.510673999786377,60.30000305175781,-182.10000610351562,-22.5
1001849,2.1084539890289307,8.61385726928711,-0.7458842992782593,-0.6707359552383423,3.452765941619873,-0.8841519951820374,74.70000457763672,-172.5,-17.100000381469727
1001886,1.7872512340545654,9.96625804901123,-1.9325999021530151,0.1600620001554489,1.753059983253479,-0.6783579587936401,65.10000610351562,-167.70001220703125,-24.30000114440918
1001906,1.728633165359497,9.985398292541504,-2.205353021621704,-0.08384199440479279,0.6936019659042358,-1.295740008354187,79.5,-167.70001220703125,-19.5
1001946,1.4905723333358765,8.935059547424316,-2.2191104888916016,0.26677000522613525,-0.2134159952402115,-1.5320219993591309,77.10000610351562,-172.5,-15.90000057220459
1001986,0.9480566382408142,9.17850399017334,-2.6120903491973877,-0.08384199440479279,0.26677000522613525,-1.2271419763565063,81.9000015258789,-165.3000030517578,-17.100000381469727
1002127,0.8445778489112854,9.302319526672363,-2.3381409645080566,-0.114329993724823,-1.5091559886932373,-0.3201240003108978,79.5,-167.70001220703125,-21.900001525878906
1002147,1.107162594795227,9.162354469299316,-2.1066596508026123,-0.007621999830007553,-1.5548880100250244,-0.510673999786377,96.30000305175781,-182.10000610351562,-23.100000381469727
1002187,1.3123257160186768,9.3118896484375,-2.2729432582855225,0.13719600439071655,-0.7698220014572144,-0.12195199728012085,89.10000610351562,-177.3000030517578,-20.700000762939453
1002208,1.1759490966796875,9.082202911376953,-2.346514940261841,0.1295740008354187,-0.7012239694595337,-0.19817200303077698,81.9000015258789,-167.70001220703125,-18.900001525878906
1002228,1.137069821357727,9.134839057922363,-2.477508068084717,0.3582339882850647,-0.7545779943466187,0.08384199440479279,84.30000305175781,-158.10000610351562,-17.100000381469727
1002249,1.3260829448699951,9.17252254486084,-2.3477110862731934,0.4344539940357208,-0.6783579587936401,0.16768398880958557,81.9000015258789,-165.3000030517578,-20.700000762939453
1002269,1.21004319190979,9.02119255065918,-2.4571714401245117,0.15243999660015106,-0.33536797761917114,0.09146399796009064,81.9000015258789,-160.5,-21.900001525878906
1002289,1.1574066877365112,8.96137809753418,-2.566033363342285,0.007621999830007553,-0.1448179930448532,0.114329993724823,86.70000457763672,-165.3000030517578,-18.900001525878906
1002309,1.1562104225158691,9.28916072845459,-2.847160577774048,0.08384199440479279,0.04573199898004532,0.15243999660015106,79.5,-172.5,-27.900001525878906
1002330,1.335653305053711,9.3717041015625,-2.930302381515503,0.060975998640060425,-0.060975998640060425,-0.09908600151538849,67.5,-160.5,-18.30000114440918
1002350,1.439730167388916,9.478771209716797,-2.9889204502105713,0.038109999150037766,-0.342989981174469,-0.18292799592018127,79.5,-167.70001220703125,-18.900001525878906
1002393,1.528853416442871,8.955994606018066,-2.766411304473877,0.114329993724823,0.09908600151538849,0.12195199728012085,72.30000305175781,-165.3000030517578,-24.900001525878906
1002570,1.5479940176010132,9.183887481689453,-2.7137746810913086,-0.3201240003108978,0.48018598556518555,-0.2591480016708374,79.5,-165.3000030517578,-22.5
1002630,1.000095009803772,8.78014087677002,-2.8830490112304688,-0.16768398880958557,0.12195199728012085,-0.7012239694595337,77.10000610351562,-179.70001220703125,-16.5
1002670,1.2561002969741821,9.130054473876953,-2.7287282943725586,-0.06859800219535828,-0.5411620140075684,-0.15243999660015106,86.70000457763672,-160.5,-14.700000762939453
1002710,1.3446253538131714,8.900367736816406,-2.5983331203460693,-0.8689079880714417,0.07621999830007553,0.060975998640060425,74.70000457763672,-167.70001220703125,-19.5
1002750,1.4415245056152344,9.189868927001953,-2.6802785396575928,0.007621999830007553,-0.4420759975910187,0.3125019967556,77.10000610351562,-177.3000030517578,-14.700000762939453
1002809,1.315914511680603,8.978724479675293,-2.6940360069274902,-0.1600620001554489,-0.3048799932003021,-0.09908600151538849,86.70000457763672,-165.3000030517578,-16.5
1002928,1.2285857200622559,8.98111629486084,-2.6090996265411377,0.2439039945602417,-0.7012239694595337,0.007621999830007553,89.10000610351562,-165.3000030517578,-14.100000381469727
1003265,4.099671840667725,5.266050815582275,-1.9918160438537598,-0.2896359860897064,4.89332389831543,-6.669250011444092,108.30000305175781,-170.10000610351562,-20.100000381469727
1003285,3.932191848754883,5.5280375480651855,-1.2758389711380005,-0.06859800219535828,7.309497833251953,-6.379613876342773,122.70000457763672,-158.10000610351562,-14.700000762939453
1003327,2.7323172092437744,3.227579355239868,-0.22789247334003448,-0.6936019659042358,9.672317504882812,-7.50004768371582,110.70000457763672,-158.10000610351562,-12.90000057220459
1003347,2.2077457904815674,3.145035743713379,0.041271865367889404,-0.342989981174469,11.577817916870117,-6.836933612823486,120.30000305175781,-158.10000610351562,-12.90000057220459
1003367,1.6783891916275024,3.783254384994507,-0.6083114147186279,0.13719600439071655,12.60678768157959,-7.179924011230469,120.30000305175781,-148.5,-10.5
1003387,0.8110818862915039,2.867497444152832,-0.7698100209236145,1.1051899194717407,10.853727340698242,-8.620481491088867,134.70001220703125,-165.3000030517578,-11.700000762939453
1003407,-0.059216152876615524,2.4069273471832275,-0.32419347763061523,2.591480016708374,7.629621982574463,-7.561023712158203,134.70001220703125,-146.10000610351562,-6.900000095367432
1003450,-1.9977974891662598,4.071559429168701,0.7895486950874329,1.5472660064697266,2.9344699382781982,-5.426863670349121,144.3000030517578,-148.5,-5.700000286102295
1003515,-3.8651998043060303,8.254971504211426,-1.3302699327468872,0.5182960033416748,1.753059983253479,-2.888737916946411,149.10000610351562,-119.70000457763672,-11.700000762939453
1003535,-4.179224967956543,8.21130657196045,-0.5915634036064148,1.3338500261306763,-2.6067240238189697,-3.9481959342956543,165.90000915527344,-134.10000610351562,-7.500000476837158
1003557,-4.377808570861816,8.532509803771973,-0.4551868140697479,1.5548880100250244,-3.0716660022735596,-2.7591638565063477,165.90000915527344,-136.5,-8.100000381469727
1003577,-4.146327018737793,11.114692687988281,-1.8398877382278442,1.7454379796981812,-1.753059983253479,0.038109999150037766,165.90000915527344,-131.70001220703125,-6.900000095367432
1003597,-5.202049255371094,13.239296913146973,-2.1114447116851807,0.39634400606155396,-3.3384358882904053,-1.2347639799118042,151.5,-136.5,-9.300000190734863
1003617,-7.376298904418945,11.088972091674805,-3.1306803226470947,1.1356779336929321,-2.1722700595855713,-3.567095994949341,163.5,-122.10000610351562,-6.900000095367432
1003637,-4.946044445037842,13.411561965942383,-4.470520496368408,2.378063917160034,-5.099117755889893,1.0594580173492432,168.3000030517578,-136.5,-8.700000762939453
1003657,-5.526841163635254,14.38533878326416,-2.5654351711273193,-0.3201240003108978,-8.948227882385254,0.8384199738502502,175.5,-122.10000610351562,-6.900000095367432
1003721,-4.856322765350342,13.50786304473877,-4.130177021026611,1.2347639799118042,-7.6982197761535645,2.1722700595855713,180.3000030517578,-124.50000762939453,-6.900000095367432
1003748,-3.809572696685791,14.826767921447754,-4.451379776000977,1.6692179441452026,-9.756159782409668,3.353679895401001,158.70001220703125,-126.9000015258789,-5.700000286102295
1003768,-4.330554962158203,14.448143005371094,-3.290384531021118,0.19817200303077698,-9.275973320007324,2.278977870941162,173.10000610351562,-134.10000610351562,-11.700000762939453
1003808,-4.312610626220703,14.53068733215332,-7.342205047607422,2.5152599811553955,-7.515291690826416,5.114361763000488,163.5,-134.10000610351562,-12.300000190734863
1003848,-5.474802494049072,13.474367141723633,-5.127879619598389,-0.5640279650688171,-4.969543933868408,2.2027578353881836,158.70001220703125,-148.5,-12.90000057220459
1003868,-4.476501941680908,13.862561225891113,-8.171829223632812,0.9375059604644775,-3.506119966506958,5.007653713226318,165.90000915527344,-131.70001220703125,-18.900001525878906
1003888,-2.882451057434082,13.77762508392334,-7.753129005432129,-0.2591480016708374,-11.067143440246582,5.678390026092529,158.70001220703125,-126.9000015258789,-15.90000057220459
1003931,-3.4153964519500732,13.76267147064209,-6.440803527832031,0.6326259970664978,-3.2774598598480225,4.10825777053833,151.5,-146.10000610351562,-16.5
1003953,-2.7233450412750244,13.148977279663086,-8.768775939941406,1.935987949371338,-1.8521459102630615,4.2988080978393555,139.5,-146.10000610351562,-15.90000057220459
1003973,-1.743586778640747,12.782315254211426,-8.78014087677002,1.1737879514694214,-7.8506598472595215,5.518327713012695,146.70001220703125,-148.5,-17.100000381469727
1003993,-1.1472382545471191,13.850598335266113,-6.885223865509033,0.08384199440479279,-10.404029846191406,6.448211669921875,137.10000610351562,-148.5,-17.700000762939453
1004013,-1.0605075359344482,11.944914817810059,-7.291362762451172,-0.2743920087814331,-3.094532012939453,4.626554012298584,132.3000030517578,-158.10000610351562,-14.100000381469727
1004034,-0.20097604393959045,11.861175537109375,-8.394936561584473,0.7088459730148315,-1.653973937034607,5.922293663024902,137.10000610351562,-160.5,-21.900001525878906
1004054,-0.33615633845329285,11.590814590454102,-7.384673118591309,-0.5259180068969727,-3.704291820526123,5.602169990539551,132.3000030517578,-148.5,-20.700000762939453
1004077,0.06639386713504791,11.238508224487305,-6.529926776885986,-1.0442140102386475,-2.2713558673858643,5.731743812561035,120.30000305175781,-155.70001220703125,-19.5
1004097,0.3726430833339691,10.4154634475708,-6.49044942855835,-1.7606819868087769,0.08384199440479279,4.862835884094238,115.50000762939453,-155.70001220703125,-19.5
1004117,0.08493629842996597,8.78014087677002,-6.220686912536621,-1.3338500261306763,0.5792719721794128,4.336917877197266,113.10000610351562,-160.5,-18.30000114440918
1004158,1.1376678943634033,8.58395004272461,-5.3671369552612305,-1.1204339265823364,0.800309956073761,4.565577983856201,98.70000457763672,-160.5,-13.500000953674316
1004220,1.5103110074996948,7.038348197937012,-3.8293113708496094,-0.5640279650688171,3.8872199058532715,2.5609920024871826,98.70000457763672,-162.90000915527344,-23.700000762939453
1004241,1.402645230293274,6.232649803161621,-3.3609652519226074,-0.39634400606155396,3.902463912963867,0.7621999979019165,93.9000015258789,-162.90000915527344,-20.100000381469727
1004261,2.140753746032715,5.794809341430664,-2.825029134750366,-0.22103799879550934,3.871975898742676,0.9603719711303711,91.5,-172.5,-20.100000381469727
1004281,1.9469553232192993,5.611777305603027,-2.0546212196350098,-1.3186060190200806,4.2988080978393555,0.6936019659042358,89.10000610351562,-174.90000915527344,-12.90000057220459
1004301,1.5150961875915527,4.657141208648682,-1.949347972869873,-1.9207439422607422,6.150953769683838,-0.18292799592018127,86.70000457763672,-167.70001220703125,-16.5
1004324,1.9541330337524414,4.601513862609863,-2.136566638946533,-0.6021379828453064,6.516809940338135,0.6326259970664978,77.10000610351562,-165.3000030517578,-23.100000381469727
1004345,2.000190019607544,5.3605570793151855,-1.658650517463684,-0.1448179930448532,5.525949954986572,0.8765299916267395,81.9000015258789,-172.5,-21.900001525878906
1004406,2.0259101390838623,4.48667049407959,-0.7722025513648987,-1.2576299905776978,6.1738200187683105,-0.6402480006217957,79.5,-165.3000030517578,-21.900001525878906
1004468,2.295074462890625,5.729013442993164,-0.5341416597366333,-1.7454379796981812,6.303393840789795,-0.48018598556518555,89.10000610351562,-179.70001220703125,-20.100000381469727
1004488,2.25978422164917,6.639387130737305,-1.0174411535263062,-1.2804960012435913,5.922293663024902,-0.9527499675750732,81.9000015258789,-167.70001220703125,-13.500000953674316
1004528,1.9278148412704468,7.994180679321289,-0.3373526334762573,-0.3887220025062561,3.0106899738311768,-1.3033620119094849,81.9000015258789,-170.10000610351562,-22.5
1004548,1.314718246459961,8.273513793945312,-1.034189224243164,-0.967993974685669,2.987823963165283,-2.6600780487060547,84.30000305175781,-170.10000610351562,-23.700000762939453
1004572,1.009067177772522,7.512077808380127,-0.20097604393959045,0.02286599949002266,-0.1295740008354187,-2.3475759029388428,96.30000305175781,-177.3000030517578,-15.300000190734863
1004592,0.8511574268341064,9.07382869720459,-0.5760116577148438,0.23628199100494385,1.0823240280151367,-0.2439039945602417,84.30000305175781,-167.70001220703125,-20.700000762939453
1004652,0.1561153084039688,9.815526008605957,-1.658650517463684,0.114329993724823,0.18292799592018127,-0.7926880121231079,89.10000610351562,-170.10000610351562,-17.700000762939453
1004675,0.24224790930747986,9.97523021697998,-1.8177565336227417,0.17530599236488342,-0.3125019967556,-0.6707359552383423,93.9000015258789,-165.3000030517578,-24.900001525878906
1004699,0.2147333323955536,9.75631046295166,-1.8757764101028442,-0.05335399881005287,-0.7621999979019165,-0.4725639820098877,86.70000457763672,-174.90000915527344,-21.30000114440918
1004719,0.4300647974014282,9.83885383605957,-2.050434112548828,-0.2896359860897064,-0.8917739987373352,0.08384199440479279,101.10000610351562,-165.3000030517578,-17.100000381469727
1004739,0.6113021373748779,9.724608421325684,-2.2244937419891357,-0.38109999895095825,-0.9451279640197754,0.12195199728012085,86.70000457763672,-158.10000610351562,-21.900001525878906
1004759,0.6011337041854858,9.11569881439209,-2.295672655105591,-0.08384199440479279,-1.0365920066833496,0.05335399881005287,74.70000457763672,-160.5,-20.700000762939453
1004779,0.6968365907669067,8.665895462036133,-2.4338438510894775,0.426831990480423,-1.371959924697876,0.49542999267578125,89.10000610351562,-155.70001220703125,-20.700000762939453
1004802,1.3948694467544556,9.068445205688477,-2.1473333835601807,0.7317119836807251,-1.5015339851379395,1.707327961921692,91.5,-167.70001220703125,-20.100000381469727
1004823,1.2662686109542847,8.98829460144043,-2.3411316871643066,0.38109999895095825,-0.6783579587936401,1.3567159175872803,91.5,-160.5,-17.700000762939453
1004886,1.335653305053711,8.91651725769043,-2.8184497356414795,0.7012239694595337,-1.0365920066833496,0.4725639820098877,91.5,-167.70001220703125,-25.500001907348633
1004906,1.4020471572875977,8.852516174316406,-2.7610280513763428,-0.015243999660015106,-0.6173819899559021,0.7240899801254272,86.70000457763672,-165.3000030517578,-23.700000762939453
1004946,1.2303800582885742,9.07083797454834,-2.8603196144104004,-0.3887220025062561,-0.2896359860897064,0.07621999830007553,89.10000610351562,-170.10000610351562,-21.30000114440918
1004967,1.4181970357894897,9.47817325592041,-2.8752732276916504,0.030487999320030212,-0.2972579896450043,-0.10670799762010574,91.5,-167.70001220703125,-21.900001525878906
1004988,1.414009928703308,9.232934951782227,-2.5702202320098877,-0.33536797761917114,0.02286599949002266,-0.6554920077323914,84.30000305175781,-167.70001220703125,-20.700000762939453
1005008,1.323690414428711,9.161755561828613,-2.5953423976898193,-0.6097599864006042,0.5182960033416748,-0.6554920077323914,93.9000015258789,-172.5,-18.30000114440918
1005071,1.1520233154296875,8.899170875549316,-2.5767998695373535,0.04573199898004532,0.1448179930448532,-0.20579399168491364,98.70000457763672,-170.10000610351562,-14.100000381469727
1005111,1.2919888496398926,8.991883277893066,-2.6192681789398193,0.15243999660015106,-0.08384199440479279,0.2134159952402115,105.9000015258789,-170.10000610351562,-18.30000114440918
1005131,1.3374476432800293,9.560118675231934,-2.7891407012939453,0.2134159952402115,-0.007621999830007553,0.2591480016708374,86.70000457763672,-170.10000610351562,-17.700000762939453
1005155,1.2411466836929321,9.2939453125,-2.775383472442627,0.07621999830007553,-0.02286599949002266,-0.3887220025062561,77.10000610351562,-172.5,-9.90000057220459
1005197,1.2531095743179321,9.017603874206543,-2.5947442054748535,-0.19817200303077698,0.16768398880958557,-0.19054999947547913,91.5,-153.3000030517578,-14.700000762939453
1005247,1.0987886190414429,9.200634956359863,-2.5235652923583984,-0.13719600439071655,0.1295740008354187,-0.5182960033416748,72.30000305175781,-162.90000915527344,-21.900001525878906
1005289,1.1801360845565796,8.85490894317627,-2.315411329269409,-0.571649968624115,0.6936019659042358,-0.5640279650688171,74.70000457763672,-162.90000915527344,-17.100000381469727
1005309,1.0760592222213745,8.971546173095703,-2.40812349319458,-0.4878079891204834,0.7164679765701294,-0.6326259970664978,86.70000457763672,-165.3000030517578,-18.900001525878906
1005329,1.4917685985565186,9.65163516998291,-2.4254696369171143,0.09146399796009064,0.4344539940357208,-0.7621999979019165,86.70000457763672,-165.3000030517578,-16.5
1005369,1.20406174659729,8.881226539611816,-2.634819746017456,-0.5030519962310791,0.7469559907913208,-1.5625100135803223,74.70000457763672,-170.10000610351562,-18.30000114440918
1005391,1.3625696897506714,8.99427604675293,-3.013444185256958,0.1295740008354187,0.2896359860897064,-0.8155539631843567,81.9000015258789,-162.90000915527344,-15.90000057220459
1005431,1.423580288887024,7.8560099601745605,-3.1827187538146973,0.15243999660015106,-0.038109999150037766,-0.28201398253440857,89.10000610351562,-158.10000610351562,-12.90000057220459
1005475,2.4733211994171143,8.909937858581543,-2.9195358753204346,0.038109999150037766,-0.7545779943466187,0.2743920087814331,98.70000457763672,-170.10000610351562,-16.5
1005495,2.593547821044922,8.375197410583496,-2.641399383544922,-0.5792719721794128,-0.39634400606155396,-0.09146399796009064,93.9000015258789,-167.70001220703125,-9.90000057220459
1005555,2.459563970565796,10.353256225585938,-3.317301034927368,0.09908600151538849,-0.8612859845161438,-0.12195199728012085,91.5,-160.5,-22.5
1005575,1.6610430479049683,9.088184356689453,-2.8812546730041504,0.2591480016708374,-1.707327961921692,-1.0061039924621582,86.70000457763672,-167.70001220703125,-13.500000953674316
1005599,0.9737767577171326,10.170225143432617,-2.8860397338867188,0.7164679765701294,-1.8140360116958618,0.23628199100494385,91.5,-167.70001220703125,-20.100000381469727
1005619,0.9223364591598511,11.507672309875488,-2.712578296661377,0.09908600151538849,-2.126538038253784,-0.05335399881005287,103.50000762939453,-177.3000030517578,-12.300000190734863
1005639,0.45099979639053345,9.780235290527344,-2.2364566326141357,-0.6402480006217957,-1.2118979692459106,-1.707327961921692,98.70000457763672,-167.70001220703125,-16.5
1005661,-0.5281602144241333,8.109024047851562,-1.9936105012893677,-0.7698220014572144,-0.5945159792900085,-1.0594580173492432,96.30000305175781,-155.70001220703125,-18.30000114440918
1005721,-0.028710862621665,9.25506591796875,-2.0193307399749756,0.5030519962310791,0.16768398880958557,0.6173819899559021,101.10000610351562,-165.3000030517578,-17.700000762939453
1005741,-0.07775858789682388,9.081604957580566,-1.9325999021530151,-0.05335399881005287,0.6173819899559021,-0.5182960033416748,101.10000610351562,-184.5,-20.100000381469727
1005761,-0.2709587514400482,8.707167625427246,-1.9320018291473389,-0.44969800114631653,1.0747020244598389,-1.0594580173492432,108.30000305175781,-162.90000915527344,-18.900001525878906
1005824,-0.001196285942569375,9.598998069763184,-2.1718571186065674,-0.7469559907913208,1.707327961921692,-0.7774440050125122,86.70000457763672,-160.5,-17.100000381469727
1005844,0.14534874260425568,9.48415470123291,-2.6904470920562744,-1.3186060190200806,2.5076379776000977,-1.478667974472046,103.50000762939453,-167.70001220703125,-24.30000114440918
1005864,0.3427359163761139,9.505687713623047,-2.9673871994018555,-1.0594580173492432,2.28659987449646,-1.295740008354187,103.50000762939453,-170.10000610351562,-18.30000114440918
1005909,1.3254848718643188,9.579259872436523,-2.859123468399048,-1.5472660064697266,1.7759259939193726,-0.20579399168491364,105.9000015258789,-162.90000915527344,-14.700000762939453
1005970,0.9671971797943115,8.056387901306152,-2.838188409805298,-1.4634239673614502,2.0655620098114014,-0.6936019659042358,96.30000305175781,-158.10000610351562,-11.100000381469727
1005992,1.3553919792175293,8.77296257019043,-3.2646644115448,-0.5868939757347107,1.8597679138183594,0.3048799932003021,93.9000015258789,-160.5,-17.700000762939453
1006012,1.7549514770507812,10.227646827697754,-3.3579745292663574,0.36585599184036255,0.800309956073761,0.35061198472976685,96.30000305175781,-155.70001220703125,-21.30000114440918
1006032,1.3452235460281372,9.718626976013184,-3.299356698989868,0.2591480016708374,-0.030487999320030212,-0.7850660085678101,86.70000457763672,-167.70001220703125,-15.300000190734863
1006055,1.530647873878479,9.016407012939453,-2.932694911956787,0.739333987236023,-1.5015339851379395,-0.7698220014572144,89.10000610351562,-162.90000915527344,-23.700000762939453
1006075,1.5874714851379395,8.41347885131836,-2.7795703411102295,0.19817200303077698,-1.4939119815826416,-0.12195199728012085,86.70000457763672,-167.70001220703125,-15.90000057220459
1006095,1.833308219909668,9.290356636047363,-2.998490810394287,0.3734779953956604,-1.7225719690322876,1.1051899194717407,101.10000610351562,-174.90000915527344,-17.700000762939453
1006116,1.5880695581436157,8.942835807800293,-2.8920211791992188,0.20579399168491364,-1.6768399477005005,0.6936019659042358,98.70000457763672,-162.90000915527344,-13.500000953674316
1006136,1.6359210014343262,8.98231315612793,-2.6569511890411377,0.22103799879550934,-1.5472660064697266,0.4039659798145294,93.9000015258789,-162.90000915527344,-17.700000762939453
1006156,1.3685511350631714,8.53789234161377,-2.411712408065796,-0.3201240003108978,-0.8155539631843567,-0.33536797761917114,108.30000305175781,-162.90000915527344,-18.900001525878906
1006176,0.8368020057678223,7.864383697509766,-2.7137746810913086,-0.9908599853515625,0.2439039945602417,-0.7850660085678101,89.10000610351562,-170.10000610351562,-18.30000114440918
1006197,0.43365365266799927,7.444487571716309,-3.3101232051849365,-1.1509219408035278,1.1128119230270386,-0.7164679765701294,93.9000015258789,-162.90000915527344,-12.300000190734863
1006217,0.4755236506462097,7.7573161125183105,-4.183412075042725,-0.5792719721794128,1.8902559280395508,0.1600620001554489,91.5,-162.90000915527344,-15.90000057220459
1006260,2.7059988975524902,9.159961700439453,-6.094478607177734,0.8231759667396545,4.588443756103516,1.3033620119094849,103.50000762939453,-167.70001220703125,-17.700000762939453
1006280,3.904677391052246,10.34667682647705,-6.132760047912598,-0.4039659798145294,2.0198299884796143,1.829279899597168,93.9000015258789,-165.3000030517578,-16.5
1006300,4.128382682800293,8.987696647644043,-4.667309761047363,-1.2347639799118042,2.324709892272949,-0.49542999267578125,98.70000457763672,-160.5,-10.5
1006320,4.178627014160156,7.242315292358398,-4.518970012664795,-1.7759259939193726,5.678390026092529,-2.3475759029388428,86.70000457763672,-174.90000915527344,-22.5
1006340,4.89400577545166,7.550358772277832,-4.067970275878906,-0.25152599811553955,5.403997898101807,-3.0106899738311768,96.30000305175781,-177.3000030517578,-26.100000381469727
1006360,3.9369771480560303,6.6812567710876465,-2.396758794784546,-0.6173819899559021,5.14484977722168,-5.487839698791504,96.30000305175781,-158.10000610351562,-15.90000057220459
1006380,3.847853660583496,5.487363815307617,-1.2243986129760742,-0.2591480016708374,5.731743812561035,-7.317119598388672,105.9000015258789,-158.10000610351562,-17.100000381469727
1006402,3.022416353225708,3.773684024810791,1.120919942855835,-0.7469559907913208,5.9680256843566895,-9.214998245239258,113.10000610351562,-155.70001220703125,-15.90000057220459
1006422,1.7681106328964233,2.2765321731567383,1.4983481168746948,-0.3277460038661957,9.840002059936523,-10.358297348022461,120.30000305175781,-148.5,-11.100000381469727
1006442,1.3631678819656372,2.0229194164276123,0.9821507334709167,1.2271419763565063,9.78664779663086,-8.978715896606445,132.3000030517578,-162.90000915527344,-12.300000190734863
1006463,0.25361260771751404,1.7615309953689575,1.6891556978225708,1.699705958366394,7.644865989685059,-8.368955612182617,134.70001220703125,-136.5,-18.900001525878906
1006483,-0.3810170590877533,1.8542431592941284,1.9505442380905151,2.545747995376587,6.379613876342773,-7.21041202545166,139.5,-148.5,-11.700000762939453
1006503,0.11603973805904388,3.576894998550415,2.310626268386841,3.041177988052368,3.445143938064575,-5.129605770111084,139.5,-155.70001220703125,-10.5
1006526,-0.7716044187545776,4.072157382965088,3.1187174320220947,1.7378159761428833,3.2317278385162354,-5.434485912322998,144.3000030517578,-146.10000610351562,-8.700000762939453
1006567,-2.1778385639190674,7.482768535614014,-0.08254373073577881,4.085391998291016,-0.2743920087814331,-1.92836594581604,153.90000915527344,-126.9000015258789,-6.300000190734863
1006588,-3.4895660877227783,7.13883638381958,1.3775233030319214,1.7911700010299683,-3.0869100093841553,-4.359784126281738,156.3000030517578,-131.70001220703125,-8.100000381469727
1006608,-5.536411285400391,6.791315078735352,-0.3212027847766876,1.295740008354187,-0.7012239694595337,-4.054903984069824,168.3000030517578,-136.5,-9.300000190734863
1006629,-5.288780212402344,9.580455780029297,-2.497844934463501,3.3917899131774902,-0.739333987236023,0.35061198472976685,175.5,-136.5,-9.90000057220459
1006691,-5.0154290199279785,14.62220287322998,-3.989015579223633,2.03507399559021,-2.7058098316192627,0.685979962348938,158.70001220703125,-134.10000610351562,-5.100000381469727
1006712,-6.3325395584106445,13.97800350189209,-4.792919635772705,0.5487840175628662,-5.739366054534912,-3.3384358882904053,177.90000915527344,-131.70001220703125,-5.700000286102295
1006732,-6.592731952667236,11.267219543457031,-5.068065166473389,1.8978779315948486,-9.131155967712402,-1.295740008354187,170.70001220703125,-134.10000610351562,-13.500000953674316
1006752,-5.016624927520752,14.151464462280273,-2.9548263549804688,0.08384199440479279,-13.32325553894043,2.530503988265991,177.90000915527344,-124.50000762939453,-5.700000286102295
1006772,-6.991095066070557,12.519132614135742,-3.1217081546783447,-1.9054999351501465,-7.0884599685668945,-0.39634400606155396,185.10000610351562,-126.9000015258789,-13.500000953674316
1006812,-4.38199520111084,14.238195419311523,-4.312610626220703,-0.7164679765701294,-14.527531623840332,4.367405891418457,180.3000030517578,-126.9000015258789,-17.700000762939453
1006832,-4.082923889160156,13.595789909362793,-2.954228162765503,-0.9756159782409668,-10.952814102172852,2.5686140060424805,175.5,-131.70001220703125,-15.300000190734863
1006852,-6.788324356079102,10.813826560974121,-5.025597095489502,0.22103799879550934,-4.207344055175781,0.9070180058479309,165.90000915527344,-134.10000610351562,-18.30000114440918
1006872,-3.4985382556915283,13.202211380004883,-7.953506946563721,2.9802019596099854,-6.2729058265686035,6.471077919006348,170.70001220703125,-129.3000030517578,-14.700000762939453
1006892,-2.8806564807891846,14.17897891998291,-5.264256477355957,-0.342989981174469,-14.451312065124512,5.39637565612793,163.5,-138.90000915527344,-15.90000057220459
1006912,-3.3101232051849365,13.016189575195312,-4.527942180633545,0.8155539631843567,-7.972611904144287,3.9863059520721436,163.5,-136.5,-21.900001525878906
1006932,-4.124794006347656,13.164528846740723,-6.82002592086792,2.530503988265991,-2.8201398849487305,4.436003684997559,161.10000610351562,-138.90000915527344,-14.100000381469727
1006952,-3.2108314037323,14.088061332702637,-8.529519081115723,3.506119966506958,-3.1326420307159424,5.815586090087891,153.90000915527344,-129.3000030517578,-15.300000190734863
1006975,-2.2364566326141357,15.106101036071777,-8.299233436584473,2.14178204536438,-8.513773918151855,6.051867961883545,170.70001220703125,-138.90000915527344,-13.500000953674316
1006995,-2.5977349281311035,14.882993698120117,-7.089788436889648,1.2042759656906128,-8.254626274108887,5.14484977722168,158.70001220703125,-146.10000610351562,-11.700000762939453
1007016,-2.870488166809082,14.942808151245117,-8.149698257446289,1.2804960012435913,-4.153989791870117,5.335400104522705,149.10000610351562,-146.10000610351562,-26.700000762939453
1007036,-2.3865904808044434,14.184362411499023,-9.329236030578613,1.3414719104766846,-2.4009299278259277,4.778994083404541,137.10000610351562,-150.90000915527344,-16.5
1007056,-1.6849687099456787,13.61732292175293,-10.128355026245117,0.6250039935112,-6.775958061218262,5.6174139976501465,146.70001220703125,-148.5,-21.900001525878906
1007076,-1.3410365581512451,13.773438453674316,-7.665800094604492,-2.987823963165283,-12.233309745788574,6.7835798263549805,122.70000457763672,-138.90000915527344,-21.900001525878906
1007116,-0.6992291212081909,12.105815887451172,-6.631611347198486,-3.7881338596343994,-2.9192259311676025,5.449729919433594,137.10000610351562,-155.70001220703125,-19.5
1007136,-1.2363615036010742,10.789302825927734,-6.867279529571533,-3.2622158527374268,-3.2698378562927246,5.282045841217041,103.50000762939453,-158.10000610351562,-23.100000381469727
1007156,-0.509019672870636,10.590719223022461,-6.040047645568848,-2.698187828063965,-5.533571720123291,6.311016082763672,105.9000015258789,-150.90000915527344,-18.900001525878906
1007176,0.09151587635278702,10.6367769241333,-4.715160846710205,-3.7347798347473145,-6.059489727020264,6.585407733917236,103.50000762939453,-160.5,-28.500001907348633
1007196,0.36546534299850464,9.744945526123047,-4.19776725769043,-3.955817937850952,-2.9268479347229004,5.510705947875977,103.50000762939453,-155.70001220703125,-28.500001907348633
1007216,0.42288708686828613,8.96436882019043,-4.69482421875,-2.8811159133911133,-1.0442140102386475,4.489357948303223,96.30000305175781,-158.10000610351562,-30.30000114440918
1007236,0.47014036774635315,8.531312942504883,-5.11113166809082,-1.9054999351501465,-0.36585599184036255,5.846074104309082,89.10000610351562,-174.90000915527344,-22.5
1007298,1.8835521936416626,7.267436981201172,-3.3645541667938232,-1.1051899194717407,1.7454379796981812,2.75154185295105,91.5,-167.70001220703125,-32.70000076293945
1007348,2.504424571990967,6.2882771492004395,-2.1413519382476807,0.3887220025062561,3.902463912963867,-0.04573199898004532,79.5,-174.90000915527344,-23.700000762939453
1007368,2.0767524242401123,4.833593368530273,-1.9906197786331177,-0.342989981174469,7.172301769256592,-1.0975680351257324,67.5,-170.10000610351562,-29.700000762939453
1007388,1.906281590461731,4.130775451660156,-1.85543954372406,0.1295740008354187,7.766818046569824,-0.39634400606155396,77.10000610351562,-170.10000610351562,-23.700000762939453
1007408,1.6610430479049683,3.9034810066223145,-1.1759490966796875,-0.25152599811553955,8.117429733276367,-0.05335399881005287,72.30000305175781,-172.5,-23.100000381469727
1007468,1.6777909994125366,3.5164825916290283,-0.03828115016222,0.38109999895095825,8.17840576171875,-0.8460419774055481,65.10000610351562,-177.3000030517578,-24.30000114440918
1007488,2.2107365131378174,4.167262077331543,-0.19379831850528717,0.5030519962310791,9.14639949798584,-0.19817200303077698,74.70000457763672,-162.90000915527344,-26.100000381469727
1007510,2.4075255393981934,5.074046611785889,-0.2721550464630127,0.5945159792900085,8.833897590637207,-0.3125019967556,79.5,-179.70001220703125,-24.900001525878906
1007530,2.3853940963745117,5.091990947723389,-0.10646945238113403,0.426831990480423,8.277491569519043,-1.2347639799118042,77.10000610351562,-170.10000610351562,-29.100000381469727
1007570,2.244232416152954,6.50839376449585,-0.5455064177513123,0.8917739987373352,7.324741840362549,-1.6768399477005005,79.5,-165.3000030517578,-21.30000114440918
1007610,1.6502764225006104,8.57198715209961,-1.2788296937942505,0.9451279640197754,6.3719916343688965,-2.042695999145508,84.30000305175781,-165.3000030517578,-18.900001525878906
1007669,0.16269488632678986,9.769469261169434,-2.0576117038726807,0.9756159782409668,3.445143938064575,-1.6311079263687134,84.30000305175781,-165.3000030517578,-23.100000381469727
1007709,0.7393047213554382,10.408286094665527,-1.8177565336227417,1.0899460315704346,1.2271419763565063,-0.8079319596290588,101.10000610351562,-155.70001220703125,-17.700000762939453
1007749,0.7399028539657593,9.595409393310547,-1.7537552118301392,0.08384199440479279,0.7926880121231079,-1.4558019638061523,93.9000015258789,-170.10000610351562,-23.100000381469727
1007769,0.824839174747467,9.04990291595459,-1.6676225662231445,-0.06859800219535828,0.6402480006217957,-1.4481799602508545,91.5,-153.3000030517578,-20.100000381469727
1007789,0.7082012891769409,8.622230529785156,-1.7818678617477417,-0.1600620001554489,0.5792719721794128,-1.242385983467102,93.9000015258789,-162.90000915527344,-23.100000381469727
1007829,0.8553444743156433,8.942237854003906,-2.2286806106567383,0.3734779953956604,-0.4192099869251251,-0.05335399881005287,91.5,-165.3000030517578,-20.700000762939453
1007869,0.9426733255386353,8.94044303894043,-2.2675600051879883,0.1600620001554489,-1.067080020904541,-0.07621999830007553,96.30000305175781,-160.5,-22.5
1007889,1.1167329549789429,9.210803985595703,-2.2723450660705566,-0.04573199898004532,-0.967993974685669,0.17530599236488342,89.10000610351562,-167.70001220703125,-15.90000057220459
1007909,1.1849212646484375,9.612157821655273,-2.793327569961548,-0.5868939757347107,-0.571649968624115,-0.007621999830007553,89.10000610351562,-158.10000610351562,-19.5
1007950,0.8894385695457458,8.779542922973633,-2.6575491428375244,-0.49542999267578125,-1.0823240280151367,0.015243999660015106,93.9000015258789,-172.5,-10.5
1007993,1.0018894672393799,9.842442512512207,-2.7610280513763428,-0.22103799879550934,-0.9603719711303711,0.20579399168491364,96.30000305175781,-165.3000030517578,-19.5
1008013,0.7656229734420776,9.53499698638916,-2.7466726303100586,-0.2972579896450043,-1.1280559301376343,-0.39634400606155396,93.9000015258789,-155.70001220703125,-21.30000114440918
1008034,0.8780738711357117,9.341198921203613,-2.5205745697021484,-0.06859800219535828,-1.417691946029663,-0.5640279650688171,96.30000305175781,-167.70001220703125,-20.700000762939453
1008055,0.8493630290031433,8.82500171661377,-2.313018798828125,-0.23628199100494385,-1.013725996017456,-0.6631140112876892,77.10000610351562,-167.70001220703125,-21.900001525878906
1008075,0.8732887506484985,9.216785430908203,-2.426666021347046,-0.26677000522613525,-0.5411620140075684,-0.16768398880958557,96.30000305175781,-158.10000610351562,-17.700000762939453
1008118,0.7704081535339355,8.891395568847656,-2.4422178268432617,-0.114329993724823,-0.07621999830007553,-0.09146399796009064,91.5,-158.10000610351562,-18.30000114440918
1008138,0.6531721353530884,8.831581115722656,-2.5773980617523193,-0.08384199440479279,0,-0.22103799879550934,98.70000457763672,-162.90000915527344,-18.30000114440918
1008158,0.7387065887451172,8.618043899536133,-2.7089896202087402,0.426831990480423,0.07621999830007553,-0.007621999830007553,96.30000305175781,-179.70001220703125,-20.100000381469727
1008220,1.2782315015792847,9.430920600891113,-2.9380781650543213,0.9070180058479309,-0.33536797761917114,0.7469559907913208,93.9000015258789,-165.3000030517578,-16.5
1008305,1.1490325927734375,8.823206901550293,-2.9966962337493896,-0.19817200303077698,0.2972579896450043,-0.33536797761917114,91.5,-172.5,-18.900001525878906
1008325,1.1801360845565796,9.090577125549316,-2.881852865219116,-0.12195199728012085,-0.015243999660015106,-0.17530599236488342,89.10000610351562,-170.10000610351562,-17.100000381469727
1008367,0.9917210340499878,8.897974967956543,-2.843571662902832,-0.7698220014572144,0.08384199440479279,-0.38109999895095825,89.10000610351562,-162.90000915527344,-15.90000057220459
1008407,1.1143403053283691,9.249683380126953,-2.7197561264038086,-0.02286599949002266,-0.15243999660015106,-0.1295740008354187,79.5,-167.70001220703125,-15.300000190734863
1008447,0.9785618782043457,9.10074520111084,-2.820244073867798,-0.4344539940357208,0.49542999267578125,0.09908600151538849,93.9000015258789,-165.3000030517578,-26.100000381469727
1008484,0.8224465847015381,9.167139053344727,-2.826225519180298,-0.19817200303077698,0.1600620001554489,-0.114329993724823,79.5,-162.90000915527344,-17.100000381469727
1008504,0.8649147152900696,9.097156524658203,-2.6904470920562744,-0.2896359860897064,-0.02286599949002266,-0.41158798336982727,81.9000015258789,-162.90000915527344,-15.300000190734863
1008544,1.0437594652175903,9.149792671203613,-2.5702202320098877,-0.7012239694595337,0.13719600439071655,-0.4420759975910187,89.10000610351562,-165.3000030517578,-14.700000762939453
1008567,0.9582250118255615,8.91651725769043,-2.4601619243621826,-0.8079319596290588,0.2896359860897064,-0.3887220025062561,89.10000610351562,-160.5,-23.700000762939453
1008587,0.8708961606025696,8.957191467285156,-2.6252493858337402,-0.6173819899559021,0.3277460038661957,-0.41158798336982727,96.30000305175781,-177.3000030517578,-17.700000762939453
1008607,0.8876441717147827,9.087586402893066,-2.524761438369751,-0.3734779953956604,0.08384199440479279,-0.510673999786377,84.30000305175781,-174.90000915527344,-14.700000762939453
1008670,0.8816627264022827,8.78492546081543,-2.524163246154785,-0.5182960033416748,-0.07621999830007553,-0.4344539940357208,93.9000015258789,-162.90000915527344,-15.300000190734863
1008691,1.0503391027450562,8.867469787597656,-2.4009459018707275,-0.46494197845458984,-0.2591480016708374,-0.015243999660015106,96.30000305175781,-162.90000915527344,-16.5
1008711,1.0258152484893799,9.053491592407227,-2.659343719482422,-0.7088459730148315,-0.015243999660015106,-0.060975998640060425,101.10000610351562,-160.5,-17.100000381469727
1008731,1.0539278984069824,8.90455436706543,-2.7143728733062744,-0.19817200303077698,-0.26677000522613525,-0.38109999895095825,89.10000610351562,-167.70001220703125,-21.30000114440918
1008791,1.3685511350631714,8.759803771972656,-2.3267762660980225,-2.439039945602417,1.3109840154647827,-1.3033620119094849,91.5,-162.90000915527344,-18.900001525878906
1008811,1.2435392141342163,7.938553333282471,-2.6390068531036377,-2.339953899383545,1.7911700010299683,-1.6768399477005005,96.30000305175781,-162.90000915527344,-26.100000381469727
1008831,1.1382660865783691,6.899579048156738,-3.0900065898895264,-1.8445239067077637,2.385685920715332,-1.3033620119094849,89.10000610351562,-160.5,-23.700000762939453
1008851,1.434944987297058,7.330242156982422,-3.989015579223633,-0.6631140112876892,3.041177988052368,0.2439039945602417,103.50000762939453,-162.90000915527344,-19.5
1008911,4.557251453399658,9.795787811279297,-5.519663333892822,0.5792719721794128,2.385685920715332,-0.02286599949002266,89.10000610351562,-155.70001220703125,-18.900001525878906
1008965,4.978343963623047,7.797989845275879,-4.43881893157959,-0.6173819899559021,6.196685791015625,-3.9405739307403564,103.50000762939453,-167.70001220703125,-20.700000762939453
1008985,4.728320121765137,6.89180326461792,-3.6205594539642334,0.08384199440479279,6.714982032775879,-5.068629741668701,98.70000457763672,-158.10000610351562,-14.100000381469727
1009029,3.016434907913208,3.2532997131347656,-0.6980328559875488,0.3887220025062561,9.641829490661621,-8.673835754394531,117.9000015258789,-153.3000030517578,-14.700000762939453
1009069,1.1795378923416138,2.9578170776367188,-0.12740445137023926,0.9298839569091797,11.356780052185059,-9.77902603149414,125.10000610351562,-153.3000030517578,-14.100000381469727
1009090,0.10646945238113403,2.862114191055298,0.24045348167419434,1.0975680351257324,9.557988166809082,-10.152503967285156,139.5,-162.90000915527344,-8.700000762939453
1009110,-0.8978126049041748,1.7884474992752075,0.5610581040382385,1.2881180047988892,6.775958061218262,-10.07628345489502,144.3000030517578,-155.70001220703125,-6.300000190734863
1009150,-1.1705658435821533,3.4925568103790283,3.314908266067505,0.8612859845161438,-0.2896359860897064,-5.167716026306152,153.90000915527344,-134.10000610351562,-5.700000286102295
1009214,-3.392666816711426,7.226165294647217,1.2812222242355347,2.7134318351745605,-0.7240899801254272,-4.794238090515137,158.70001220703125,-134.10000610351562,-5.100000381469727
1009234,-4.951427459716797,6.601704120635986,0.8397927284240723,2.0579400062561035,-0.4039659798145294,-4.42838191986084,163.5,-138.90000915527344,-9.90000057220459
1009274,-3.5816800594329834,10.699581146240234,0.08015115559101105,2.1646480560302734,-3.163130044937134,-1.3186060190200806,177.90000915527344,-141.3000030517578,-6.300000190734863
1009294,-5.711069107055664,10.5350923538208,-0.815268874168396,1.9436099529266357,-1.3567159175872803,-2.484771966934204,177.90000915527344,-122.10000610351562,-12.90000057220459
1009314,-5.252891540527344,10.16543960571289,-1.7926344871520996,2.0122079849243164,-2.538125991821289,-1.875011920928955,177.90000915527344,-122.10000610351562,-8.700000762939453
1009334,-5.182310581207275,8.80586051940918,-0.12142302095890045,2.14178204536438,-5.03814172744751,-1.707327961921692,170.70001220703125,-129.3000030517578,-5.100000381469727
1009354,-7.613163948059082,9.974632263183594,-2.19398832321167,2.698187828063965,0.8460419774055481,1.8521459102630615,173.10000610351562,-119.70000457763672,-6.900000095367432
1009376,-2.4840877056121826,16.044586181640625,-6.50839376449585,2.1570260524749756,0.44969800114631653,7.370473861694336,173.10000610351562,-124.50000762939453,-8.100000381469727
1009396,-5.550766944885254,13.191445350646973,-2.7532520294189453,0.15243999660015106,-11.608305931091309,-2.545747995376587,175.5,-122.10000610351562,-6.900000095367432
1009416,-7.435515403747559,11.696087837219238,-4.894603729248047,4.5427117347717285,-0.7012239694595337,1.5015339851379395,168.3000030517578,-122.10000610351562,-2.700000047683716
1009436,-3.7210474014282227,15.673140525817871,-7.729801654815674,3.6814258098602295,-0.8993960022926331,6.920775890350342,165.90000915527344,-124.50000762939453,-3.3000001907348633
1009456,-2.2424380779266357,15.445247650146484,-6.808661460876465,0.6936019659042358,-10.175370216369629,1.753059983253479,168.3000030517578,-126.9000015258789,-2.1000001430511475
1009500,-4.182215690612793,14.468480110168457,-7.119097709655762,1.3948259353637695,-2.294221878051758,6.036623954772949,173.10000610351562,-126.9000015258789,-4.5
1009520,-1.9505442380905151,17.053056716918945,-7.483964920043945,-1.1661659479141235,-8.666213989257812,4.8552141189575195,151.5,-129.3000030517578,-6.900000095367432
1009543,-4.916137218475342,13.716614723205566,-5.563327789306641,-1.653973937034607,-9.35981559753418,-0.44969800114631653,168.3000030517578,-136.5,-5.700000286102295
1009564,-4.0015764236450195,13.390626907348633,-8.696998596191406,0.3277460038661957,-6.440589904785156,5.640279769897461,170.70001220703125,-129.3000030517578,-8.100000381469727
1009584,-1.9613107442855835,15.760469436645508,-6.62682580947876,-3.1326420307159424,-15.00009536743164,6.4253458976745605,161.10000610351562,-136.5,-11.700000762939453
1009626,-4.712170124053955,11.013008117675781,-8.93446159362793,3.445143938064575,0.8079319596290588,2.4771499633789062,168.3000030517578,-138.90000915527344,-11.700000762939453
1009646,-1.1771453619003296,13.60835075378418,-11.447259902954102,1.1280559301376343,-9.481767654418945,8.64334774017334,151.5,-138.90000915527344,-18.900001525878906
1009666,-0.6986309885978699,14.64732551574707,-7.00246000289917,-5.015275955200195,-19.512319564819336,7.621999740600586,149.10000610351562,-134.10000610351562,-18.30000114440918
1009689,-1.9379832744598389,13.375075340270996,-5.883334159851074,-0.6250039935112,-8.963471412658691,5.03814172744751,134.70001220703125,-148.5,-17.700000762939453
1009729,0.04904772341251373,12.482047080993652,-8.887805938720703,-2.0579400062561035,-8.529017448425293,7.324741840362549,146.70001220703125,-143.70001220703125,-14.100000381469727
1009749,0.23207947611808777,12.753005981445312,-6.224874019622803,-3.0640439987182617,-11.272937774658203,6.806446075439453,129.90000915527344,-150.90000915527344,-24.30000114440918
1009772,-0.6370222568511963,11.086580276489258,-6.211116790771484,-2.835383892059326,-4.359784126281738,4.626554012298584,122.70000457763672,-155.70001220703125,-21.30000114440918
1009833,0.003588857827708125,9.589427947998047,-6.019112586975098,-2.1722700595855713,-3.1859958171844482,3.3384358882904053,117.9000015258789,-162.90000915527344,-23.700000762939453
1009922,1.8004103899002075,7.7692790031433105,-4.048829555511475,-1.0823240280151367,2.073184013366699,4.489357948303223,96.30000305175781,-160.5,-21.900001525878906
1009942,1.5874714851379395,7.516862869262695,-3.460257053375244,-2.28659987449646,3.658559799194336,3.5975840091705322,93.9000015258789,-165.3000030517578,-29.100000381469727
1009982,1.5820881128311157,6.464729309082031,-3.2126259803771973,-0.015243999660015106,4.382649898529053,1.9969639778137207,84.30000305175781,-158.10000610351562,-23.100000381469727
1010003,1.4869834184646606,5.672788143157959,-2.5558648109436035,-0.12195199728012085,4.275941848754883,-0.5335400104522705,84.30000305175781,-167.70001220703125,-24.30000114440918
1010023,1.615584135055542,4.831799030303955,-2.4583675861358643,0.8079319596290588,4.718018054962158,-1.417691946029663,86.70000457763672,-170.10000610351562,-18.30000114440918
1010045,1.8249342441558838,4.734899997711182,-1.9619089365005493,0.5945159792900085,4.222588062286377,-1.8902559280395508,98.70000457763672,-167.70001220703125,-20.700000762939453
1010065,1.9960031509399414,4.559643745422363,-1.6383136510849,0.5640279650688171,4.458869934082031,-2.1646480560302734,103.50000762939453,-170.10000610351562,-18.900001525878906
1010085,1.9810495376586914,4.245020866394043,-1.2901943922042847,0.4192099869251251,4.725639820098877,-2.4619059562683105,86.70000457763672,-170.10000610351562,-22.5
1010105,2.1808292865753174,4.008155822753906,-0.8852515816688538,0.038109999150037766,5.198204040527344,-2.2637338638305664,89.10000610351562,-172.5,-26.700000762939453
1010129,1.7513625621795654,3.383694887161255,-0.724949300289154,0.18292799592018127,6.577785968780518,-2.03507399559021,84.30000305175781,-167.70001220703125,-24.900001525878906
1010150,1.8889354467391968,3.8047873973846436,-0.61847984790802,0.685979962348938,7.256144046783447,-0.3048799932003021,93.9000015258789,-172.5,-13.500000953674316
1010172,1.8913280963897705,5.929391384124756,-0.4743273854255676,-0.007621999830007553,8.193650245666504,0.49542999267578125,103.50000762939453,-170.10000610351562,-20.700000762939453
1010193,1.3440272808074951,6.119600772857666,-1.1011812686920166,-0.22103799879550934,8.833897590637207,-0.6173819899559021,91.5,-165.3000030517578,-21.30000114440918
1010213,1.1292939186096191,6.449775695800781,-1.0557223558425903,0.35061198472976685,7.0351057052612305,-0.853663980960846,101.10000610351562,-162.90000915527344,-14.700000762939453
1010237,1.1023775339126587,7.150200843811035,-0.6585553884506226,0.1600620001554489,5.929915904998779,-0.8993960022926331,101.10000610351562,-162.90000915527344,-18.30000114440918
1010257,0.8511574268341064,9.462023735046387,-0.8463723063468933,-0.228659987449646,4.603687763214111,-0.7240899801254272,93.9000015258789,-170.10000610351562,-14.700000762939453
1010277,1.1227144002914429,9.63070011138916,-0.6848737001419067,-0.8612859845161438,3.85673189163208,-1.4100699424743652,91.5,-177.3000030517578,-16.5
1010297,0.7781839966773987,7.876346588134766,-0.47492551803588867,-1.6768399477005005,4.1921000480651855,-3.109776020050049,98.70000457763672,-170.10000610351562,-21.900001525878906
1010319,-0.14056359231472015,7.888309478759766,-1.4080286026000977,-0.2743920087814331,4.78661584854126,-0.7850660085678101,93.9000015258789,-160.5,-18.30000114440918
1010339,-0.5263658165931702,8.974536895751953,-2.19398832321167,-0.10670799762010574,3.5213639736175537,1.0747020244598389,103.50000762939453,-167.70001220703125,-8.700000762939453
1010361,-0.11903045326471329,9.761693000793457,-2.152118444442749,0.5411620140075684,0,1.4481799602508545,108.30000305175781,-158.10000610351562,-16.5
1010401,0.5688339471817017,9.87653636932373,-2.2765321731567383,0.1448179930448532,-1.3795819282531738,0.342989981174469,91.5,-160.5,-22.5
1010423,0.8074930310249329,9.092370986938477,-2.032489776611328,-0.33536797761917114,-1.295740008354187,-0.5868939757347107,98.70000457763672,-162.90000915527344,-20.100000381469727
1010443,1.1454437971115112,9.28617000579834,-2.3979551792144775,-0.2743920087814331,-0.5564059615135193,-0.060975998640060425,84.30000305175781,-162.90000915527344,-15.90000057220459
1010463,1.2519131898880005,9.732982635498047,-2.390777349472046,-0.7317119836807251,-0.3582339882850647,-0.015243999660015106,79.5,-172.5,-9.90000057220459
1010483,0.5921615362167358,9.316675186157227,-2.572613000869751,-0.739333987236023,0.3277460038661957,-0.6402480006217957,105.9000015258789,-165.3000030517578,-12.90000057220459
1010503,0.4192982316017151,9.29514217376709,-2.7771778106689453,-0.4725639820098877,-0.09908600151538849,-0.6326259970664978,96.30000305175781,-167.70001220703125,-11.700000762939453
1010526,0.5102159380912781,8.78911304473877,-2.5504815578460693,-0.2896359860897064,-0.6173819899559021,-0.6783579587936401,89.10000610351562,-165.3000030517578,-13.500000953674316
1010589,0.7961282730102539,9.09775447845459,-2.580986976623535,-0.6554920077323914,-0.6097599864006042,-0.3887220025062561,101.10000610351562,-158.10000610351562,-19.5
1010609,0.5281602144241333,8.50918197631836,-2.7801685333251953,-0.426831990480423,-0.5411620140075684,-0.4878079891204834,101.10000610351562,-167.70001220703125,-16.5
1010633,0.47193479537963867,8.226858139038086,-2.7460744380950928,0.16768398880958557,-1.0442140102386475,0.04573199898004532,98.70000457763672,-162.90000915527344,-9.90000057220459
1010653,0.814670741558075,8.889002799987793,-2.595940589904785,0.41158798336982727,-1.189031958580017,0.9756159782409668,96.30000305175781,-155.70001220703125,-18.30000114440918
1010673,0.9570287466049194,9.41656494140625,-2.5977349281311035,-0.015243999660015106,-0.7621999979019165,1.0365920066833496,91.5,-160.5,-21.900001525878906
1010696,1.1137422323226929,9.67436408996582,-2.6402029991149902,-0.41158798336982727,-0.5259180068969727,0.49542999267578125,91.5,-165.3000030517578,-10.5
1010716,1.1544159650802612,9.52602481842041,-2.9703779220581055,-0.41158798336982727,-0.07621999830007553,-0.114329993724823,89.10000610351562,-155.70001220703125,-14.700000762939453
1010740,0.6136946678161621,8.382973670959473,-2.8663010597229004,-0.2896359860897064,-0.6936019659042358,-0.38109999895095825,96.30000305175781,-160.5,-21.30000114440918
1010760,1.0993868112564087,8.840553283691406,-2.8663010597229004,0.41158798336982727,-1.3490939140319824,0.46494197845458984,98.70000457763672,-160.5,-19.5
1010780,1.3284755945205688,8.942237854003906,-2.5205745697021484,0.3201240003108978,-1.1509219408035278,0.8307979702949524,98.70000457763672,-170.10000610351562,-15.300000190734863
1010820,1.134079098701477,8.897377014160156,-2.887834310531616,-0.07621999830007553,-0.1295740008354187,-0.3201240003108978,93.9000015258789,-170.10000610351562,-15.300000190734863
1010886,1.2704557180404663,9.430920600891113,-3.0092573165893555,-0.15243999660015106,0.5411620140075684,-0.04573199898004532,84.30000305175781,-162.90000915527344,-19.5
1010906,1.2453336715698242,9.42134952545166,-2.8088793754577637,-0.13719600439071655,0.3734779953956604,-0.3887220025062561,84.30000305175781,-162.90000915527344,-6.900000095367432
1010926,1.125106930732727,9.316675186157227,-2.6748952865600586,-0.4878079891204834,0.46494197845458984,-0.5182960033416748,96.30000305175781,-162.90000915527344,-15.90000057220459
1010946,1.0246188640594482,9.249683380126953,-2.527752161026001,-0.7164679765701294,0.7088459730148315,-0.5411620140075684,89.10000610351562,-172.5,-20.700000762939453
1010966,0.61249840259552,8.707167625427246,-2.6659231185913086,-0.7240899801254272,0.9756159782409668,-1.013725996017456,93.9000015258789,-170.10000610351562,-15.300000190734863
1010986,0.6190779805183411,8.627016067504883,-2.7353076934814453,-0.15243999660015106,0.41158798336982727,-0.8384199738502502,86.70000457763672,-162.90000915527344,-18.900001525878906
1011006,0.7488750219345093,8.670680046081543,-2.6521658897399902,0.18292799592018127,0.06859800219535828,-0.6173819899559021,98.70000457763672,-160.5,-18.30000114440918
1011030,1.0288058519363403,9.149792671203613,-2.4882748126983643,0.36585599184036255,0.13719600439071655,0.04573199898004532,89.10000610351562,-160.5,-13.500000953674316
1011051,1.102975606918335,9.27719783782959,-2.48289155960083,0.19054999947547913,0.46494197845458984,0.08384199440479279,98.70000457763672,-155.70001220703125,-20.100000381469727
1011071,0.9911229014396667,8.954798698425293,-2.5857720375061035,-0.1295740008354187,0.8079319596290588,0.04573199898004532,98.70000457763672,-162.90000915527344,-19.5
1011094,0.9540380239486694,8.82978630065918,-2.676689863204956,-0.015243999660015106,0.8612859845161438,0.22103799879550934,101.10000610351562,-170.10000610351562,-19.5
1011114,0.9612157344818115,9.094165802001953,-2.825627326965332,0.18292799592018127,0.6631140112876892,0.2896359860897064,81.9000015258789,-174.90000915527344,-17.700000762939453
1011134,0.9803563356399536,9.03315544128418,-2.8334033489227295,0.22103799879550934,0.38109999895095825,0.07621999830007553,101.10000610351562,-160.5,-17.700000762939453
1011157,1.099984884262085,9.211999893188477,-2.852543830871582,-0.08384199440479279,-0.1295740008354187,-0.25152599811553955,89.10000610351562,-158.10000610351562,-18.900001525878906
1011177,0.9073829054832458,8.851319313049316,-2.9434616565704346,-0.5030519962310791,-0.038109999150037766,-0.44969800114631653,98.70000457763672,-162.90000915527344,-15.90000057220459
1011197,1.108957052230835,8.56181812286377,-3.117521047592163,0.35061198472976685,-0.36585599184036255,-0.4420759975910187,91.5,-160.5,-15.300000190734863
1011217,1.4134118556976318,9.16055965423584,-2.8214404582977295,0.038109999150037766,-0.6326259970664978,0.3048799932003021,93.9000015258789,-162.90000915527344,-9.300000190734863
1011241,1.2872036695480347,8.779542922973633,-3.0391645431518555,-0.8079319596290588,-0.015243999660015106,-0.17530599236488342,105.9000015258789,-172.5,-22.5
1011261,1.4869834184646606,8.76399040222168,-2.9219284057617188,-0.36585599184036255,-0.20579399168491364,-0.18292799592018127,77.10000610351562,-162.90000915527344,-18.30000114440918
1011281,2.271148920059204,9.566699028015137,-2.7059988975524902,-1.0518360137939453,0.426831990480423,-0.060975998640060425,98.70000457763672,-170.10000610351562,-19.5
1011302,2.2872986793518066,9.270617485046387,-3.2658605575561523,-2.4237959384918213,2.7667858600616455,-1.471045970916748,91.5,-153.3000030517578,-15.300000190734863
1011322,1.711287021636963,8.221475601196289,-3.824526071548462,-1.7378159761428833,4.382649898529053,-2.240867853164673,79.5,-160.5,-22.5
1011342,1.8859448432922363,7.510881423950195,-4.511194229125977,-0.28201398253440857,4.184477806091309,-1.371959924697876,103.50000762939453,-170.10000610351562,-10.5
1011362,2.507415294647217,8.442190170288086,-4.310816287994385,-0.6783579587936401,2.652456045150757,0.49542999267578125,108.30000305175781,-167.70001220703125,-19.5
1011386,3.6199612617492676,9.215588569641113,-4.614673137664795,-0.16768398880958557,4.237832069396973,-0.228659987449646,93.9000015258789,-170.10000610351562,-20.700000762939453
1011406,4.039259433746338,9.19644832611084,-4.456165313720703,-0.2591480016708374,3.917707920074463,-1.417691946029663,91.5,-155.70001220703125,-18.30000114440918
1011426,4.176234245300293,8.362038612365723,-3.4476959705352783,-0.9756159782409668,4.153989791870117,-2.888737916946411,93.9000015258789,-165.3000030517578,-13.500000953674316
1011447,4.149317741394043,7.2118096351623535,-2.6192681789398193,-1.5625100135803223,5.480217933654785,-4.336917877197266,108.30000305175781,-155.70001220703125,-14.100000381469727
1011467,3.5756986141204834,5.981429576873779,-1.9714791774749756,-1.5548880100250244,7.134191989898682,-5.647902011871338,103.50000762939453,-170.10000610351562,-18.900001525878906
1011489,2.891423225402832,5.06028938293457,-1.806391716003418,-0.7774440050125122,8.971094131469727,-5.960403919219971,103.50000762939453,-170.10000610351562,-20.100000381469727
1011509,3.0780436992645264,4.959203243255615,-1.6006306409835815,-0.2972579896450043,9.24548625946045,-5.594547748565674,101.10000610351562,-155.70001220703125,-19.5
1011529,2.528350353240967,3.9088642597198486,-1.2046599388122559,0.5792719721794128,9.474145889282227,-6.036623954772949,122.70000457763672,-158.10000610351562,-15.90000057220459
1011549,2.4631526470184326,3.549380302429199,-0.9905247688293457,1.5929979085922241,9.489389419555664,-4.977165699005127,110.70000457763672,-146.10000610351562,-11.100000381469727
1011569,1.8919261693954468,3.251505136489868,-0.5263658165931702,0.7698220014572144,9.115911483764648,-5.160093784332275,108.30000305175781,-148.5,-7.500000476837158
1011611,0.7889505624771118,2.7789721488952637,-0.7393047213554382,1.0289700031280518,9.214998245239258,-4.2988080978393555,129.90000915527344,-153.3000030517578,-11.700000762939453
1011671,-1.640706181526184,5.584860801696777,0.18602246046066284,1.5548880100250244,3.003067970275879,-1.021347999572754,127.50000762939453,-143.70001220703125,-9.90000057220459
1011692,-1.734614610671997,8.131753921508789,1.415804386138916,-1.7225719690322876,1.5396440029144287,-2.6753220558166504,137.10000610351562,-143.70001220703125,-8.700000762939453
1011712,-2.9757611751556396,5.267845153808594,1.5970417261123657,-1.8978779315948486,3.7728898525238037,-7.3399858474731445,122.70000457763672,-146.10000610351562,-9.300000190734863
1011734,-4.3622565269470215,8.244802474975586,-0.4019520878791809,0.571649968624115,2.2713558673858643,-1.8140360116958618,132.3000030517578,-143.70001220703125,-12.90000057220459
1011796,-4.018324375152588,11.712237358093262,-2.2813172340393066,2.987823963165283,-2.8658719062805176,-0.3887220025062561,153.90000915527344,-148.5,-5.100000381469727
1011845,-5.288181781768799,12.039422035217285,-2.8513474464416504,2.7667858600616455,-6.455833911895752,-1.2195199728012085,153.90000915527344,-138.90000915527344,-11.700000762939453
1011866,-3.835890769958496,14.61921215057373,-3.6432888507843018,1.5167779922485352,-7.56864595413208,0.5182960033416748,146.70001220703125,-136.5,-14.100000381469727
1011906,-4.9526238441467285,12.711734771728516,-3.9573140144348145,2.545747995376587,-7.583889961242676,-0.1448179930448532,165.90000915527344,-134.10000610351562,-2.700000047683716
1011946,-4.436426639556885,14.186755180358887,-2.7729907035827637,0.6173819899559021,-8.81865406036377,0.685979962348938,156.3000030517578,-136.5,-8.100000381469727
1011970,-4.8808465003967285,13.034133911132812,-5.182310581207275,1.0365920066833496,-5.274424076080322,1.1128119230270386,170.70001220703125,-126.9000015258789,-8.700000762939453
1011990,-3.800002336502075,13.812317848205566,-5.681760311126709,2.3170878887176514,-9.847623825073242,3.5289859771728516,168.3000030517578,-122.10000610351562,-8.700000762939453
1012032,-5.554355621337891,12.319951057434082,-6.394148349761963,-0.08384199440479279,-2.7286758422851562,0.114329993724823,156.3000030517578,-155.70001220703125,-9.300000190734863
1012055,-2.0940985679626465,14.173595428466797,-9.813133239746094,3.0869100093841553,-6.326260089874268,6.029001712799072,163.5,-150.90000915527344,-5.100000381469727
1012075,-1.7705031633377075,16.060138702392578,-6.159676551818848,-3.3689239025115967,-17.012304306030273,5.807963848114014,153.90000915527344,-143.70001220703125,-18.30000114440918
1012099,-3.5188751220703125,14.710129737854004,-5.06328010559082,-1.6234859228134155,-8.551883697509766,2.5533699989318848,161.10000610351562,-138.90000915527344,-21.900001525878906
1012161,-1.548592209815979,14.58152961730957,-5.368931293487549,-1.7606819868087769,-11.17385196685791,2.8734939098358154,134.70001220703125,-143.70001220703125,-17.100000381469727
1012230,-1.2985683679580688,12.380363464355469,-6.561628341674805,-1.829279899597168,-7.690598011016846,4.664663791656494,137.10000610351562,-148.5,-22.5
1012265,-0.92173832654953,11.967644691467285,-5.566318511962891,-1.417691946029663,-6.402479648590088,4.824726104736328,129.90000915527344,-148.5,-23.100000381469727
1012285,-0.5443100929260254,11.663787841796875,-6.369026184082031,-0.8155539631843567,-4.375028133392334,4.565577983856201,129.90000915527344,-155.70001220703125,-17.100000381469727
1012327,0.10826388001441956,9.44826602935791,-5.12608528137207,-0.3582339882850647,-4.672286033630371,3.818621873855591,117.9000015258789,-153.3000030517578,-20.100000381469727
1012347,0.18781688809394836,9.369311332702637,-5.17094612121582,-1.0823240280151367,-1.1280559301376343,4.809482097625732,117.9000015258789,-160.5,-26.100000381469727
1012367,-0.06519758701324463,8.510377883911133,-5.464035987854004,-1.2881180047988892,0.8612859845161438,4.161612033843994,113.10000610351562,-155.70001220703125,-24.30000114440918
1012389,1.3494105339050293,8.553444862365723,-4.965184688568115,0.49542999267578125,-0.3582339882850647,4.580821990966797,105.9000015258789,-160.5,-23.700000762939453
1012409,1.6682207584381104,7.2805962562561035,-3.8472557067871094,-0.1600620001554489,-0.510673999786377,1.699705958366394,93.9000015258789,-162.90000915527344,-23.700000762939453
1012433,1.7711013555526733,5.627328872680664,-3.589456081390381,0.44969800114631653,2.3094658851623535,1.8597679138183594,91.5,-172.5,-29.700000762939453
1012453,2.0701727867126465,6.555646896362305,-3.26167368888855,-0.5182960033416748,3.2698378562927246,3.612828016281128,108.30000305175781,-177.3000030517578,-24.30000114440918
1012475,1.84048593044281,5.8917083740234375,-2.784355640411377,-0.8765299916267395,4.436003684997559,2.0198299884796143,101.10000610351562,-165.3000030517578,-23.700000762939453
1012495,1.2303800582885742,4.197169303894043,-2.399749517440796,-0.19054999947547913,5.442107677459717,0.9070180058479309,86.70000457763672,-160.5,-27.30000114440918
1012625,2.4733211994171143,4.289881229400635,-0.7303325533866882,-0.7850660085678101,6.311016082763672,-0.2896359860897064,96.30000305175781,-172.5,-24.900001525878906
1012645,2.542705774307251,4.460351943969727,-0.6023299694061279,-0.49542999267578125,6.631139755249023,0.5182960033416748,91.5,-167.70001220703125,-25.500001907348633
1012687,2.8244311809539795,6.100460052490234,-0.3726430833339691,-0.3887220025062561,7.218033790588379,0.8917739987373352,79.5,-167.70001220703125,-23.700000762939453
1012707,2.2974672317504883,7.189080238342285,-0.702817976474762,-0.5945159792900085,7.759195804595947,-0.967993974685669,86.70000457763672,-170.10000610351562,-20.700000762939453
1012727,1.6753984689712524,7.7363810539245605,-1.1203217506408691,-0.038109999150037766,6.730226039886475,-1.8902559280395508,77.10000610351562,-165.3000030517578,-23.700000762939453
1012747,0.9761693477630615,7.7004923820495605,-0.8714942932128906,0.39634400606155396,4.78661584854126,-2.7058098316192627,79.5,-167.70001220703125,-20.100000381469727
1012769,1.1322846412658691,7.640079975128174,-0.6316390037536621,0.04573199898004532,3.292703866958618,-2.431417942047119,96.30000305175781,-162.90000915527344,-18.30000114440918
1012789,0.7979227304458618,8.656923294067383,-0.5138047933578491,0.46494197845458984,2.987823963165283,-1.1814099550247192,91.5,-174.90000915527344,-20.700000762939453
1012809,0.5598618388175964,9.826292991638184,-1.1932952404022217,0.05335399881005287,2.903981924057007,-0.7469559907913208,81.9000015258789,-167.70001220703125,-15.90000057220459
1012829,0.44202765822410583,9.671972274780273,-1.702314853668213,0.16768398880958557,1.9588539600372314,-0.8231759667396545,81.9000015258789,-162.90000915527344,-19.5
1012849,0.45997193455696106,10.295236587524414,-2.128192663192749,0.800309956073761,0.800309956073761,-0.25152599811553955,84.30000305175781,-172.5,-16.5
1012873,0.2147333323955536,9.929771423339844,-2.313018798828125,0.8307979702949524,-0.5792719721794128,-0.7621999979019165,79.5,-179.70001220703125,-16.5
1012933,0.596946656703949,9.969846725463867,-2.4631526470184326,-0.7545779943466187,-0.5564059615135193,-0.6402480006217957,84.30000305175781,-162.90000915527344,-16.5
1012975,0.2572014629840851,8.85969352722168,-2.328570604324341,-0.09908600151538849,-1.653973937034607,-0.4878079891204834,93.9000015258789,-165.3000030517578,-12.300000190734863
1012995,0.6292464137077332,9.239514350891113,-2.068976640701294,0.038109999150037766,-1.7987920045852661,0.19817200303077698,96.30000305175781,-162.90000915527344,-20.700000762939453
1013016,0.6358259916305542,9.015809059143066,-2.2316713333129883,-0.6326259970664978,-0.7164679765701294,-0.09908600151538849,108.30000305175781,-158.10000610351562,-14.700000762939453
1013036,0.6561628580093384,8.626418113708496,-2.3411316871643066,-0.49542999267578125,-0.6402480006217957,-0.05335399881005287,84.30000305175781,-160.5,-17.100000381469727
1013056,0.6776959896087646,8.842347145080566,-2.5983331203460693,0.06859800219535828,-0.6402480006217957,0.3734779953956604,101.10000610351562,-160.5,-16.5
1013076,0.7560527324676514,8.79808521270752,-2.5773980617523193,0.426831990480423,-0.9603719711303711,0.4725639820098877,89.10000610351562,-167.70001220703125,-12.90000057220459
1013096,0.9642064571380615,9.159961700439453,-2.5624444484710693,0.6554920077323914,-0.8993960022926331,0.9298839569091797,93.9000015258789,-167.70001220703125,-23.700000762939453
1013138,1.107162594795227,9.161755561828613,-2.8028979301452637,0.3277460038661957,-0.35061198472976685,0.6326259970664978,91.5,-165.3000030517578,-20.100000381469727
1013165,1.025217056274414,9.13663387298584,-3.0008833408355713,0.09146399796009064,-0.2439039945602417,0.49542999267578125,81.9000015258789,-162.90000915527344,-17.100000381469727
1013186,1.1215180158615112,9.045716285705566,-2.9703779220581055,0.08384199440479279,-0.6478700041770935,0.6097599864006042,93.9000015258789,-162.90000915527344,-20.700000762939453
1013226,1.4875816106796265,9.125866889953613,-2.7167654037475586,0.060975998640060425,-0.6250039935112,0.35061198472976685,86.70000457763672,-160.5,-14.700000762939453
1013246,1.4821982383728027,9.329236030578613,-2.810673713684082,-0.3887220025062561,-0.060975998640060425,0.2591480016708374,93.9000015258789,-158.10000610351562,-14.700000762939453
1013266,1.3577845096588135,8.96616268157959,-2.8154590129852295,-0.7774440050125122,0.1448179930448532,-0.3125019967556,86.70000457763672,-167.70001220703125,-15.300000190734863
1013287,1.293783187866211,8.88182544708252,-2.936283826828003,-0.2134159952402115,0.06859800219535828,-0.342989981174469,89.10000610351562,-167.70001220703125,-6.900000095367432
1013307,1.1956877708435059,8.750831604003906,-2.626445770263672,-0.05335399881005287,-0.46494197845458984,-0.12195199728012085,98.70000457763672,-167.70001220703125,-12.300000190734863
1013329,1.193893313407898,9.200037002563477,-2.804692506790161,-0.07621999830007553,-0.2439039945602417,0.3125019967556,81.9000015258789,-162.90000915527344,-17.700000762939453
1013349,1.2818204164505005,9.230542182922363,-2.6701102256774902,-0.19054999947547913,-0.342989981174469,-0.16768398880958557,77.10000610351562,-146.10000610351562,-12.300000190734863
1013369,1.296773910522461,8.912928581237793,-2.6820731163024902,-0.2134159952402115,-0.19054999947547913,-0.426831990480423,96.30000305175781,-167.70001220703125,-7.500000476837158
1013389,1.1053682565689087,8.96915340423584,-2.8573288917541504,-0.1295740008354187,-0.060975998640060425,-0.20579399168491364,89.10000610351562,-167.70001220703125,-17.100000381469727
1013409,1.0742647647857666,9.243701934814453,-2.9614057540893555,-0.2591480016708374,-0.2134159952402115,-0.07621999830007553,91.5,-162.90000915527344,-21.900001525878906
1013473,1.2255949974060059,8.903358459472656,-2.5923516750335693,-0.22103799879550934,-0.48018598556518555,-0.09908600151538849,96.30000305175781,-170.10000610351562,-11.700000762939453
1013549,1.0575168132781982,9.143213272094727,-2.847160577774048,0.007621999830007553,-0.038109999150037766,0.1600620001554489,86.70000457763672,-162.90000915527344,-19.5
1013767,2.2914857864379883,8.412282943725586,-5.248106479644775,0.9984819889068604,1.9664759635925293,-0.4039659798145294,79.5,-162.90000915527344,-17.100000381469727
1013787,2.9709761142730713,8.42245101928711,-5.332444667816162,1.4024479389190674,2.073184013366699,-0.35061198472976685,89.10000610351562,-167.70001220703125,-25.500001907348633
1013827,3.8281149864196777,7.741166114807129,-3.6983180046081543,0.3125019967556,1.2728739976882935,-3.1326420307159424,108.30000305175781,-160.5,-12.300000190734863
1013851,4.18580436706543,7.878739356994629,-3.3645541667938232,0.2743920087814331,4.603687763214111,-5.312533855438232,98.70000457763672,-167.70001220703125,-16.5
1013871,3.752150774002075,7.3075127601623535,-2.8950119018554688,-0.46494197845458984,5.640279769897461,-6.974129676818848,105.9000015258789,-158.10000610351562,-15.90000057220459
1013891,3.26167368888855,6.196761131286621,-2.1742496490478516,-1.0975680351257324,6.4253458976745605,-8.338467597961426,113.10000610351562,-160.5,-10.5
1013911,3.1438393592834473,4.891613006591797,-1.6036213636398315,-1.3948259353637695,7.378095626831055,-8.727190017700195,103.50000762939453,-165.3000030517578,-14.700000762939453
1013931,2.661736249923706,3.8795552253723145,-0.8350076079368591,-2.03507399559021,7.881147861480713,-8.460419654846191,129.90000915527344,-165.3000030517578,-15.300000190734863
1013955,2.1210150718688965,3.4979400634765625,-0.5807968378067017,-2.0122079849243164,9.672317504882812,-8.056453704833984,132.3000030517578,-153.3000030517578,-15.300000190734863
1013975,1.6945390701293945,3.064286470413208,-0.3887929320335388,-1.8216580152511597,9.77902603149414,-8.14029598236084,129.90000915527344,-155.70001220703125,-13.500000953674316
1013995,1.531844139099121,2.4822933673858643,-0.11245087534189224,-0.853663980960846,9.131155967712402,-7.469559669494629,139.5,-136.5,-15.300000190734863
1014015,1.3003628253936768,2.7879443168640137,0.3313712179660797,-0.5030519962310791,7.911635875701904,-5.907049655914307,132.3000030517578,-153.3000030517578,-13.500000953674316
1014059,0.28292161226272583,3.2383460998535156,0.8637184500694275,0.12195199728012085,6.905531883239746,-4.885701656341553,149.10000610351562,-141.3000030517578,-18.900001525878906
1014083,-0.9079810380935669,5.574692726135254,1.0587130784988403,0.228659987449646,5.647902011871338,-3.612828016281128,153.90000915527344,-148.5,-12.300000190734863
1014103,-2.2705507278442383,7.34699010848999,0.1058713048696518,0.08384199440479279,5.426863670349121,-4.756127834320068,149.10000610351562,-141.3000030517578,-11.100000381469727
1014124,-2.8627121448516846,7.227361679077148,0.1782466024160385,1.0061039924621582,2.789651870727539,-6.067111968994141,170.70001220703125,-146.10000610351562,-5.100000381469727
1014144,-2.7042043209075928,7.521049499511719,0.4109242260456085,0.9832379817962646,0.5792719721794128,-4.687530040740967,161.10000610351562,-141.3000030517578,-5.100000381469727
1014166,-3.2772252559661865,8.722121238708496,0.11843230575323105,1.013725996017456,0.4192099869251251,-2.949713945388794,156.3000030517578,-131.70001220703125,-2.1000001430511475
1014186,-3.1797280311584473,10.794686317443848,-0.6555647253990173,0.5868939757347107,-0.25152599811553955,-2.1189160346984863,156.3000030517578,-134.10000610351562,-5.100000381469727
1014206,-3.8203392028808594,10.097251892089844,-0.031701575964689255,1.196653962135315,-2.1112940311431885,-4.78661584854126,175.5,-129.3000030517578,-9.90000057220459
1014226,-5.720639228820801,7.5790696144104,-0.49227166175842285,2.0122079849243164,-1.5396440029144287,-4.832347869873047,170.70001220703125,-126.9000015258789,-10.5
1014246,-5.330051898956299,10.223459243774414,-2.330364942550659,2.8811159133911133,-1.646351933479309,-0.33536797761917114,182.70001220703125,-143.70001220703125,-10.5
1014270,-6.593329906463623,11.414361953735352,-2.7059988975524902,2.8658719062805176,-4.4436259269714355,-0.8612859845161438,175.5,-119.70000457763672,-5.700000286102295
1014290,-5.947933673858643,12.349259376525879,-3.863405466079712,3.163130044937134,-5.655523777008057,0.5564059615135193,180.3000030517578,-129.3000030517578,-6.900000095367432
1014312,-4.91195011138916,13.932543754577637,-4.003370761871338,2.538125991821289,-8.68145751953125,0.7317119836807251,187.5,-119.70000457763672,-10.5
1014332,-5.972457408905029,12.246378898620605,-4.310218334197998,2.2484898567199707,-7.8506598472595215,-0.7545779943466187,180.3000030517578,-124.50000762939453,-11.700000762939453
1014352,-5.4090070724487305,13.29671859741211,-5.3874735832214355,3.4375219345092773,-8.14029598236084,2.1722700595855713,180.3000030517578,-119.70000457763672,-5.100000381469727
1014372,-3.951930522918701,14.85547924041748,-3.9244160652160645,1.6615959405899048,-11.303425788879395,2.835383892059326,180.3000030517578,-122.10000610351562,-14.100000381469727
1014392,-6.3241658210754395,12.452140808105469,-3.6444852352142334,0.04573199898004532,-6.714982032775879,-0.228659987449646,187.5,-112.50000762939453,-14.100000381469727
1014413,-6.123189449310303,11.860576629638672,-6.429438591003418,2.797273874282837,-3.1707520484924316,2.9344699382781982,173.10000610351562,-117.30000305175781,-10.5
1014433,-3.67499041557312,15.827461242675781,-6.294856548309326,2.385685920715332,-11.89031982421875,6.044245719909668,182.70001220703125,-131.70001220703125,-13.500000953674316
1014453,-3.5457916259765625,14.414647102355957,-3.0295941829681396,-0.2591480016708374,-12.622032165527344,1.8521459102630615,175.5,-124.50000762939453,-9.90000057220459
1014476,-6.244612693786621,11.978410720825195,-5.130272388458252,1.0899460315704346,-3.246971845626831,1.478667974472046,182.70001220703125,-136.5,-12.300000190734863
1014496,-3.8257224559783936,14.016881942749023,-8.343496322631836,3.0792880058288574,-3.696669816970825,4.413137912750244,177.90000915527344,-129.3000030517578,-14.700000762939453
1014516,-3.2945713996887207,14.35543155670166,-4.375415802001953,-0.060975998640060425,-13.628135681152344,3.620450019836426,173.10000610351562,-134.10000610351562,-14.100000381469727
1014536,-4.835986137390137,14.007311820983887,-4.192384243011475,-0.12195199728012085,-8.68145751953125,3.2164838314056396,168.3000030517578,-129.3000030517578,-17.700000762939453
1014556,-4.493249893188477,14.234606742858887,-7.852420806884766,0.9222619533538818,-0.20579399168491364,3.5366079807281494,170.70001220703125,-129.3000030517578,-13.500000953674316
1014577,-2.831010580062866,13.15316390991211,-9.284375190734863,0.8384199738502502,-10.640312194824219,4.329296112060547,175.5,-136.5,-15.300000190734863
1014597,-2.009162187576294,15.320834159851074,-5.602207183837891,-1.981719970703125,-14.077834129333496,6.204308032989502,168.3000030517578,-136.5,-16.5
1014617,-3.3101232051849365,13.999536514282227,-5.693722724914551,-2.28659987449646,-3.5289859771728516,3.353679895401001,158.70001220703125,-143.70001220703125,-24.900001525878906
1014637,-3.7150659561157227,11.651824951171875,-8.698195457458496,-0.16768398880958557,1.875011920928955,2.9116039276123047,156.3000030517578,-134.10000610351562,-13.500000953674316
1014659,-2.3650572299957275,11.690704345703125,-9.55294132232666,-0.571649968624115,-5.083873748779297,5.6174139976501465,153.90000915527344,-150.90000915527344,-23.700000762939453
1014722,-1.4134118556976318,10.966951370239258,-6.260164260864258,-2.4771499633789062,0.12195199728012085,5.449729919433594,129.90000915527344,-150.90000915527344,-24.900001525878906
1014742,-0.9109717607498169,10.309592247009277,-7.120294094085693,-1.2042759656906128,-0.09908600151538849,6.768335819244385,127.50000762939453,-146.10000610351562,-17.700000762939453
1014765,-0.23327575623989105,10.871846199035645,-5.802585124969482,-1.2728739976882935,-3.193617820739746,7.530535697937012,129.90000915527344,-148.5,-22.5
1014785,-0.5586655139923096,9.368115425109863,-4.896398544311523,-1.7911700010299683,-0.6631140112876892,5.777475833892822,117.9000015258789,-160.5,-19.5
1014805,1.296773910522461,10.440585136413574,-6.208126068115234,-0.060975998640060425,1.3033620119094849,7.332363605499268,122.70000457763672,-160.5,-21.900001525878906
1014825,0.8720924258232117,10.09186840057373,-5.224180698394775,-0.8155539631843567,0.15243999660015106,6.135709762573242,101.10000610351562,-162.90000915527344,-28.500001907348633
1014845,0.2601921856403351,7.726212978363037,-4.48068904876709,-1.013725996017456,2.652456045150757,3.056421995162964,110.70000457763672,-162.90000915527344,-20.100000381469727
1014866,1.3751306533813477,7.131658554077148,-4.761816024780273,0.510673999786377,2.225623846054077,3.094532012939453,113.10000610351562,-170.10000610351562,-26.100000381469727
1014886,1.1197236776351929,5.883334159851074,-3.609194755554199,-0.8917739987373352,1.9131219387054443,1.9740979671478271,98.70000457763672,-165.3000030517578,-24.900001525878906
1014906,1.8632153272628784,6.007149696350098,-3.791030168533325,-0.7698220014572144,4.344540119171143,3.361301898956299,98.70000457763672,-165.3000030517578,-18.30000114440918
1014968,1.4905723333358765,4.856322765350342,-2.5803887844085693,-0.5259180068969727,4.260697841644287,1.8521459102630615,93.9000015258789,-177.3000030517578,-23.100000381469727
1014988,1.4911704063415527,5.379697799682617,-2.187408924102783,-0.38109999895095825,3.5975840091705322,0.9070180058479309,98.70000457763672,-174.90000915527344,-21.30000114440918
1015010,1.9571237564086914,5.301939487457275,-1.8913280963897705,-0.18292799592018127,3.2622158527374268,0.19817200303077698,93.9000015258789,-162.90000915527344,-26.700000762939453
1015070,2.1144354343414307,5.407810688018799,-0.712986409664154,-1.7683039903640747,4.984787940979004,0.1448179930448532,89.10000610351562,-170.10000610351562,-20.100000381469727
1015167,1.3709436655044556,6.089693546295166,0.8284280300140381,-1.0518360137939453,4.085391998291016,-0.09146399796009064,93.9000015258789,-179.70001220703125,-17.700000762939453
1015227,1.339840292930603,8.2561674118042,-0.39537250995635986,0.5792719721794128,4.885701656341553,1.478667974472046,91.5,-167.70001220703125,-17.100000381469727
1015292,1.4947593212127686,8.981715202331543,-0.8284280300140381,-0.26677000522613525,1.806414008140564,0.12195199728012085,84.30000305175781,-170.10000610351562,-17.700000762939453
1015332,1.2913906574249268,9.070240020751953,-1.6060138940811157,0.342989981174469,-0.09146399796009064,0.7088459730148315,84.30000305175781,-165.3000030517578,-20.100000381469727
1015353,1.8745800256729126,10.500997543334961,-1.4552818536758423,-0.12195199728012085,-0.9603719711303711,0.7469559907913208,89.10000610351562,-167.70001220703125,-23.100000381469727
1015394,1.318905234336853,9.39263916015625,-1.9864327907562256,-0.3277460038661957,-0.3734779953956604,-1.8673899173736572,79.5,-167.70001220703125,-20.700000762939453
1015414,0.9839451909065247,8.84174919128418,-1.7956252098083496,-0.08384199440479279,-1.2347639799118042,-2.0122079849243164,84.30000305175781,-162.90000915527344,-15.300000190734863
1015434,1.0048801898956299,8.47030258178711,-1.8889354467391968,0.007621999830007553,-1.3948259353637695,-1.1814099550247192,81.9000015258789,-165.3000030517578,-18.30000114440918
1015454,1.0617038011550903,9.07382869720459,-1.9804513454437256,0.26677000522613525,-1.524399995803833,-0.1295740008354187,96.30000305175781,-167.70001220703125,-18.30000114440918
1015474,1.1765471696853638,9.349573135375977,-2.21492338180542,0.4725639820098877,-1.417691946029663,0.13719600439071655,84.30000305175781,-162.90000915527344,-17.700000762939453
1015494,1.3835047483444214,9.634288787841797,-2.2436342239379883,0.6478700041770935,-1.3872039318084717,0.3125019967556,93.9000015258789,-160.5,-17.700000762939453
1015516,1.5569661855697632,9.68453311920166,-2.337542772293091,0.4725639820098877,-0.8460419774055481,0.2134159952402115,77.10000610351562,-170.10000610351562,-15.90000057220459
1015536,1.5707234144210815,9.820311546325684,-2.5289485454559326,0.35061198472976685,-0.2743920087814331,0.060975998640060425,72.30000305175781,-167.70001220703125,-21.30000114440918
1015556,1.128097653388977,8.929676055908203,-2.551677942276001,-0.015243999660015106,-0.007621999830007553,-0.4420759975910187,84.30000305175781,-167.70001220703125,-25.500001907348633
1015576,1.0419650077819824,8.61983871459961,-2.513396739959717,0.26677000522613525,-0.3048799932003021,0.12195199728012085,81.9000015258789,-167.70001220703125,-18.30000114440918
1015600,0.9689916372299194,8.78492546081543,-2.4607601165771484,0.26677000522613525,-0.3277460038661957,0.2896359860897064,84.30000305175781,-170.10000610351562,-12.90000057220459
1015620,1.1568084955215454,9.628905296325684,-2.5773980617523193,0.3887220025062561,-0.5945159792900085,0.06859800219535828,79.5,-162.90000915527344,-18.900001525878906
1015640,1.2202116250991821,9.73118782043457,-2.628838300704956,0.2896359860897064,-0.6707359552383423,-0.2134159952402115,72.30000305175781,-172.5,-17.100000381469727
1015660,1.1508270502090454,9.125866889953613,-2.507415294647217,-0.015243999660015106,-0.8689079880714417,-0.7698220014572144,81.9000015258789,-160.5,-21.30000114440918
1015680,1.1203217506408691,8.75920581817627,-2.552276134490967,0.20579399168491364,-0.7698220014572144,-0.5411620140075684,86.70000457763672,-153.3000030517578,-14.100000381469727
1015700,1.2052581310272217,8.81004810333252,-2.7024099826812744,0.6097599864006042,-0.5640279650688171,-0.13719600439071655,81.9000015258789,-179.70001220703125,-15.300000190734863
1015722,1.3314661979675293,9.129456520080566,-2.5624444484710693,0.2591480016708374,-0.510673999786377,0.2896359860897064,81.9000015258789,-165.3000030517578,-12.300000190734863
1015742,1.4714317321777344,9.203027725219727,-2.6994192600250244,0.16768398880958557,0.030487999320030212,0.3734779953956604,91.5,-162.90000915527344,-17.700000762939453
1015764,1.436739444732666,9.326245307922363,-2.7460744380950928,0.3048799932003021,0.19054999947547913,0.07621999830007553,77.10000610351562,-162.90000915527344,-18.900001525878906
1015784,1.342831015586853,9.293347358703613,-2.826225519180298,0.20579399168491364,0.41158798336982727,-0.35061198472976685,77.10000610351562,-174.90000915527344,-15.90000057220459
1015804,1.2417447566986084,8.974536895751953,-2.751457691192627,0.114329993724823,0.228659987449646,-0.6554920077323914,93.9000015258789,-174.90000915527344,-17.700000762939453
1015824,1.3254848718643188,8.935657501220703,-2.6102960109710693,-0.20579399168491364,0.2439039945602417,-0.5182960033416748,77.10000610351562,-172.5,-15.90000057220459
1015844,1.3858972787857056,9.021790504455566,-2.5558648109436035,-0.17530599236488342,0.48018598556518555,-0.46494197845458984,91.5,-179.70001220703125,-17.700000762939453
1015866,1.123910665512085,8.933265686035156,-2.640801191329956,-0.17530599236488342,0.7850660085678101,-0.5182960033416748,89.10000610351562,-170.10000610351562,-14.700000762939453
1015887,0.9223364591598511,8.974536895751953,-2.8722825050354004,-0.015243999660015106,0.8384199738502502,-0.5030519962310791,84.30000305175781,-174.90000915527344,-14.100000381469727
1015907,0.9378882050514221,8.902161598205566,-2.841179132461548,0.17530599236488342,0.46494197845458984,-0.33536797761917114,77.10000610351562,-158.10000610351562,-20.100000381469727
1015927,1.1879119873046875,9.127063751220703,-2.786748170852661,0.3887220025062561,0.16768398880958557,-0.2896359860897064,84.30000305175781,-182.10000610351562,-14.100000381469727
1015989,1.3201014995574951,9.139026641845703,-2.9649946689605713,0.18292799592018127,0.36585599184036255,-0.18292799592018127,84.30000305175781,-155.70001220703125,-17.100000381469727
1016049,1.3655604124069214,9.24429988861084,-2.724541187286377,0.02286599949002266,-0.1600620001554489,0.05335399881005287,89.10000610351562,-170.10000610351562,-20.700000762939453
1016069,1.3691492080688477,8.86567497253418,-2.6240532398223877,-0.6707359552383423,0,-0.39634400606155396,96.30000305175781,-167.70001220703125,-12.90000057220459
1016089,1.2010711431503296,8.652137756347656,-2.859123468399048,-0.3734779953956604,0.12195199728012085,-0.228659987449646,81.9000015258789,-158.10000610351562,-16.5
1016109,1.104171872138977,8.97035026550293,-2.859123468399048,-0.05335399881005287,-0.3125019967556,-0.10670799762010574,79.5,-172.5,-12.300000190734863
1016172,1.1502289772033691,8.89857292175293,-2.8812546730041504,-0.2134159952402115,-0.4725639820098877,-0.6021379828453064,79.5,-170.10000610351562,-17.100000381469727
1016287,1.2979702949523926,8.66350269317627,-3.5786893367767334,-0.2439039945602417,0.8155539631843567,-0.20579399168491364,96.30000305175781,-172.5,-9.90000057220459
1016307,1.6622393131256104,8.77296257019043,-3.7342066764831543,-0.28201398253440857,0.6250039935112,-0.09146399796009064,91.5,-158.10000610351562,-18.30000114440918
1016349,2.3650572299957275,8.29504680633545,-5.321678161621094,0.8155539631843567,2.942091941833496,0.09146399796009064,93.9000015258789,-167.70001220703125,-16.5
1016389,3.1396524906158447,8.771766662597656,-5.790622234344482,1.3490939140319824,3.513741970062256,-0.3582339882850647,81.9000015258789,-165.3000030517578,-18.30000114440918
1016409,3.3824985027313232,7.922403812408447,-4.761816024780273,1.0975680351257324,2.027451992034912,-2.4161739349365234,81.9000015258789,-172.5,-21.900001525878906
1016429,3.767104387283325,6.373811721801758,-4.148121356964111,1.0442140102386475,3.3384358882904053,-3.7805118560791016,84.30000305175781,-165.3000030517578,-17.100000381469727
1016475,3.872377634048462,4.332947731018066,-2.033087968826294,1.3567159175872803,4.405515670776367,-5.487839698791504,91.5,-158.10000610351562,-12.90000057220459
1016495,4.335938453674316,4.998082637786865,-0.8828590512275696,0.8384199738502502,6.265284061431885,-4.961921691894531,91.5,-167.70001220703125,-11.700000762939453
1016515,3.941164016723633,4.744470119476318,-0.4665515124797821,-0.800309956073761,8.650969505310059,-6.379613876342773,101.10000610351562,-155.70001220703125,-8.100000381469727
1016535,2.855534553527832,3.2227942943573,-0.16807816922664642,-1.4939119815826416,8.803409576416016,-8.574749946594238,108.30000305175781,-167.70001220703125,-17.700000762939453
1016557,3.1671669483184814,3.4447054862976074,1.396663784980774,-0.6173819899559021,5.403997898101807,-8.269869804382324,103.50000762939453,-153.3000030517578,-8.700000762939453
1016577,1.82553231716156,2.8567309379577637,1.5767048597335815,-0.9527499675750732,7.50004768371582,-9.57323169708252,117.9000015258789,-153.3000030517578,-16.5
1016597,0.8499611616134644,2.9793500900268555,1.1233124732971191,0.26677000522613525,6.615895748138428,-9.35981559753418,129.90000915527344,-148.5,-11.700000762939453
1016617,0.8786720037460327,4.9047722816467285,1.094003438949585,0.7698220014572144,4.10825777053833,-8.300357818603516,137.10000610351562,-143.70001220703125,-15.90000057220459
1016637,-0.8493630290031433,3.5840725898742676,1.511507272720337,-0.07621999830007553,4.009171962738037,-10.28207778930664,144.3000030517578,-148.5,-5.100000381469727
1016657,-2.6336236000061035,4.070960998535156,-0.15671345591545105,1.6768399477005005,4.146368026733398,-8.300357818603516,153.90000915527344,-141.3000030517578,-6.900000095367432
1016677,-2.661736249923706,6.72851037979126,0.060412440448999405,1.806414008140564,0,-5.533571720123291,165.90000915527344,-129.3000030517578,-7.500000476837158
1016697,-3.011051654815674,8.0827054977417,1.035983681678772,-0.5487840175628662,-1.4024479389190674,-5.152472019195557,161.10000610351562,-134.10000610351562,-7.500000476837158
1016717,-4.97774600982666,6.799091339111328,0.9199438691139221,-0.685979962348938,1.4100699424743652,-6.493943691253662,165.90000915527344,-141.3000030517578,-10.5
1016740,-5.984420299530029,7.768082618713379,-1.435543179512024,1.7835479974746704,3.1402640342712402,-3.292703866958618,161.10000610351562,-131.70001220703125,-9.90000057220459
1016761,-4.94484806060791,10.50219440460205,-2.19398832321167,2.583858013153076,-0.2439039945602417,-0.7240899801254272,180.3000030517578,-129.3000030517578,-3.9000000953674316
1016781,-4.493249893188477,12.613040924072266,-0.6394148468971252,1.371959924697876,-5.1067399978637695,-1.6692179441452026,177.90000915527344,-138.90000915527344,-9.300000190734863
1016802,-7.050909519195557,11.333613395690918,-1.9696848392486572,0.3201240003108978,-1.7911700010299683,-4.237832069396973,168.3000030517578,-126.9000015258789,-8.700000762939453
1016822,-6.96956205368042,10.726497650146484,-3.67798113822937,1.2195199728012085,-4.093013763427734,-2.6067240238189697,177.90000915527344,-126.9000015258789,-11.100000381469727
1016842,-5.269639492034912,12.620816230773926,-2.530144691467285,2.278977870941162,-9.588476181030273,0.5030519962310791,187.5,-126.9000015258789,-5.100000381469727
1016862,-6.906158924102783,14.72986888885498,-3.6109890937805176,1.6082419157028198,-5.9680256843566895,0.6250039935112,182.70001220703125,-129.3000030517578,-7.500000476837158
1016882,-6.903168201446533,13.749512672424316,-5.368931293487549,1.3948259353637695,-6.227173805236816,0.35061198472976685,175.5,-112.50000762939453,-10.5
1016902,-3.502725124359131,14.692185401916504,-3.374722719192505,0.2591480016708374,-13.795819282531738,2.835383892059326,180.3000030517578,-119.70000457763672,-9.300000190734863
1016925,-7.184295177459717,12.990468978881836,-2.5086116790771484,-1.5091559886932373,-2.903981924057007,0.5564059615135193,197.10000610351562,-124.50000762939453,-16.5
1016945,-5.733200550079346,15.485322952270508,-6.663312911987305,-0.33536797761917114,0.25152599811553955,3.300325870513916,180.3000030517578,-117.30000305175781,-13.500000953674316
1016966,-4.71875,15.128829956054688,-4.88802433013916,-3.7424018383026123,-11.090009689331055,-0.510673999786377,187.5,-119.70000457763672,-17.100000381469727
1016986,-8.45534896850586,11.571674346923828,-3.6402981281280518,-0.8917739987373352,-4.626554012298584,-0.9832379817962646,187.5,-134.10000610351562,-16.5
1017006,-6.72851037979126,16.358013153076172,-8.41646957397461,1.242385983467102,2.888737916946411,5.289668083190918,197.10000610351562,-122.10000610351562,-17.100000381469727
1017030,-5.141636848449707,16.43218421936035,-10.043418884277344,0.13719600439071655,-5.632658004760742,1.8369019031524658,180.3000030517578,-126.9000015258789,-12.90000057220459
1017050,-5.8737640380859375,13.37028980255127,-7.746549606323242,0.038109999150037766,-13.544293403625488,1.371959924697876,187.5,-129.3000030517578,-18.30000114440918
1017070,-4.470520496368408,16.424407958984375,-7.072442531585693,-0.02286599949002266,-11.410133361816406,5.365887641906738,182.70001220703125,-131.70001220703125,-21.30000114440918
1017090,-3.69293475151062,15.472164154052734,-7.699296474456787,-0.1448179930448532,-7.545779705047607,2.9344699382781982,173.10000610351562,-141.3000030517578,-22.5
1017113,-4.061988830566406,13.448646545410156,-7.990592002868652,0.8612859845161438,-8.277491569519043,4.664663791656494,185.10000610351562,-134.10000610351562,-20.700000762939453
1017133,-3.7718896865844727,13.763269424438477,-8.023489952087402,0.4420759975910187,-7.743951797485352,6.044245719909668,170.70001220703125,-146.10000610351562,-18.900001525878906
1017153,-2.456573247909546,14.477452278137207,-7.843448638916016,-0.44969800114631653,-8.033587455749512,7.012239933013916,158.70001220703125,-143.70001220703125,-24.900001525878906
1017193,-1.3697474002838135,13.372682571411133,-7.282989025115967,-1.8902559280395508,-6.105221748352051,7.294253826141357,153.90000915527344,-153.3000030517578,-19.5
1017213,-1.037179946899414,12.701565742492676,-6.164461612701416,-3.4375219345092773,-5.807963848114014,6.326260089874268,153.90000915527344,-143.70001220703125,-21.30000114440918
1017233,-0.8529518842697144,10.761190414428711,-5.9335784912109375,-2.843005895614624,-3.2850818634033203,5.708878040313721,139.5,-150.90000915527344,-24.30000114440918
1017254,-0.052038438618183136,10.3795747756958,-5.576487064361572,-1.7454379796981812,-3.1859958171844482,6.577785968780518,137.10000610351562,-143.70001220703125,-30.30000114440918
1017274,0.11903045326471329,9.563708305358887,-4.4071173667907715,-1.6692179441452026,-2.5228819847106934,6.135709762573242,137.10000610351562,-153.3000030517578,-27.900001525878906
1017294,0.6334334015846252,8.918312072753906,-4.058998107910156,-0.853663980960846,-0.5487840175628662,5.899427890777588,120.30000305175781,-162.90000915527344,-22.5
1017315,0.808689296245575,8.098855972290039,-3.7718896865844727,-0.46494197845458984,0.7774440050125122,5.403997898101807,125.10000610351562,-160.5,-24.30000114440918
1017336,1.104171872138977,7.958292007446289,-3.827516794204712,0.3277460038661957,1.8521459102630615,5.129605770111084,110.70000457763672,-167.70001220703125,-25.500001907348633
1017356,0.8350076079368591,7.029974460601807,-3.5302398204803467,0.48018598556518555,1.9207439422607422,3.7728898525238037,110.70000457763672,-158.10000610351562,-24.900001525878906
1017376,0.9618139266967773,6.223079681396484,-3.141446828842163,0.1600620001554489,2.378063917160034,3.5366079807281494,110.70000457763672,-153.3000030517578,-26.100000381469727
1017398,1.3757288455963135,6.124385833740234,-2.822636604309082,0.33536797761917114,2.949713945388794,3.399411916732788,105.9000015258789,-162.90000915527344,-24.900001525878906
1017418,1.6119953393936157,5.048924922943115,-1.9954049587249756,0.7317119836807251,3.407033920288086,0.7698220014572144,110.70000457763672,-170.10000610351562,-24.30000114440918
1017438,1.9684885740280151,4.667309761047363,-1.8380934000015259,1.0061039924621582,3.9253299236297607,0.6478700041770935,93.9000015258789,-160.5,-24.30000114440918
1017458,1.7782790660858154,3.859816551208496,-1.4959555864334106,0.7469559907913208,4.939055919647217,0.3201240003108978,105.9000015258789,-160.5,-20.700000762939453
1017482,2.3178040981292725,4.3772101402282715,-1.4600670337677002,1.0061039924621582,6.509187698364258,1.4024479389190674,98.70000457763672,-174.90000915527344,-24.30000114440918
1017502,2.2765321731567383,4.22169303894043,-1.2489224672317505,1.2271419763565063,7.057971954345703,1.0899460315704346,98.70000457763672,-167.70001220703125,-21.900001525878906
1017522,2.4003477096557617,4.785741806030273,-1.0437594652175903,1.2118979692459106,7.347607612609863,1.0899460315704346,103.50000762939453,-160.5,-25.500001907348633
1017542,2.202362537384033,4.809069633483887,-1.0288058519363403,0.7698220014572144,8.201272010803223,0.33536797761917114,86.70000457763672,-167.70001220703125,-18.30000114440918
1017602,2.3034486770629883,5.980831623077393,-0.7458842992782593,0.5868939757347107,7.21041202545166,-0.2743920087814331,96.30000305175781,-165.3000030517578,-18.900001525878906
1017643,1.6837724447250366,6.002963066101074,-0.8750831484794617,-0.228659987449646,6.562541961669922,-1.8978779315948486,91.5,-162.90000915527344,-12.300000190734863
1017663,1.6036213636398315,6.556843280792236,-1.0395724773406982,0.7698220014572144,5.320156097412109,-1.7759259939193726,93.9000015258789,-170.10000610351562,-13.500000953674316
1017703,1.8542431592941284,8.199941635131836,-0.9037940502166748,1.425313949584961,2.278977870941162,-2.042695999145508,91.5,-162.90000915527344,-18.30000114440918
1017810,-0.4545886516571045,9.90644359588623,-2.3094301223754883,-0.41158798336982727,-0.3277460038661957,-0.35061198472976685,96.30000305175781,-160.5,-18.900001525878906
1017850,-0.46714967489242554,9.607970237731934,-2.42008638381958,-0.7469559907913208,-0.6707359552383423,-0.510673999786377,103.50000762939453,-158.10000610351562,-17.700000762939453
1017870,-0.41451308131217957,9.514659881591797,-2.558257579803467,-0.48018598556518555,-1.2500079870224,-0.6478700041770935,115.50000762939453,-172.5,-17.700000762939453
1017911,0.2661736309528351,9.652233123779297,-2.6013238430023193,-1.0975680351257324,-1.3948259353637695,0.6631140112876892,103.50000762939453,-160.5,-15.90000057220459
1017954,0.5909652709960938,9.177308082580566,-2.5983331203460693,-1.0899460315704346,-1.6387299299240112,0.8155539631843567,91.5,-162.90000915527344,-15.300000190734863
1017974,0.8702980279922485,9.215588569641113,-2.343524217605591,-0.9832379817962646,-1.425313949584961,0.7469559907913208,96.30000305175781,-160.5,-12.300000190734863
1018014,0.709995687007904,9.128857612609863,-2.6754934787750244,-0.5945159792900085,-0.6402480006217957,-0.1448179930448532,108.30000305175781,-167.70001220703125,-10.5
1018054,0.4988512396812439,8.695802688598633,-2.7682056427001953,-0.12195199728012085,-1.0823240280151367,-0.3582339882850647,101.10000610351562,-160.5,-14.700000762939453
1018144,0.711790144443512,9.159363746643066,-2.854936361312866,-0.36585599184036255,-0.7012239694595337,-0.07621999830007553,96.30000305175781,-162.90000915527344,-14.700000762939453
1018208,0.8403908610343933,9.004444122314453,-2.727531909942627,-0.10670799762010574,-1.3186060190200806,0.02286599949002266,113.10000610351562,-167.70001220703125,-19.5
1018268,1.0581148862838745,8.83696460723877,-2.423675298690796,0.06859800219535828,-0.6326259970664978,0.030487999320030212,103.50000762939453,-172.5,-14.700000762939453
1018288,0.8918311595916748,9.353161811828613,-2.664726972579956,-0.08384199440479279,0.09908600151538849,-0.015243999660015106,93.9000015258789,-165.3000030517578,-20.700000762939453
1018328,0.712388277053833,9.605578422546387,-2.551079750061035,0.1295740008354187,0.7317119836807251,0.13719600439071655,96.30000305175781,-153.3000030517578,-23.700000762939453
1018349,0.6047225594520569,9.297533988952637,-2.6850638389587402,-0.5335400104522705,0.9908599853515625,-0.5564059615135193,110.70000457763672,-160.5,-10.5
1018389,0.6316390037536621,8.980518341064453,-2.6402029991149902,-0.09146399796009064,0.6250039935112,-0.09908600151538849,93.9000015258789,-153.3000030517578,-14.100000381469727
1018409,0.7560527324676514,9.107922554016113,-2.5744073390960693,0.3048799932003021,0.15243999660015106,0.23628199100494385,81.9000015258789,-165.3000030517578,-15.90000057220459
1018429,0.8260354399681091,9.263440132141113,-2.5678277015686035,0.20579399168491364,-0.060975998640060425,0.4039659798145294,98.70000457763672,-155.70001220703125,-17.700000762939453
1018449,0.7674174308776855,8.87763786315918,-2.6043145656585693,-0.09908600151538849,-0.18292799592018127,0.510673999786377,96.30000305175781,-160.5,-20.100000381469727
1018511,0.6495832800865173,9.427929878234863,-2.6838674545288086,-1.1737879514694214,0.007621999830007553,0.07621999830007553,91.5,-165.3000030517578,-17.700000762939453
1018627,1.214828372001648,9.090577125549316,-2.5767998695373535,-0.800309956073761,0.6478700041770935,0.3734779953956604,91.5,-165.3000030517578,-18.900001525878906
1018648,1.137069821357727,8.640174865722656,-2.852543830871582,-0.3887220025062561,0.6097599864006042,-0.19054999947547913,91.5,-160.5,-14.700000762939453
1018688,2.2400453090667725,9.17850399017334,-3.2921788692474365,-0.342989981174469,0.9984819889068604,-0.19054999947547913,91.5,-162.90000915527344,-15.90000057220459
1018708,2.322589159011841,8.951807975769043,-3.538613796234131,-0.5259180068969727,1.9969639778137207,-0.8612859845161438,101.10000610351562,-162.90000915527344,-18.900001525878906
1018728,2.101276159286499,8.144912719726562,-4.267750263214111,-0.09146399796009064,3.7805118560791016,-1.600619912147522,105.9000015258789,-162.90000915527344,-16.5
1018750,2.7323172092437744,8.65871810913086,-5.303135395050049,1.699705958366394,3.810999870300293,-0.6402480006217957,93.9000015258789,-165.3000030517578,-14.700000762939453
1018810,3.2144203186035156,7.541386604309082,-3.681570053100586,-0.7012239694595337,5.6174139976501465,-2.538125991821289,98.70000457763672,-177.3000030517578,-18.900001525878906
1018867,3.615774154663086,6.577179908752441,-2.584575891494751,-1.2347639799118042,9.53512191772461,-5.708878040313721,105.9000015258789,-155.70001220703125,-12.90000057220459
1018886,2.872880697250366,4.60809326171875,-2.032489776611328,-0.5487840175628662,9.512255668640137,-7.301876068115234,115.50000762939453,-158.10000610351562,-15.300000190734863
1018930,2.7550466060638428,3.085221529006958,-0.12202116847038269,-0.114329993724823,10.198235511779785,-6.143332004547119,115.50000762939453,-160.5,-11.100000381469727
1018970,1.6634355783462524,3.9949967861175537,-0.7626323103904724,-0.342989981174469,12.378128051757812,-7.477181911468506,129.90000915527344,-141.3000030517578,-14.700000762939453
1018990,0.8780738711357117,3.141446828842163,-0.13278773427009583,-0.22103799879550934,9.237863540649414,-8.887251853942871,129.90000915527344,-148.5,-13.500000953674316
1019010,0.3738393485546112,2.0366768836975098,0.4797106683254242,-0.20579399168491364,7.324741840362549,-9.557988166809082,139.5,-150.90000915527344,-12.90000057220459
1019050,-0.6747052669525146,4.234253883361816,0.16987259685993195,3.3765459060668945,3.8338658809661865,-6.859799861907959,141.90000915527344,-138.90000915527344,-10.5
1019108,-2.6210625171661377,9.028369903564453,1.1454437971115112,0.9375059604644775,1.1280559301376343,-4.1387457847595215,168.3000030517578,-129.3000030517578,-1.5
1019128,-3.9626972675323486,7.381682395935059,-0.2960807681083679,1.8140360116958618,2.637212038040161,-7.126569747924805,165.90000915527344,-136.5,-9.300000190734863
1019168,-3.594241142272949,10.787508010864258,-0.7632304430007935,2.1189160346984863,-3.96343994140625,-2.4009299278259277,165.90000915527344,-138.90000915527344,-8.100000381469727
1019289,-7.306914329528809,13.47675895690918,-4.0793352127075195,-0.39634400606155396,-7.721086025238037,2.0503180027008057,192.3000030517578,-119.70000457763672,-3.9000000953674316
1019329,-9.308300971984863,9.559520721435547,-2.781364917755127,0.7545779943466187,-7.71346378326416,-2.5609920024871826,199.50001525878906,-119.70000457763672,-3.3000001907348633
1019349,-8.191568374633789,12.021477699279785,-5.0124382972717285,2.6295900344848633,-5.434485912322998,5.945159912109375,204.3000030517578,-107.70000457763672,-7.500000476837158
1019372,-5.712265491485596,13.89306640625,-5.389268398284912,1.577754020690918,-8.079319953918457,4.314052104949951,189.90000915527344,-119.70000457763672,-14.100000381469727
1019412,-4.625439643859863,15.260421752929688,-8.887207984924316,3.4832539558410645,-4.847591876983643,9.489389419555664,185.10000610351562,-122.10000610351562,-15.90000057220459
1019456,-5.553757667541504,14.16103458404541,-4.9047722816467285,-0.7088459730148315,-11.775989532470703,2.179892063140869,180.3000030517578,-131.70001220703125,-14.100000381469727
1019476,-5.454465866088867,14.80044937133789,-8.061172485351562,2.240867853164673,-1.5701320171356201,4.268320083618164,182.70001220703125,-126.9000015258789,-12.90000057220459
1019496,-2.8872361183166504,16.328105926513672,-10.426230430603027,2.3551979064941406,-7.629621982574463,4.885701656341553,170.70001220703125,-143.70001220703125,-12.300000190734863
1019536,-3.3645541667938232,14.21486759185791,-5.970663070678711,0.6402480006217957,-10.396408081054688,5.510705947875977,175.5,-143.70001220703125,-15.90000057220459
1019558,-3.4291536808013916,14.08327579498291,-7.7309980392456055,0.2439039945602417,-6.471077919006348,5.175337791442871,163.5,-138.90000915527344,-15.90000057220459
1019579,-2.6449882984161377,13.547938346862793,-7.7130537033081055,-0.426831990480423,-8.544261932373047,6.029001712799072,158.70001220703125,-136.5,-24.30000114440918
1019599,-2.3034486770629883,13.378664016723633,-6.762604236602783,-1.6158639192581177,-8.772921562194824,6.2729058265686035,168.3000030517578,-150.90000915527344,-13.500000953674316
1019662,-0.28292161226272583,11.656012535095215,-5.669797420501709,-2.492393970489502,-7.789683818817139,6.74547004699707,146.70001220703125,-148.5,-20.100000381469727
1019782,0.23148132860660553,8.008536338806152,-5.039952754974365,-0.739333987236023,0.7240899801254272,4.153989791870117,129.90000915527344,-165.3000030517578,-29.100000381469727
1019827,1.5270589590072632,7.268035411834717,-3.1432414054870605,-0.8689079880714417,1.7225719690322876,3.871975898742676,108.30000305175781,-158.10000610351562,-24.900001525878906
1019847,1.2531095743179321,6.477290153503418,-3.195279836654663,-1.3033620119094849,5.480217933654785,2.446661949157715,103.50000762939453,-167.70001220703125,-20.100000381469727
1019889,1.2447354793548584,4.92391300201416,-2.0127511024475098,-0.16768398880958557,5.914671897888184,0.8231759667396545,103.50000762939453,-160.5,-17.700000762939453
1019909,1.7968214750289917,4.758227348327637,-1.7950270175933838,0.3048799932003021,6.74547004699707,0.8993960022926331,110.70000457763672,-158.10000610351562,-26.100000381469727
1019931,1.720259189605713,4.4609503746032715,-1.1950896978378296,-0.15243999660015106,6.128087997436523,0.7545779943466187,103.50000762939453,-153.3000030517578,-29.700000762939453
1019951,1.821345329284668,4.274329662322998,-0.6663312911987305,-0.3277460038661957,7.057971954345703,0.7545779943466187,96.30000305175781,-165.3000030517578,-29.100000381469727
1019992,2.354290723800659,5.111729621887207,-0.10347873717546463,-0.7926880121231079,7.637243747711182,1.1356779336929321,91.5,-165.3000030517578,-20.100000381469727
1020012,2.367449998855591,5.814548015594482,-0.22609804570674896,-0.9451279640197754,8.795787811279297,0.20579399168491364,101.10000610351562,-162.90000915527344,-17.100000381469727
1020032,2.0970892906188965,5.330051898956299,-0.91874760389328,-0.426831990480423,9.001582145690918,-1.6158639192581177,98.70000457763672,-170.10000610351562,-20.100000381469727
1020052,1.8991038799285889,4.737890243530273,-1.0892183780670166,0.7088459730148315,7.324741840362549,-1.7378159761428833,93.9000015258789,-162.90000915527344,-17.700000762939453
1020072,2.2789247035980225,5.8199310302734375,-0.7602397203445435,1.9436099529266357,5.495461940765381,-0.06859800219535828,101.10000610351562,-160.5,-26.100000381469727
1020093,2.6007256507873535,7.2088189125061035,-0.6364241242408752,1.577754020690918,5.533571720123291,0.342989981174469,105.9000015258789,-170.10000610351562,-23.700000762939453
1020113,1.417000651359558,7.2118096351623535,-1.1274994611740112,0.9070180058479309,6.181441783905029,-0.7850660085678101,98.70000457763672,-160.5,-14.700000762939453
1020136,1.1771453619003296,7.159173011779785,-1.1843230724334717,0.9908599853515625,5.754610061645508,-0.7012239694595337,98.70000457763672,-160.5,-15.90000057220459
