time,sensor_accX,sensor_accY,sensor_accZ,sensor_gyroX,sensor_gyroY,sensor_gyroZ,sensor_magX,sensor_magY,sensor_magZ,label_Boxing_slip_left,label_Boxing_slip_right,label_Boxing_pullback,label_Boxing_roll_left,label_Boxing_roll_right,label_Boxing_recording_cut
407775,2.8692918,9.086988,-1.4750205,-0.015244,-0.541162,-0.03811,29.1,-162.90001,-24.900002,,,,,,
407797,2.932097,9.234131,-1.472628,-0.16768399,-0.41921,-0.243904,19.5,-174.90001,-25.500002,,,,,,
407817,2.9470503,9.139625,-1.4337487,-0.198172,-0.289636,-0.45731997,31.500002,-186.90001,-27.300001,,,,,,
407839,2.986528,9.012818,-1.3631679,-0.182928,-0.16768399,-0.53354,33.9,-165.3,-21.900002,,,,,,
407860,2.9338913,8.594716,-1.3356533,-0.312502,-0.007622,-0.655492,26.7,-179.70001,-24.300001,,,,,,
407881,3.0104535,8.73528,-1.3547938,0.144818,0.198172,-0.541162,29.1,-174.90001,-28.500002,,,,,,
407901,2.9135544,8.406899,-1.447506,-0.129574,0.213416,-0.777444,41.100002,-179.70001,-30.300001,,,,,,
407921,2.6886528,7.650847,-1.351205,0.17530599,0.198172,-1.044214,24.300001,-170.1,-27.900002,,,,,,
407941,2.7293265,7.7710733,-1.6592486,1.02897,0.81555396,-0.45731997,29.1,-167.70001,-29.1,,,,,,
407963,3.0272017,9.143811,-2.1610906,1.6006199,1.250008,0.11432999,24.300001,-182.1,-20.7,,,,,,
408025,2.9051805,8.808851,-3.145634,1.493912,1.189032,-1.745438,33.9,-162.90001,-21.300001,,,,,,
408046,2.8657029,8.545669,-3.4046297,1.8673899,0.792688,-1.6387299,50.7,-184.5,-22.5,,,,,,
408066,2.9614058,9.281384,-3.4608552,1.8445239,0.449698,-1.280496,33.9,-172.5,-21.900002,,,,,,
408087,3.024211,9.412377,-3.6283352,1.310984,0.396344,-1.783548,31.500002,-177.3,-23.1,,,,,,
408107,3.020622,9.051698,-3.422574,0.746956,-0.091464,-1.996964,45.9,-191.70001,-29.7,,,,,,
408127,2.9853315,8.472695,-3.250907,0.129574,-0.053354,-1.958854,41.100002,-174.90001,-18.900002,,,,,,
408147,2.844768,7.8793373,-3.0600994,-0.091464,0.121952,-1.516778,31.500002,-179.70001,-19.5,,,,,,
408167,2.8896286,8.148501,-3.0200238,-0.312502,0.28201398,-0.41921,45.9,-174.90001,-20.7,,,,,,
408187,2.89561,8.271121,-3.1067545,-0.785066,0.45731997,-0.243904,41.100002,-184.5,-23.7,,,,,,
408207,2.978154,8.234634,-3.0864177,-0.975616,0.289636,-0.19055,43.5,-172.5,-26.7,,,,,,
408227,2.9679854,8.022892,-3.0690715,-1.044214,0.22865999,-0.20579399,38.7,-172.5,-21.300001,,,,,,
408247,2.9925094,7.857206,-3.061894,-0.884152,0.068598,-0.11432999,43.5,-184.5,-19.5,,,,,,
408268,3.100175,8.078519,-3.0571086,-0.602138,0.022866,0.060976,36.300003,-174.90001,-27.300001,,,,,,
408288,3.2156167,8.470303,-3.221,-0.510674,0.07622,0.060976,43.5,-174.90001,-29.1,,,,,,
408308,3.1869059,8.390151,-3.279618,-0.792688,0.022866,-0.26677,57.9,-172.5,-28.500002,,,,,,
408328,3.212626,8.534902,-3.4082186,-0.602138,-0.083841994,-0.320124,36.300003,-170.1,-20.1,,,,,,
408352,3.1246989,8.34888,-3.3819003,-0.83842,-0.26677,-0.53354,41.100002,-179.70001,-25.500002,,,,,,
408373,3.1988685,8.527126,-3.417789,-0.617382,-0.525918,-0.548784,41.100002,-182.1,-27.900002,,,,,,
408393,3.175541,8.470901,-3.2616737,-0.960372,-0.708846,-0.739334,50.7,-177.3,-24.900002,,,,,,
408413,3.3382359,8.817823,-3.2365515,-0.95274997,-0.739334,-0.53354,43.5,-162.90001,-29.1,,,,,,
408433,3.5571563,9.476379,-3.0816326,-1.204276,-0.868908,-0.388722,43.5,-174.90001,-20.7,,,,,,
408453,3.6743922,9.762292,-3.0804362,-1.440558,-0.548784,-0.57164997,43.5,-167.70001,-21.300001,,,,,,
408476,3.3663487,9.018202,-2.39317,-1.532022,-1.211898,-1.013726,48.300003,-177.3,-23.7,,,,,,
408496,2.798711,8.096463,-1.5192832,-1.8978779,-1.1128119,-0.899396,55.500004,-189.3,-23.7,,,,,,
408516,2.928508,9.326245,-1.8440747,-1.158544,0.35061198,0.3811,48.300003,-179.70001,-26.7,,,,,,
408558,1.8016067,9.443481,-1.3894861,-2.2865999,0.579272,-1.684462,41.100002,-174.90001,-27.900002,,,,,,
408578,1.3745326,9.072035,-0.9953099,-1.8292799,-0.053354,-1.48629,57.9,-182.1,-28.500002,,,,,,
408598,1.1023775,9.467407,-0.861924,-1.951232,0.716468,-0.975616,48.300003,-189.3,-29.1,,,,,,
408620,0.21592961,8.509182,-1.0060765,-1.775926,1.189032,-1.730194,53.100002,-179.70001,-29.7,,,,,,
408640,-0.74708056,8.788515,-1.0276096,-0.777444,1.318606,-0.56402797,50.7,-170.1,-23.7,,,,,,
408662,-1.4158044,10.192954,-1.7280351,-0.769822,0.87653,-0.83842,43.5,-189.3,-21.300001,,,,,,
408682,-1.2202116,10.755807,-1.982844,0.22865999,0.259148,-1.585376,43.5,-170.1,-26.7,,,,,,
408742,-0.89601815,10.192356,-1.4690391,-0.586894,-0.327746,-1.265252,62.7,-177.3,-26.7,,,,,,
408762,-0.64120924,9.785021,-1.4277673,-0.80030996,-0.16768399,-0.274392,53.100002,-174.90001,-30.300001,,,,,,
408782,-0.34871736,9.584044,-1.2668668,-0.998482,-0.586894,0.884152,65.100006,-167.70001,-30.900002,,,,,,
408802,0.023925718,9.317871,-1.0999849,-1.189032,-0.449698,1.532022,67.5,-170.1,-23.1,,,,,,
408824,0.45638308,9.531408,-1.16279,-1.166166,-0.68597996,1.798792,53.100002,-177.3,-32.100002,,,,,,
408844,0.48629025,9.025379,-1.0539279,-1.051836,-0.983238,0.960372,38.7,-177.3,-29.7,,,,,,
408866,0.65795726,8.94463,-1.025217,-0.365856,-1.6234859,0.83842,45.9,-174.90001,-30.900002,,,,,,
408886,0.8045023,8.850123,-0.8601296,-0.182928,-1.8978779,0.442076,55.500004,-174.90001,-29.1,,,,,,
408908,1.2124358,8.932667,-0.8248392,0.144818,-2.004586,0.11432999,50.7,-167.70001,-24.300001,,,,,,
408932,1.5276572,8.901564,-0.3828115,-0.129574,-2.2256238,0.091464,33.9,-172.5,-23.1,,,,,,
408952,1.5641439,9.030165,-0.63522786,0.41921,-1.097568,0.41921,41.100002,-165.3,-26.7,,,,,,
408972,1.4313561,9.536792,-0.81048375,0.3811,-0.846042,0.297258,50.7,-177.3,-24.300001,,,,,,
408995,1.079648,8.78672,-0.8798683,0.015244,-0.137196,-0.67073596,55.500004,-170.1,-23.1,,,,,,
409035,1.6753985,10.052391,-1.2267913,1.6463519,-0.26677,-0.289636,43.5,-165.3,-23.7,,,,,,
409055,1.4905723,9.79818,-1.5001426,1.280496,0.20579399,-1.150922,48.300003,-179.70001,-30.300001,,,,,,
409075,1.4690391,9.375891,-1.543807,1.516778,0.289636,-1.478668,41.100002,-170.1,-29.1,,,,,,
409095,1.5097128,9.377088,-1.6640338,1.547266,0.487808,-1.6082419,55.500004,-172.5,-27.900002,,,,,,
409115,1.6753985,9.3130865,-1.7597367,1.478668,0.45731997,-1.8826339,50.7,-165.3,-24.900002,,,,,,
409159,2.108454,8.5139675,-1.8386915,1.089946,1.06708,-2.370442,69.9,-172.5,-27.300001,,,,,,
409180,2.2532046,8.631802,-2.3770201,0.739334,1.44818,-1.577754,53.100002,-179.70001,-25.500002,,,,,,
409220,2.89561,9.499108,-2.748467,0.327746,2.378064,-1.006104,67.5,-170.1,-25.500002,,,,,,
409240,3.167167,10.552439,-3.4578645,0.221038,3.2393498,-0.60976,69.9,-179.70001,-19.5,,,,,,
409260,3.0642865,10.195347,-3.7629175,-0.34298998,2.2942219,-1.951232,65.100006,-184.5,-32.100002,,,,,,
409282,2.9255173,9.127662,-3.6414945,0.068598,1.6158639,-2.469528,62.7,-177.3,-22.5,,,,,,
409304,2.60252,8.680251,-3.6056058,0.19055,0.907018,-2.309466,65.100006,-170.1,-20.7,,,,,,
409324,2.7562428,8.97035,-3.6749904,0.426832,0.327746,-1.8597679,67.5,-165.3,-23.1,,,,,,
409344,2.81187,8.772963,-3.5314362,0.312502,0.19055,-2.004586,72.3,-160.5,-22.5,,,,,,
409368,2.8064868,8.486452,-3.426163,0.137196,0.060976,-1.8597679,60.300003,-174.90001,-20.1,,,,,,
409388,2.86989,8.558827,-3.3603673,-0.060976,0.007622,-1.3567159,69.9,-165.3,-18.300001,,,,,,
409410,2.7185597,8.287869,-3.0965862,-1.051836,0.068598,-1.440558,89.100006,-170.1,-26.7,,,,,,
409430,2.652166,7.9941807,-2.8435717,-1.1128119,-0.198172,-1.432936,69.9,-167.70001,-24.300001,,,,,,
409450,2.8130665,8.214895,-2.606109,-1.44818,0.015244,-1.036592,74.700005,-167.70001,-29.1,,,,,,
409470,2.8465624,8.522939,-2.677288,-1.577754,0.144818,-0.92988396,60.300003,-167.70001,-22.5,,,,,,
409490,2.874675,8.647353,-2.5415094,-1.5929979,-0.053354,-0.777444,81.9,-165.3,-24.900002,,,,,,
409514,2.853142,8.6868305,-2.569024,-1.570132,-0.33536798,-0.884152,79.5,-167.70001,-30.900002,,,,,,
409534,2.8387866,8.9464245,-2.6126885,-0.777444,-0.69360197,-0.525918,79.5,-177.3,-24.900002,,,,,,
409554,2.9691818,9.335217,-2.5797906,-0.49543,-1.021348,-0.23628199,91.5,-167.70001,-18.300001,,,,,,
409576,2.6689138,8.555837,-2.3495057,-1.150922,-1.3490939,-0.16768399,81.9,-170.1,-18.300001,,,,,,
409596,2.9225266,8.689821,-2.3076355,-0.92988396,-1.432936,0.510674,69.9,-174.90001,-19.5,,,,,,
409616,2.677886,8.173025,-2.321991,-1.3414719,-1.6463519,0.373478,79.5,-162.90001,-37.5,,,,,,
409637,3.0319867,8.688026,-2.359674,-0.53354,-1.98172,0.617382,72.3,-167.70001,-21.900002,,,,,,
409657,3.061894,8.853712,-2.1682682,-0.46494198,-2.103672,0.16768399,77.100006,-170.1,-24.300001,,,,,,
409680,3.1342692,8.674868,-1.9379833,-0.57164997,-1.920744,-0.137196,81.9,-170.1,-24.900002,,,,,,
409701,3.3741245,9.264636,-1.8614209,-0.373478,-1.6158639,-0.320124,86.700005,-179.70001,-33.300003,,,,,,
409722,3.576895,10.661899,-2.1287909,-0.144818,-1.074702,-0.22865999,69.9,-177.3,-30.900002,,,,,,
409743,3.0487347,10.787508,-2.079145,-1.006104,-1.310984,-1.288118,65.100006,-172.5,-22.5,,,,,,
409763,1.1286958,7.501311,-1.3242885,-1.48629,-1.3872039,-4.199722,86.700005,-172.5,-25.500002,,,,,,
409783,0.70042545,8.257962,-1.8895336,1.074702,-0.57164997,-1.089946,81.9,-179.70001,-29.1,,,,,,
409803,0.14833945,10.967549,-1.6078084,-0.030488,-1.3643379,0.015244,89.100006,-167.70001,-27.900002,,,,,,
409825,-0.6430037,9.94293,-1.8548414,-0.221038,0.33536798,-1.814036,72.3,-165.3,-26.1,,,,,,
409845,-0.8517556,9.648644,-1.9152538,0.525918,-0.625004,-0.594516,81.9,-170.1,-32.100002,,,,,,
409865,-1.5109092,9.503296,-1.4750205,0.106708,-0.46494198,-0.586894,89.100006,-165.3,-29.1,,,,,,
409928,-1.8805615,9.6911125,-2.263373,0.80030996,1.501534,-1.532022,84.3,-170.1,-27.300001,,,,,,
409948,-2.0695746,9.591821,-2.246625,1.158544,0.967994,-2.065562,91.5,-160.5,-29.7,,,,,,
409968,-2.1449406,9.924986,-2.14195,1.02897,0.830798,-2.035074,93.9,-155.70001,-30.300001,,,,,,
410011,-2.0869207,8.9242935,-1.8016067,-0.251526,0.861286,-2.431418,89.100006,-177.3,-23.7,,,,,,
410053,-1.3464198,8.900966,-1.7388016,-0.92226195,0.434454,-0.861286,96.3,-165.3,-18.300001,,,,,,
410073,-0.9941136,8.4714985,-2.2155216,0.160062,0.785066,-0.83842,98.700005,-177.3,-24.900002,,,,,,
410093,-0.635826,8.785524,-2.2579896,0.46494198,-0.358234,0.015244,103.50001,-170.1,-22.5,,,,,,
410137,0.2380609,9.237122,-2.560052,0.68597996,-0.388722,-0.35061198,89.100006,-177.3,-32.7,,,,,,
410157,0.34034336,9.601989,-2.7305226,0.434454,-0.449698,-0.579272,93.9,-155.70001,-23.7,,,,,,
410179,0.46296266,9.450061,-2.7478688,0.106708,-0.3811,-1.059458,103.50001,-153.3,-15.900001,,,,,,
410200,0.73033255,9.99138,-2.8094776,0.045732,-0.396344,-1.1051899,96.3,-177.3,-23.7,,,,,,
410220,0.47552365,9.738366,-2.9338913,-0.22865999,0.243904,-1.8902559,101.100006,-160.5,-24.300001,,,,,,
410240,0.25779963,9.271216,-3.1462321,0.11432999,0.297258,-2.118916,91.5,-160.5,-25.500002,,,,,,
410260,0.15910603,9.334021,-3.3723302,0.56402797,-0.297258,-1.669218,108.3,-167.70001,-17.7,,,,,,
410282,0.093908444,9.276001,-3.343619,0.60976,-0.891774,-1.41007,108.3,-174.90001,-25.500002,,,,,,
410302,0.15372275,9.411779,-3.3460119,0.69360197,-1.013726,-0.87653,103.50001,-170.1,-16.5,,,,,,
410322,0.1794429,9.398023,-3.3412266,0.030488,-0.853664,-0.67835796,120.3,-162.90001,-21.300001,,,,,,
410342,0.4874865,9.073231,-3.083427,-0.70122397,-0.541162,0.11432999,113.100006,-167.70001,-21.300001,,,,,,
410366,0.5467027,8.893787,-3.0236127,-1.097568,-0.15244,0.434454,93.9,-165.3,-20.7,,,,,,
410386,0.81048375,8.888405,-2.886638,-0.975616,-0.129574,0.80030996,103.50001,-165.3,-29.7,,,,,,
410408,1.0180393,9.020595,-2.7006154,-1.06708,-0.221038,0.80793196,105.9,-170.1,-30.300001,,,,,,
410428,1.2441374,8.6652975,-2.6324272,-1.18141,-0.07622,0.53354,110.700005,-160.5,-26.7,,,,,,
410449,1.5318441,8.630007,-2.798711,-0.769822,0.11432999,0.518296,105.9,-165.3,-17.1,,,,,,
410469,1.7220536,8.761,-2.9069748,-0.67073596,-0.07622,0.40396598,96.3,-170.1,-28.500002,,,,,,
410489,2.2149234,9.122278,-3.0900066,-0.434454,0.213416,0.28201398,103.50001,-160.5,-30.300001,,,,,,
410511,2.4428158,8.923695,-3.4506867,-1.097568,1.021348,-0.87653,96.3,-158.1,-21.900002,,,,,,
410531,2.531341,8.00076,-4.0607924,-0.49543,1.951232,-2.446662,101.100006,-184.5,-21.900002,,,,,,
410551,2.659942,6.7285104,-4.672095,0.449698,1.806414,-3.109776,103.50001,-160.5,-21.300001,,,,,,
410573,4.35149,8.734682,-5.8283052,0.785066,1.1432999,0.3811,110.700005,-165.3,-24.900002,,,,,,
410593,4.995092,9.380676,-4.65116,-2.6677,-1.707328,-2.583858,96.3,-170.1,-26.7,,,,x,,
410613,4.297059,7.082611,-3.1151285,-2.843006,0.33536798,-6.775958,134.70001,-160.5,-21.300001,,,,x,,
410633,3.8376853,5.7337985,-3.071464,-2.01983,4.375028,-7.416206,127.50001,-165.3,-26.7,,,,x,,
410656,3.6666164,6.175228,-2.6629324,-2.2865999,4.893324,-6.623518,125.100006,-167.70001,-23.1,,,,x,,
410676,3.058305,5.569907,-1.7124833,-2.530504,5.312534,-8.018344,129.90001,-155.70001,-21.900002,,,,x,,
410696,2.6784842,4.4023323,-0.52935654,-2.507638,6.272906,-8.963471,132.3,-146.1,-18.300001,,,,x,,
410716,2.5092099,3.7162623,0.18183546,-3.140264,7.9040136,-9.009204,144.3,-158.1,-27.900002,,,,x,,
410759,1.3745326,2.95363,0.25779963,-2.2103798,10.86135,-9.94671,173.1,-134.1,-15.900001,,,,x,,
410787,-0.23207948,2.0139475,0.6764997,-1.173788,9.893355,-11.39489,168.3,-150.90001,-20.1,,,,x,,
410807,-0.66453683,2.3124208,1.0228245,0.358234,8.361334,-10.907082,182.70001,-138.90001,-19.5,,,,x,,
410849,-2.0468452,3.176139,3.3872836,-0.40396598,6.93602,-10.876594,201.90001,-126.9,-17.7,,,,x,,
410869,-3.1013713,5.7260227,2.0067697,0.83842,7.134192,-9.131156,206.70001,-122.100006,-19.5,,,,x,,
410889,-5.0267935,6.182406,3.3196936,0.19055,4.0625257,-11.615928,206.70001,-122.100006,-21.900002,,,,x,,
410909,-7.158575,4.028493,2.3237855,1.928366,4.085392,-12.949778,228.3,-102.9,-18.900002,,,,x,,
410931,-10.774947,6.8606997,1.6843706,2.812518,0.099086,-6.3719916,223.50002,-98.100006,-18.300001,,,,x,,
410951,-14.612633,8.670082,-0.2338739,2.652456,1.48629,-5.0838737,240.3,-93.3,-20.7,,,,x,,
410974,-10.301816,8.633595,-2.00019,4.824726,-5.64028,-4.23021,230.70001,-98.100006,-21.900002,,,,x,,
410994,-11.886895,7.923002,0.7082013,3.498498,-12.713495,-4.550334,237.90001,-102.9,-14.1,,,,x,,
411014,-13.72798,9.694701,-2.1060615,6.204308,-1.8826339,-3.033556,249.90001,-83.700005,-14.700001,,,,x,,
411037,-9.838854,12.424027,-5.3653426,6.9893737,-7.8582816,-1.036592,242.70001,-86.100006,-11.1,,,,x,,
411058,-12.791287,11.283369,-2.497247,3.025934,-18.231823,-3.871976,247.50002,-88.5,-14.1,,,,x,,
411079,-10.143907,13.825477,-5.764902,8.795788,-6.0290017,1.432936,252.3,-74.100006,-18.300001,,,,x,,
411140,-9.652831,15.674934,-9.488342,9.504634,-3.003068,7.225656,249.90001,-81.3,-10.5,,,,x,,
411160,-8.917115,16.398687,-7.9720497,0.7622,-17.065659,5.6097918,242.70001,-78.9,-27.300001,,,,x,,
411182,-12.883402,13.493507,-5.4317365,2.85825,-12.355262,4.0472817,249.90001,-86.100006,-27.300001,,,,x,,
411203,-10.710348,14.332702,-8.952406,7.599134,-0.960372,7.599134,245.1,-88.5,-24.300001,,,,x,,
411223,-10.052989,13.602369,-10.124766,4.314052,-4.428382,7.522914,240.3,-90.9,-21.900002,,,,x,,
411245,-8.350076,14.882994,-10.276694,3.2088618,-7.865904,10.990924,228.3,-95.700005,-24.300001,,,,x,,
411265,-6.8762517,15.704244,-9.73059,1.204276,-10.449761,10.1372595,211.50002,-98.100006,-18.900002,,,,x,,
411285,-7.809355,13.447451,-8.271719,0.53354,-7.865904,7.77444,206.70001,-107.700005,-30.300001,,,,x,,
411305,-6.9013734,13.871533,-9.838256,2.89636,-0.49543,11.272938,211.50002,-110.100006,-21.300001,,,,x,,
411327,-5.4604473,13.755494,-10.627805,0.358234,-3.132642,10.754642,201.90001,-124.50001,-21.300001,,,,x,,
411347,-4.662524,11.928167,-9.114503,-1.33385,-7.5152917,10.053418,187.5,-119.700005,-23.1,,,,x,,
411367,-4.061989,12.112993,-7.9235997,-1.737816,-6.692116,11.77599,182.70001,-136.5,-25.500002,,,,x,,
411388,-3.4423127,10.631991,-7.3900566,-1.051836,0.221038,10.030552,173.1,-138.90001,-26.1,,,,x,,
411409,-1.7711014,10.30062,-7.9188147,-1.509156,0.67073596,9.5275,173.1,-146.1,-27.900002,,,,x,,
411469,-0.40853164,8.862086,-6.626228,-4.161612,-1.570132,9.588476,120.3,-160.5,-32.100002,,,,x,,
411626,3.155204,3.3065343,-1.1095552,-2.40093,7.4848037,4.824726,91.5,-162.90001,-28.500002,,,,x,,
411646,3.2604773,3.5792875,-0.7620341,-2.7515419,7.4695597,4.53509,108.3,-162.90001,-31.500002,,,,x,,
411688,2.68626,3.1940835,-0.36426908,-2.2484899,10.89946,1.928366,103.50001,-167.70001,-29.1,,,,x,,
411709,2.8639085,4.32577,0.17166704,-1.3643379,10.2897,2.492394,93.9,-174.90001,-31.500002,,,,x,,
411729,2.4739194,5.6871433,0.41989636,-0.99086,10.449761,1.730194,93.9,-172.5,-30.300001,,,,x,,
411750,1.9373851,5.652451,0.3869985,-1.059458,10.068662,-0.480186,91.5,-165.3,-33.9,,,,x,,
411770,1.8111769,6.1178064,0.58079684,-0.243904,8.429932,-0.92988396,86.700005,-172.5,-27.300001,,,,x,,
411832,0.8685036,7.6717815,1.556368,-2.89636,6.25004,-3.879598,96.3,-174.90001,-26.1,,,,x,,
411869,0.23507018,8.410488,0.55746925,-1.3567159,6.189064,-1.3795819,115.50001,-167.70001,-25.500002,,,,x,,
411890,-0.26378104,8.612062,-0.18961132,-0.487808,5.312534,-0.95274997,96.3,-162.90001,-30.900002,,,,x,,
411930,-0.4898791,9.8747425,-1.3882898,0.327746,2.980202,-1.227142,103.50001,-170.1,-30.900002,,,,x,,
411950,-0.08194559,9.683336,-1.3290737,-0.015244,1.326228,-1.928366,98.700005,-172.5,-26.7,,,,x,,
411993,0.4426258,10.071531,-1.3488123,0.40396598,1.745438,-1.3872039,108.3,-165.3,-23.7,,,,x,,
412013,0.45458865,10.651132,-1.6706133,0.312502,1.501534,-1.158544,108.3,-158.1,-30.300001,,,,x,,
412033,0.049645867,9.865172,-1.5796956,-0.23628199,0.92988396,-1.8673899,101.100006,-172.5,-26.7,,,,x,,
412053,-0.18303175,8.653933,-1.6131916,0.365856,0.907018,-2.141782,115.50001,-158.1,-27.900002,,,,x,,
412073,-0.1782466,8.662307,-1.827925,1.4024479,-0.182928,-0.95274997,93.9,-167.70001,-27.300001,,,,x,,
412093,-0.25002375,9.392041,-1.9643015,1.8445239,-0.868908,-0.121952,103.50001,-167.70001,-27.300001,,,,x,,
412113,-0.1531246,9.676757,-2.1246037,1.8445239,-1.417692,-0.053354,103.50001,-167.70001,-33.9,,,,x,,
412137,0.072973445,9.474585,-2.10008,1.051836,-1.737816,-0.708846,117.9,-155.70001,-34.5,,,,,,
412157,0.06878644,9.061268,-2.0976875,0.81555396,-1.554888,-0.716468,93.9,-150.90001,-21.300001,,,,,,
412219,0.04187001,9.157569,-2.1275945,-0.030488,-0.884152,-0.40396598,108.3,-170.1,-20.7,,,,,,
412241,0.12919888,9.351965,-1.9708811,0.213416,-0.891774,-0.121952,110.700005,-167.70001,-30.900002,,,,,,
412261,0.36965236,9.469201,-1.9589182,0.083841994,-0.579272,-0.045732,108.3,-155.70001,-29.1,,,,,,
412281,-0.07058087,9.418958,-2.0731635,0.312502,-0.716468,-0.015244,105.9,-160.5,-20.1,,,,,,
412301,0.22310732,9.258655,-2.0929022,0.091464,-1.1128119,0.07622,110.700005,-172.5,-23.7,,,,,,
412322,0.24523862,9.024183,-1.987629,0.221038,-1.150922,0.312502,120.3,-167.70001,-23.7,,,,,,
412343,0.56703955,9.391443,-1.999592,-0.015244,-1.318606,0.861286,105.9,-160.5,-20.1,,,,,,
412405,0.91515875,9.29574,-2.146137,0.30488,-1.1356779,0.160062,103.50001,-153.3,-29.7,,,,,,
412425,0.91755134,9.238318,-2.14195,0.358234,-0.868908,-0.053354,103.50001,-177.3,-25.500002,,,,,,
412447,0.9671972,8.941041,-2.1646795,0.099086,-0.602138,-0.259148,105.9,-170.1,-30.900002,,,,,,
412467,1.0096654,8.958387,-2.414105,0.198172,-0.16768399,-0.198172,113.100006,-162.90001,-29.1,,,,,,
412487,0.8972145,8.90276,-2.6168754,0.053354,-0.03811,-0.34298998,115.50001,-167.70001,-21.300001,,,,,,
412507,0.9863378,8.739467,-2.9679854,0.274392,0.327746,-0.746956,105.9,-165.3,-23.7,,,,x,,
412528,1.3416346,9.162952,-3.4022372,0.320124,0.17530599,-0.716468,113.100006,-162.90001,-20.1,,,,x,,
412549,1.5844808,8.981116,-3.6779811,-0.30488,1.280496,-1.310984,108.3,-155.70001,-23.7,,,,x,,
412569,1.9003003,8.168241,-4.484876,-0.289636,2.926848,-2.195136,110.700005,-158.1,-23.1,,,,x,,
412590,1.9792551,7.224969,-5.480784,0.373478,5.37351,-3.132642,108.3,-165.3,-27.300001,,,,x,,
412610,2.5032284,6.291866,-6.7422676,1.798792,5.289668,-3.7424018,103.50001,-160.5,-25.500002,,,,x,,
412632,4.5500736,8.037846,-6.678266,-0.243904,-1.8521459,-0.358234,108.3,-158.1,-21.300001,,,,x,,
412652,4.430445,7.2273617,-4.162477,-3.018312,-3.978684,-3.414656,122.700005,-158.1,-24.300001,,,,x,,
412714,4.122401,4.304835,-0.9187476,-3.01069,0.213416,-4.61131,139.5,-160.5,-23.7,,,,x,,
412734,3.6797755,4.3526864,0.81467074,-3.643316,3.346058,-6.4329677,132.3,-162.90001,-21.900002,,,,x,,
412754,2.3447204,2.0600045,1.0611056,-3.7881339,7.599134,-9.321706,158.70001,-153.3,-26.1,,,,x,,
412774,1.1298921,1.719661,1.6149861,-1.6234859,7.16468,-8.811031,158.70001,-129.3,-24.300001,,,,x,,
412796,1.0407687,2.423077,2.3710387,-0.47256398,7.50767,-8.429932,153.90001,-150.90001,-31.500002,,,,x,,
412817,0.694444,2.1090522,3.4578645,-1.082324,8.53664,-8.3842,163.5,-150.90001,-25.500002,,,,x,,
412837,-1.1179292,3.368143,3.1659708,-1.097568,10.221102,-6.768336,161.1,-150.90001,-23.7,,,,x,,
412919,-7.5820603,6.9169254,3.1564004,2.2865999,1.3795819,-10.343054,197.1,-131.70001,-20.7,,,,x,,
412951,-9.606176,10.870052,0.21234076,4.138746,-4.085392,-1.1051899,206.70001,-119.700005,-20.1,,,,x,,
412972,-9.222168,11.243294,2.2938783,3.6738038,-7.0503497,-4.26832,206.70001,-112.50001,-18.900002,,,,x,,
413012,-10.767172,11.590815,-0.99710435,3.437522,-8.7653,-2.378064,216.3,-119.700005,-26.7,,,,x,,
413032,-9.68214,10.55842,1.3524013,3.361302,-13.7881975,-1.737816,218.70001,-112.50001,-20.7,,,,x,,
413056,-13.593995,11.363521,-0.11065645,3.7728899,-4.61131,-0.746956,209.1,-112.50001,-17.7,,,,x,,
413076,-10.523129,16.279657,-5.736789,6.577786,2.378064,5.243936,223.50002,-112.50001,-20.7,,,,x,,
413096,-10.911922,14.628782,-4.417286,-0.26677,-18.414751,-2.7667859,211.50002,-114.9,-20.1,,,,x,,
413116,-14.267505,12.391728,-3.0212202,1.48629,-14.21503,-3.399412,206.70001,-110.100006,-18.900002,,,,x,,
413136,-8.865077,16.498577,-8.095865,7.309498,0.45731997,4.809482,216.3,-110.100006,-12.900001,,,,x,,
413156,-6.4497757,17.18046,-8.312991,0.388722,-13.155572,1.8750119,209.1,-122.100006,-24.300001,,,,x,,
413176,-11.4987,13.277577,-4.8754635,0.746956,-14.512288,0.60976,211.50002,-112.50001,-26.1,,,,x,,
413198,-8.648549,15.478744,-8.210709,3.170752,-8.23176,4.702774,209.1,-112.50001,-21.300001,,,,x,,
413218,-8.933266,14.046191,-6.6352,1.577754,-10.266833,4.4055157,199.50002,-110.100006,-21.900002,,,,x,,
413238,-7.7459517,14.445152,-7.9493203,5.3811316,-4.718018,5.899428,199.50002,-124.50001,-29.1,,,,x,,
413258,-6.460542,14.063538,-9.392639,6.158576,-3.475632,7.248522,182.70001,-119.700005,-27.300001,,,,x,,
413278,-5.4113994,14.281859,-9.266431,3.7195358,-5.4421077,8.856764,187.5,-134.1,-23.7,,,,x,,
413301,-5.2020493,14.21726,-9.25387,3.54423,-3.2622159,7.804928,182.70001,-126.9,-21.300001,,,,x,,
413321,-4.3790045,13.514442,-10.643954,3.50612,1.33385,7.057972,173.1,-131.70001,-22.5,,,,x,,
413343,-2.9835372,12.66149,-11.385054,0.091464,-0.26677,7.210412,163.5,-141.3,-20.1,,,,x,,
413364,-2.2238955,11.891082,-10.420249,-2.560992,-5.510706,6.3719916,158.70001,-134.1,-28.500002,,,,x,,
413427,0.92891604,8.618642,-6.7255197,-3.978684,-2.987824,9.047314,149.1,-143.70001,-24.900002,,,,x,,
413491,1.8626173,4.2743297,-5.8067718,-0.213416,3.589962,6.067112,139.5,-153.3,-24.300001,,,,x,,
413531,2.9434617,6.388167,-4.9681754,-0.72409,4.291186,4.68753,125.100006,-153.3,-24.900002,,,,x,,
413551,2.1880069,5.1655626,-3.8466575,-2.332332,4.146368,2.461906,113.100006,-162.90001,-29.7,,,,x,,
413571,1.7286332,4.475904,-3.0248091,-3.1783738,4.359784,2.080806,122.700005,-162.90001,-25.500002,,,,x,,
413613,1.6807817,2.7550466,-0.60651696,-6.70736,6.8369336,2.888738,101.100006,-160.5,-29.1,,,,x,,
413633,1.4050379,2.7101858,-0.10706759,-6.166198,9.1463995,3.513742,98.700005,-162.90001,-23.1,,,,x,,
413653,1.4917686,3.9896135,-0.13817103,-4.375028,10.487872,2.995446,108.3,-158.1,-30.900002,,,,x,,
413675,1.7585404,4.0488296,0.5538804,-4.0167937,9.961954,0.91463995,96.3,-167.70001,-32.7,,,,x,,
413696,2.1909976,4.7061887,0.13876916,-2.55337,11.021412,1.1432999,105.9,-167.70001,-24.900002,,,,x,,
413717,1.6843706,6.4898515,0.37264308,-1.737816,8.711946,1.051836,108.3,-160.5,-27.900002,,,,x,,
413737,1.338644,6.990497,1.1233125,-1.760682,8.23176,-0.449698,105.9,-170.1,-28.500002,,,,x,,
413780,0.11005831,7.6071825,1.7208574,-3.102154,6.44059,-3.330814,101.100006,-160.5,-33.9,,,,x,,
413800,0.080151156,7.2273617,1.5150962,-2.2027578,4.64942,-2.7058098,122.700005,-158.1,-20.1,,,,x,,
413862,-1.0521334,9.784423,0.30923992,0.30488,2.378064,-1.310984,115.50001,-158.1,-27.300001,,,,x,,
413932,-0.68427557,10.105625,-1.388888,1.79117,-0.41921,0.251526,105.9,-153.3,-24.900002,,,,x,,
413972,-0.19020946,10.1337385,-1.9942087,1.3414719,-2.164648,-0.297258,122.700005,-158.1,-21.300001,,,,x,,
413992,0.032897864,9.639074,-2.0049753,0.891774,-2.55337,-0.358234,103.50001,-162.90001,-25.500002,,,,x,,
414032,0.1782466,9.581054,-1.8835522,-0.426832,-1.996964,0.297258,113.100006,-177.3,-23.7,,,,,,
414056,0.53234726,9.349573,-1.6867632,-0.960372,-2.035074,0.007622,108.3,-167.70001,-15.900001,,,,,,
414076,0.6657331,8.888405,-1.4792075,-1.265252,-1.707328,-0.106708,98.700005,-162.90001,-23.7,,,,,,
414118,0.49107537,9.341797,-1.7938308,-0.053354,-0.60976,0.3811,108.3,-162.90001,-31.500002,,,,,,
414167,0.25540704,9.678552,-1.8512524,0.785066,-0.396344,0.868908,101.100006,-160.5,-26.7,,,,,,
414267,0.85355,9.09297,-1.9517405,0.289636,-1.059458,0.998482,96.3,-162.90001,-26.7,,,,,,
414287,0.8738869,8.883619,-2.1533146,0.160062,-0.777444,0.541162,110.700005,-162.90001,-21.900002,,,,,,
414329,1.3733363,8.797487,-2.719158,0.388722,-0.388722,-0.129574,91.5,-167.70001,-29.1,,,,,,
414370,1.5701253,7.990592,-3.1617837,-0.846042,0.67073596,-2.065562,101.100006,-167.70001,-23.1,,,,,,
414412,2.9721725,8.286075,-5.676975,0.884152,0.586894,-0.56402797,113.100006,-170.1,-25.500002,,,,,,
414510,5.1320667,8.047416,-3.2921789,-4.489358,-1.493912,-5.731744,122.700005,-160.5,-22.5,,,,,,
414530,4.895202,5.7571263,-3.5762968,-4.321674,6.5701637,-8.330846,125.100006,-160.5,-26.1,,,,,,
414550,4.320387,4.7719846,-3.5278473,-4.428382,7.8430376,-9.253108,129.90001,-153.3,-28.500002,,,,,,
414570,3.4817903,3.9339864,-1.9768625,-4.123502,7.477182,-10.548848,129.90001,-150.90001,-17.7,,,,,,
414590,2.8997972,3.1432414,-0.2129389,-3.92533,10.122016,-11.227205,149.1,-150.90001,-23.7,,,,,,
414630,-0.25660333,0.89003676,0.4288685,-3.902464,16.08242,-13.933016,163.5,-153.3,-26.1,,,,x,,
414650,-2.5540705,1.3697474,0.7763896,-2.195136,14.352225,-12.38575,170.70001,-143.70001,-24.900002,,,,x,,
414670,-3.0870159,2.6114922,2.4176939,-1.265252,10.259212,-11.029034,197.1,-126.9,-28.500002,,,,x,,
414690,-1.7435868,4.530933,5.112328,-3.536608,8.056454,-10.70891,206.70001,-129.3,-20.7,,,,x,,
414710,-4.4609504,4.4938483,4.070363,-2.469528,13.993992,-13.2317915,204.3,-119.700005,-23.1,,,,x,,
414730,-5.9724574,3.865798,2.7424855,1.196654,11.227205,-13.772954,211.50002,-100.50001,-18.300001,,,,x,,
414753,-4.853332,5.709275,3.768899,5.708878,3.7424018,-9.054935,221.1,-105.3,-20.7,,,,x,,
414773,-6.5329175,6.7590156,4.593738,4.9009457,3.117398,-8.529017,235.50002,-107.700005,-16.5,,,,x,,
414795,-9.609765,5.8929048,2.4858823,5.960404,3.521364,-9.397925,230.70001,-102.9,-19.5,,,,x,,
414815,-10.541074,6.8762517,1.4905723,6.5244317,-1.737816,-7.248522,237.90001,-83.700005,-20.1,,,,x,,
414835,-15.394405,8.789113,-1.1478363,5.990892,-2.7362978,-4.397894,247.50002,-76.5,-12.3,,,,x,,
414875,-10.411875,11.912616,-2.342926,3.2545938,-21.41782,-3.7424018,249.90001,-78.9,-15.3,,,,x,,
414895,-15.7275715,8.112613,1.2028655,4.847592,-18.414751,-5.3963757,264.30002,-64.5,-20.1,,,,x,,
414935,-11.759491,14.597679,-3.8927145,3.574718,-17.583954,-1.3567159,269.1,-76.5,-16.5,,,,x,,
414955,-15.368686,10.428622,-2.1527166,5.358266,-15.869003,-2.850628,273.90002,-71.700005,-20.7,,,,x,,
414975,-11.578254,13.448049,-4.9281,8.170784,-12.698252,3.6661818,252.3,-71.700005,-21.900002,,,,x,,
414995,-12.192546,13.87273,-2.6144829,3.6738038,-19.756224,2.7210538,264.30002,-74.100006,-22.5,,,,x,,
415038,-11.891681,12.511356,-5.108141,5.114362,-10.609824,5.0991178,254.70001,-78.9,-23.1,,,,x,,
415058,-11.64704,12.586124,-4.094887,4.9009457,-12.38575,7.69822,240.3,-83.700005,-29.1,,,,x,,
415078,-11.525019,13.053872,-4.487867,5.86894,-6.996996,7.865904,252.3,-83.700005,-24.900002,,,,x,,
415099,-10.99327,12.73267,-6.774567,7.667732,-0.099086,7.881148,225.90001,-102.9,-27.300001,,,,x,,
415119,-9.0433235,12.238604,-8.758009,7.301876,-0.92226195,8.170784,237.90001,-90.9,-24.900002,,,,x,,
415159,-5.805576,14.853684,-9.366919,3.147886,-3.993928,8.978716,233.1,-102.9,-28.500002,,,,x,,
415179,-5.297154,13.391823,-9.7916,2.461906,-1.250008,5.4878397,213.90001,-93.3,-24.900002,,,,x,,
415199,-3.551773,10.941231,-10.548251,3.1783738,1.3719599,5.0076537,194.70001,-112.50001,-30.900002,,,,x,,
415223,-3.8424704,9.436303,-10.578158,1.3567159,-0.20579399,8.719568,204.3,-110.100006,-23.7,,,,x,,
415243,-2.9919112,11.272004,-10.0799055,-0.297258,-0.289636,13.064108,192.3,-124.50001,-24.900002,,,,x,,
415264,-1.9983957,10.895772,-9.776647,0.632626,0.891774,11.448244,185.1,-126.9,-29.1,,,,x,,
415284,-2.0318916,9.395032,-9.480566,0.754578,0.99086,10.274456,177.90001,-136.5,-28.500002,,,,x,,
415304,-1.1466401,9.851415,-9.167737,-0.967994,-0.396344,10.51836,177.90001,-146.1,-30.900002,,,,x,,
415324,-1.2883999,8.281289,-7.4755907,-3.948196,-2.01983,8.437553,156.3,-143.70001,-24.900002,,,,x,,
415347,-0.13996546,7.1573787,-5.435923,-4.260698,0.541162,9.588476,149.1,-143.70001,-24.900002,,,,x,,
415387,-0.18183546,6.2242756,-4.0811296,-2.949714,6.684494,5.6097918,122.700005,-160.5,-23.1,,,,x,,
415427,0.10826388,4.2791147,-3.4584627,-4.138746,3.902464,7.477182,122.700005,-138.90001,-33.9,,,,x,,
415465,0.832615,3.9638934,-1.1980804,-4.824726,3.92533,7.027484,115.50001,-172.5,-34.5,,,,x,,
415485,1.2943814,4.1397476,-1.1251069,-3.490876,7.751574,6.5549197,103.50001,-179.70001,-33.300003,,,,x,,
415529,1.5264609,4.1606827,-0.49167353,-2.40093,6.966508,4.169234,84.3,-167.70001,-21.300001,,,,x,,
415549,2.2454288,4.839575,-0.14116174,-1.5244,7.675354,3.528986,105.9,-179.70001,-30.900002,,,,x,,
415569,2.1479313,5.4078107,0.0035888578,-1.4024479,7.721086,2.157026,86.700005,-172.5,-20.7,,,,x,,
415589,2.1299872,5.217003,-0.0035888578,-0.731712,8.795788,0.625004,86.700005,-170.1,-28.500002,,,,x,,
415611,2.159296,5.7631073,0.08732887,-0.28201398,7.835416,0.487808,101.100006,-172.5,-33.300003,,,,x,,
415632,1.7549515,6.4910474,0.43544808,-0.518296,7.233278,-0.007622,93.9,-177.3,-25.500002,,,,x,,
415655,0.7428936,6.272127,0.71597713,-0.67073596,6.547298,-2.32471,96.3,-162.90001,-33.9,,,,x,,
415675,1.9003003,7.4522634,0.8487649,0.091464,4.260698,-1.8750119,103.50001,-167.70001,-20.7,,,,x,,
415695,1.5037315,7.3816824,1.9924142,-1.471046,3.978684,-2.6677,93.9,-165.3,-27.300001,,,,x,,
415715,1.5731161,7.891898,0.78177285,-1.18141,5.693634,-2.2027578,96.3,-170.1,-27.900002,,,,x,,
415735,1.2507169,8.076725,0.619078,-0.792688,4.329296,-1.9131219,89.100006,-172.5,-27.900002,,,,x,,
415757,0.94087887,8.04263,0.3493155,0.022866,3.864354,-1.501534,108.3,-158.1,-23.7,,,,x,,
415778,0.8254373,8.492434,0.0035888578,0.586894,2.6677,-0.891774,108.3,-177.3,-24.300001,,,,x,,
415818,-0.011364716,9.908836,-0.9953099,1.33385,2.500016,-0.015244,91.5,-172.5,-21.300001,,,,x,,
415838,-0.1016843,9.980614,-1.2369597,1.234764,1.013726,-1.204276,115.50001,-177.3,-27.900002,,,,x,,
415862,0.26796806,10.389744,-1.2447355,1.44818,-0.099086,-1.1204339,108.3,-174.90001,-30.900002,,,,x,,
415882,0.0,9.747338,-1.3571864,0.53354,-0.23628199,-1.440558,108.3,-165.3,-22.5,,,,x,,
415903,0.12979703,10.099644,-1.5779011,0.967994,-1.577754,0.015244,98.700005,-174.90001,-24.300001,,,,x,,
415923,0.05084215,10.032054,-1.5922565,0.53354,-1.707328,-0.144818,101.100006,-160.5,-26.7,,,,x,,
415985,0.76801556,9.486547,-1.9379833,0.23628199,-2.942092,0.67073596,93.9,-167.70001,-27.300001,,,,,,
416005,0.6519758,9.4698,-2.0869207,-0.26677,-2.332332,0.198172,103.50001,-158.1,-21.900002,,,,,,
416025,0.75366014,8.84474,-2.0653877,-0.297258,-1.79117,-0.365856,108.3,-184.5,-29.1,,,,,,
416069,1.2130339,9.481762,-2.1551092,-0.17530599,-1.051836,0.160062,103.50001,-167.70001,-30.300001,,,,,,
416129,1.3835047,8.603688,-2.5409114,-0.07622,-1.097568,-0.160062,113.100006,-170.1,-28.500002,,,,,,
416151,1.6000324,8.892591,-2.694036,-0.434454,-1.013726,-0.17530599,98.700005,-167.70001,-25.500002,,,,,,
416171,1.4451134,8.079716,-2.8848436,-0.28201398,-0.060976,-0.95274997,103.50001,-170.1,-29.7,,,,,,
416193,1.0300022,8.138931,-3.944753,1.1128119,0.769822,-0.221038,105.9,-160.5,-24.900002,,,,x,,
416214,1.0048802,8.858498,-5.4269514,2.7972739,2.43904,0.28201398,96.3,-167.70001,-26.1,,,,x,,
416234,2.3536925,7.9750404,-5.845651,1.730194,-3.7881339,-0.617382,105.9,-167.70001,-24.300001,,,,x,,
416254,3.3992465,7.0216002,-3.693533,-0.480186,-8.407065,-0.053354,105.9,-155.70001,-32.7,,,,x,,
416277,4.028493,6.81883,-3.0134442,-0.632626,-2.995446,-1.173788,110.700005,-165.3,-23.1,,,,x,,
416297,4.4489875,6.284688,-4.0595965,-0.594516,0.320124,-2.881116,113.100006,-162.90001,-18.300001,,,,x,,
416319,4.916735,5.4108014,-3.024211,-1.493912,-1.814036,-3.856732,113.100006,-165.3,-29.1,,,,x,,
416339,5.027392,4.39336,-1.2997646,-2.7210538,-0.137196,-5.358266,103.50001,-162.90001,-32.100002,,,,x,,
416361,4.141542,3.9016867,-1.5025351,-2.454284,6.1204658,-7.294254,117.9,-162.90001,-29.7,,,,x,,
416381,3.5039215,3.2652624,-0.44083136,-3.2850819,5.79272,-9.085423,122.700005,-155.70001,-21.900002,,,,x,,
416425,1.305148,1.4313561,0.6095077,-3.8262439,9.931466,-12.309529,141.90001,-158.1,-32.100002,,,,x,,
416445,0.15790975,0.6382185,0.6388167,-2.164648,10.076283,-13.086974,158.70001,-160.5,-21.300001,,,,x,,
416469,-1.4361413,0.69384587,0.6723127,-0.41921,9.41317,-13.651002,173.1,-143.70001,-23.1,,,,x,,
416489,-3.410013,2.9458542,0.3074455,2.309466,9.900978,-11.120498,175.5,-131.70001,-17.1,,,,x,,
416512,-3.6217556,11.020784,1.4319543,0.617382,0.144818,-8.72719,177.90001,-134.1,-21.900002,,,,x,,
416532,-6.9504213,7.178912,4.313807,-1.8750119,5.571682,-18.643412,182.70001,-131.70001,-17.7,,,,x,,
416552,-8.46791,7.4426928,-0.7458843,1.958854,10.525982,-13.605269,218.70001,-124.50001,-19.5,,,,x,,
416572,-8.233438,10.094859,-0.782371,1.006104,2.118916,-7.9192576,240.3,-114.9,-19.5,,,,x,,
416592,-10.2312355,10.391538,0.48329952,1.44818,-0.975616,-7.4238276,230.70001,-110.100006,-19.5,,,,x,,
416678,-10.300022,13.693885,-1.3852991,1.6158639,-4.657042,0.67835796,228.3,-102.9,-14.700001,,,,x,,
416728,-10.205515,12.541862,0.19020946,1.8445239,-10.762263,-1.082324,245.1,-95.700005,-30.900002,,,,x,,
416748,-10.826986,13.372085,-1.995405,3.62045,-5.434486,0.7622,233.1,-95.700005,-29.1,,,,x,,
416790,-11.495111,13.309877,-1.1047701,4.03966,-7.5457797,1.669218,237.90001,-105.3,-21.900002,,,,x,,
416812,-9.883117,14.515734,-4.950231,7.233278,0.525918,4.4969797,235.50002,-90.9,-21.300001,,,,x,,
416832,-7.8476357,14.758579,-6.4108963,5.10674,-8.170784,4.45887,221.1,-107.700005,-29.1,,,,x,,
416852,-8.476882,13.875721,-4.4071174,3.597584,-14.679972,4.428382,235.50002,-107.700005,-27.300001,,,,x,,
416892,-7.18908,14.121557,-6.308614,5.625036,-4.634176,4.565578,216.3,-117.3,-26.1,,,,x,,
416914,-7.7447553,12.70994,-6.5239453,4.222588,-7.08846,4.260698,209.1,-122.100006,-26.7,,,,x,,
416934,-7.0748353,13.0173855,-6.899579,4.87808,-5.9527817,6.349126,216.3,-117.3,-36.300003,,,,x,,
416956,-5.4646344,13.287746,-7.6053877,4.38265,-6.3567476,7.0046177,194.70001,-110.100006,-26.7,,,,x,,
416976,-5.484373,12.044207,-7.427141,3.094532,-7.0503497,7.042728,187.5,-126.9,-29.7,,,,x,,
416996,-4.1445327,12.060357,-7.651445,2.7286758,-5.3658876,8.1250515,180.3,-129.3,-14.700001,,,,x,,
417017,-3.2473183,11.1164875,-7.5330124,0.716468,-5.076252,8.018344,185.1,-117.3,-25.500002,,,,x,,
417037,-3.9507344,9.712646,-7.0096374,0.007622,-3.2698379,8.0945635,170.70001,-131.70001,-30.900002,,,,x,,
417057,-1.978657,9.860985,-7.61436,0.40396598,-1.089946,9.550365,173.1,-131.70001,-29.7,,,,x,,
417077,-1.7364091,9.300525,-7.1555843,-1.303362,-3.58234,8.445176,156.3,-146.1,-30.300001,,,,x,,
417097,-1.9331981,7.9678626,-6.3726153,-0.70122397,-1.6539739,7.103704,144.3,-143.70001,-22.5,,,,x,,
417117,-0.5203844,8.625221,-6.868476,-0.53354,-0.80793196,8.719568,139.5,-148.5,-28.500002,,,,x,,
417138,-0.10288059,8.785524,-5.6333103,-2.47715,-1.471046,7.263766,132.3,-150.90001,-30.300001,,,,x,,
417158,-0.45279422,7.069452,-5.2947617,-0.907018,2.339954,3.7881339,132.3,-148.5,-27.300001,,,,x,,
417178,-0.28710863,5.343211,-5.843259,-0.830798,4.23021,4.489358,117.9,-162.90001,-30.900002,,,,x,,
417198,0.57840425,6.986908,-5.8372774,-2.637212,4.123502,8.910118,120.3,-148.5,-23.7,,,,x,,
417218,0.6794904,6.8834295,-4.639197,-3.612828,4.138746,7.3628516,115.50001,-155.70001,-29.7,,,,x,,
417238,1.1681732,5.7834444,-4.4077153,-1.806414,6.341504,5.4878397,113.100006,-162.90001,-24.300001,,,,x,,
417260,1.619173,5.6817603,-4.004567,-0.655492,5.419242,4.214966,110.700005,-160.5,-32.7,,,,x,,
417280,1.7423905,5.2768173,-2.7544484,-0.830798,4.245454,2.2637339,101.100006,-177.3,-29.1,,,,x,,
417300,2.1305852,5.1236925,-1.903291,-0.83842,5.800342,0.998482,101.100006,-170.1,-26.7,,,,x,,
417320,1.761531,4.4788947,-1.5067221,-1.707328,8.696702,-0.64787,105.9,-167.70001,-27.900002,,,,x,,
417340,1.640108,4.36764,-2.121613,-1.234764,10.472628,-1.059458,93.9,-158.1,-21.900002,,,,x,,
417360,1.4140099,4.935876,-1.8087844,-0.70122397,8.468041,-1.760682,105.9,-170.1,-26.1,,,,x,,
417380,1.3817103,5.5639257,-1.0593112,-0.625004,6.562542,-3.2927039,103.50001,-167.70001,-29.7,,,,x,,
417400,1.2160246,5.8851285,-0.38340965,-1.425314,6.36437,-5.5793037,125.100006,-155.70001,-24.300001,,,,x,,
417422,0.6555647,5.048925,-0.5215807,-1.440558,7.0655937,-7.3933396,113.100006,-162.90001,-29.7,,,,x,,
417442,-0.5072252,5.2457137,-0.3869985,-0.56402797,4.329296,-6.112844,129.90001,-162.90001,-25.500002,,,,x,,
417463,0.09689916,6.4330277,1.2943814,-0.083841994,-0.861286,-2.911604,125.100006,-165.3,-26.7,,,,x,,
417503,-1.3745326,7.175323,0.974973,-4.428382,13.429964,-1.18141,125.100006,-153.3,-22.5,,,,x,,
417523,-2.6533623,7.768681,-1.5701253,-1.821658,11.2195835,0.81555396,137.1,-162.90001,-26.1,,,,x,,
417547,-1.8051955,8.597109,-0.23207948,0.20579399,0.884152,1.478668,122.700005,-160.5,-29.1,,,,x,,
417567,-1.1903045,9.546362,-0.21533147,0.11432999,1.974098,0.92226195,129.90001,-155.70001,-26.1,,,,x,,
417633,-0.37802637,9.086988,-0.5090197,0.396344,0.64787,0.83842,127.50001,-155.70001,-15.3,,,,x,,
417653,-0.18063918,10.364621,-1.0652926,0.396344,1.059458,1.493912,115.50001,-158.1,-21.300001,,,,x,,
417738,-0.44322395,9.340601,-2.5504816,0.525918,-0.449698,1.935988,125.100006,-150.90001,-24.900002,,,,,,
417758,-0.30864176,9.636682,-2.731719,0.243904,0.106708,1.692084,125.100006,-160.5,-26.1,,,,,,
417778,-0.13996546,9.491931,-3.0349774,0.137196,-0.251526,1.173788,117.9,-162.90001,-26.7,,,,,,
417798,-0.0053832866,9.116297,-2.64439,-0.15244,-1.6463519,0.617382,122.700005,-158.1,-25.500002,,,,,,
417818,0.32419348,8.844142,-2.24184,-0.320124,-2.111294,0.47256398,110.700005,-155.70001,-24.300001,,,,,,
417841,0.9283179,9.18927,-2.0480416,-0.243904,-2.027452,0.92226195,105.9,-162.90001,-25.500002,,,,,,
417861,0.8649147,9.328039,-2.1730535,-0.69360197,-1.074702,0.67835796,110.700005,-172.5,-33.300003,,,,,,
417921,1.380514,9.3567505,-2.56065,-0.259148,-0.259148,0.487808,110.700005,-162.90001,-22.5,,,,,,
417941,1.4421227,9.198841,-3.016435,-0.426832,1.539644,0.015244,105.9,-165.3,-24.900002,,,,,,
417961,1.3278774,8.940443,-3.593643,-0.41921,2.370442,-0.68597996,113.100006,-170.1,-26.7,,,,,,
417984,1.3661586,8.39075,-4.886828,1.227142,3.7957559,-1.1204339,125.100006,-162.90001,-29.1,,,,,,
418004,1.677791,8.214297,-5.4436994,1.8902559,1.25763,-0.655492,129.90001,-158.1,-24.300001,,,,,,
418064,2.91176,7.6658,-3.9734638,-1.3948259,1.94361,-2.042696,110.700005,-167.70001,-30.300001,,,,x,,
418112,3.5595489,6.919916,-2.7903368,-3.567096,4.626554,-2.606724,115.50001,-158.1,-21.900002,,,,x,,
418132,3.5075104,6.3989334,-2.5498836,-3.7119138,6.78358,-4.352162,120.3,-143.70001,-26.1,,,,x,,
418174,3.2694495,5.02799,-1.1789398,-4.207344,6.4482117,-7.446694,144.3,-153.3,-20.7,,,,x,,
418196,2.7538502,3.9680805,-0.093908444,-4.38265,8.224138,-8.445176,137.1,-148.5,-18.300001,,,,x,,
418216,2.0576117,3.070268,-0.3409415,-4.0015497,10.647934,-9.542744,146.70001,-143.70001,-27.300001,,,,x,,
418238,-0.057421725,1.388888,0.20994818,-3.2545938,9.405548,-10.884215,170.70001,-148.5,-17.1,,,,x,,
418258,-0.2003779,1.4762169,0.7010236,-1.158544,7.1418138,-9.245486,158.70001,-138.90001,-30.300001,,,,x,,
418278,-0.13996546,1.6706133,2.221503,-1.21952,4.131124,-9.359816,170.70001,-131.70001,-20.1,,,,x,,
418298,-0.577208,0.91695315,3.3364415,-0.297258,6.0137577,-9.969576,182.70001,-138.90001,-24.900002,,,,x,,
418318,-1.0617038,3.1839151,2.8340013,0.830798,6.082356,-8.80341,187.5,-129.3,-20.7,,,,x,,
418342,-2.5205746,6.3361287,3.966286,1.532022,7.233278,-10.106771,204.3,-126.9,-20.7,,,,x,,
418362,-6.3612504,5.9431486,2.5803888,1.951232,8.772922,-12.53819,209.1,-119.700005,-15.900001,,,,x,,
418382,-8.347683,4.2187023,1.6018269,4.778994,6.1052217,-12.2104435,211.50002,-117.3,-23.7,,,,x,,
418404,-8.71255,7.0467224,0.71478087,7.218034,1.3643379,-5.403998,221.1,-102.9,-12.3,,,,x,,
418426,-10.201328,10.831173,0.23088318,4.26832,0.358234,-3.833866,213.90001,-114.9,-13.500001,,,,x,,
418446,-10.459128,10.014708,-1.522872,5.6097918,0.198172,-7.225656,235.50002,-112.50001,-13.500001,,,,x,,
418468,-11.277986,10.240806,-2.7454762,6.471078,-4.214966,-5.800342,218.70001,-88.5,-15.3,,,,x,,
418488,-11.200227,13.284756,-3.8251243,4.64942,-6.471078,-3.323192,237.90001,-95.700005,-11.700001,,,,x,,
418508,-11.100935,13.131631,-3.8185446,4.03966,-11.082388,-5.37351,235.50002,-98.100006,-10.5,,,,x,,
418529,-12.36541,12.879812,-2.9267135,4.283564,-11.562573,-5.617414,252.3,-86.100006,-20.1,,,,x,,
418589,-13.562892,12.483842,-2.4284604,3.384168,-14.939119,-3.437522,257.1,-71.700005,-16.5,,,,x,,
418611,-13.474367,13.506666,-5.091393,7.5305357,-1.326228,2.065562,266.7,-76.5,-22.5,,,,x,,
418672,-11.243892,10.142112,-3.669009,5.137228,-12.454348,7.0046177,261.90002,-83.700005,-16.5,,,,x,,
418706,-8.942238,12.999441,-6.505403,5.75461,-2.050318,9.22262,254.70001,-90.9,-24.900002,,,,x,,
418746,-8.085098,11.52143,-8.868666,5.838452,-3.7119138,8.80341,228.3,-83.700005,-21.900002,,,,x,,
418768,-6.116012,12.194939,-8.430227,1.6158639,-12.08087,10.312566,221.1,-98.100006,-25.500002,,,,x,,
418788,-6.330745,11.25406,-6.3917556,0.221038,-11.211962,8.948228,221.1,-107.700005,-28.500002,,,,x,,
418828,-3.8771627,10.782723,-8.865675,2.2637339,-0.67073596,10.945191,199.50002,-131.70001,-21.900002,,,,x,,
418848,-3.229374,11.382661,-8.794497,-0.20579399,-4.070148,11.410133,187.5,-117.3,-27.900002,,,,x,,
418872,-2.8722825,10.812631,-8.113212,0.03811,-3.635694,9.512256,187.5,-138.90001,-19.5,,,,x,,
418892,-2.058808,9.804161,-8.492434,1.265252,-1.326228,8.864386,173.1,-138.90001,-18.900002,,,,x,,
418914,-1.6712115,9.563109,-8.31,-0.320124,-1.33385,9.649452,168.3,-129.3,-20.7,,,,x,,
418934,-0.61070395,9.896873,-7.6358933,-1.4024479,-1.3948259,9.580853,161.1,-148.5,-17.1,,,,x,,
418954,-0.47671995,9.048109,-6.6836495,-1.699706,-0.891774,7.103704,151.5,-148.5,-18.300001,,,,x,,
418974,-0.98753405,6.769782,-5.8067718,-2.088428,1.547266,4.4512477,149.1,-158.1,-29.1,,,,x,,
419014,-0.0765623,6.9342713,-6.0526085,-1.806414,5.312534,7.8887696,137.1,-160.5,-24.900002,,,,x,,
419078,0.799119,6.096273,-3.1103435,-4.123502,6.333882,6.234796,110.700005,-165.3,-23.7,,,,x,,
419098,1.0874239,5.4072123,-3.4991364,-3.6814258,9.062558,4.5579557,103.50001,-162.90001,-21.300001,,,,x,,
419118,1.2620816,5.6040015,-3.1869059,-3.551852,7.400962,4.4817357,110.700005,-158.1,-24.300001,,,,x,,
419138,1.3835047,5.7625093,-2.255597,-3.6814258,6.0899777,3.650938,98.700005,-160.5,-21.900002,,,,x,,
419158,1.4020472,5.493943,-1.3781214,-3.7805119,6.44059,2.7058098,103.50001,-162.90001,-24.900002,,,,x,,
419178,1.5665364,5.381492,-0.83740014,-3.7805119,7.8125496,1.684462,84.3,-174.90001,-26.7,,,,x,,
419198,1.4564781,5.463438,-1.6436969,-2.7286758,9.314084,0.746956,93.9,-174.90001,-27.900002,,,,x,,
419218,1.0981905,4.7719846,-1.0258152,-2.2561119,7.2409,-0.007622,93.9,-177.3,-29.7,,,,x,,
419238,1.6167804,5.271434,-0.4803088,-1.760682,5.823208,0.60976,96.3,-174.90001,-23.7,,,,x,,
419258,1.6490802,5.6715918,0.3367545,-2.637212,5.899428,0.274392,105.9,-177.3,-32.100002,,,,x,,
419301,0.7476787,5.178722,0.49765494,-1.806414,6.082356,-1.1128119,93.9,-172.5,-32.7,,,,x,,
419321,1.4702355,7.008441,0.9301123,-0.81555396,4.34454,0.0,98.700005,-172.5,-20.1,,,,x,,
419341,1.116733,7.198651,1.1807343,-1.56251,5.076252,-0.72409,103.50001,-162.90001,-27.300001,,,,x,,
419361,1.1263032,7.4821706,0.677696,-0.868908,4.359784,-0.579272,98.700005,-179.70001,-27.900002,,,,x,,
419381,1.3482143,8.041434,1.0210301,-0.663114,3.1859958,-0.503052,98.700005,-162.90001,-26.7,,,,x,,
419401,1.4301598,8.717934,0.78895056,-0.95274997,3.7195358,-0.091464,84.3,-170.1,-21.300001,,,,x,,
419421,0.75784713,9.067847,0.16448931,-1.1051899,3.986306,-0.160062,98.700005,-170.1,-26.1,,,,x,,
419444,0.080151156,8.889003,-0.76801556,-0.053354,2.7286758,-0.94512796,84.3,-162.90001,-23.1,,,,x,,
419464,0.14355431,9.372302,-0.8924293,1.21952,1.097568,-0.449698,91.5,-162.90001,-27.900002,,,,x,,
419485,0.2254999,10.3173685,-1.2064544,0.960372,0.602138,-0.099086,96.3,-170.1,-21.900002,,,,x,,
419505,0.38400778,10.189963,-1.3081387,0.15244,-0.20579399,-1.1280559,93.9,-165.3,-22.5,,,,x,,
419527,0.36666164,9.055884,-1.1717621,-0.16768399,-0.442076,-1.8292799,101.100006,-167.70001,-27.900002,,,,x,,
419547,0.15970418,9.299927,-1.723848,0.312502,0.23628199,-0.93750596,105.9,-165.3,-26.1,,,,,,
419567,0.13159145,9.5619135,-2.0647895,0.70122397,-0.35061198,-0.46494198,110.700005,-172.5,-24.300001,,,,,,
419588,0.41810194,9.725804,-1.7513626,0.57164997,-1.173788,-0.083841994,103.50001,-170.1,-23.1,,,,,,
419608,0.59275967,9.727599,-1.9284129,0.160062,-0.861286,-0.160062,103.50001,-172.5,-18.900002,,,,,,
419628,0.3995595,8.924891,-1.9475535,0.297258,-0.94512796,-0.434454,110.700005,-167.70001,-26.7,,,,,,
419648,0.5694321,8.932667,-2.0235176,0.754578,-0.907018,0.03811,101.100006,-158.1,-18.900002,,,,,,
419668,0.748875,9.219776,-2.5014338,0.93750596,-0.320124,0.70122397,110.700005,-165.3,-27.300001,,,,,,
419691,0.6914533,9.082203,-2.689849,0.617382,-0.69360197,0.541162,93.9,-167.70001,-28.500002,,,,,,
419711,1.0593112,9.010426,-2.5217707,0.579272,-1.4024479,0.434454,103.50001,-158.1,-16.5,,,,,,
419731,1.3918787,8.89618,-2.3285706,0.0,-0.861286,0.320124,93.9,-170.1,-23.7,,,,,,
419751,1.3320644,9.045716,-2.6174736,-0.46494198,0.35061198,0.182928,96.3,-162.90001,-26.7,,,,,,
419774,1.3123257,9.183289,-3.3352451,-0.030488,1.303362,-0.777444,113.100006,-155.70001,-27.900002,,,,,,
419794,1.367953,9.167139,-3.4488924,-0.510674,0.525918,-1.478668,105.9,-170.1,-24.900002,,,,,,
419814,1.5324423,8.701186,-3.0577068,-0.861286,-0.07622,-1.71495,105.9,-162.90001,-21.900002,,,,,,
419834,1.7818679,8.519949,-2.902788,-0.82317597,0.777444,-1.48629,105.9,-177.3,-29.7,,,,,,
419857,1.7316239,8.374599,-3.0427532,-0.49543,1.75306,-1.455802,113.100006,-170.1,-29.1,,,,,,
419877,2.3704405,8.920106,-3.1940835,-0.373478,1.958854,-1.3643379,115.50001,-170.1,-23.7,,,,,,
419897,2.8351977,7.9876013,-3.3119175,-0.320124,3.003068,-2.126538,98.700005,-170.1,-23.7,,,,x,,
419917,3.0571086,6.5747876,-3.777871,1.25763,4.862836,-2.545748,105.9,-170.1,-26.1,,,,x,,
419977,4.4561653,7.069452,-3.442911,-0.891774,3.414656,-6.93602,115.50001,-170.1,-23.1,,,,x,,
420000,4.221693,5.090795,-3.1193156,-2.36282,5.800342,-9.268352,137.1,-155.70001,-20.7,,,,x,,
420020,3.4381258,3.145634,-2.3291688,-3.140264,7.027484,-10.86135,137.1,-143.70001,-24.900002,,,,x,,
420061,1.8297193,2.467938,-0.13936731,-4.245454,8.064075,-11.112876,163.5,-146.1,-20.7,,,,x,,
420087,1.0132542,1.9062816,0.1752559,-3.4299,9.809514,-11.471109,170.70001,-150.90001,-20.7,,,,x,,
420108,-1.1304902,1.238754,1.029404,-2.2637339,9.169266,-11.554952,177.90001,-141.3,-18.900002,,,,x,,
420150,-3.3065343,6.794306,5.2235827,-3.635694,7.073216,-11.074766,180.3,-134.1,-18.300001,,,,x,,
420170,-3.6079984,6.0071497,3.9734638,-2.408552,9.847624,-12.469592,180.3,-122.100006,-18.300001,,,,x,,
420192,-4.9257073,6.9593935,3.7509546,0.213416,2.500016,-10.960436,204.3,-124.50001,-13.500001,,,,x,,
420212,-7.351177,5.4885597,4.426856,1.8750119,0.41921,-12.522945,218.70001,-119.700005,-24.300001,,,,x,,
420232,-7.196856,6.9103456,2.2657657,6.13571,-2.157026,-7.942124,223.50002,-105.3,-15.3,,,,x,,
420252,-8.072537,7.96547,3.9776506,4.969544,-7.4543157,-7.370474,218.70001,-105.3,-17.7,,,,x,,
420272,-11.449653,4.450184,2.3441224,5.205826,-3.003068,-9.687562,235.50002,-88.5,-16.5,,,,x,,
420332,-12.637565,7.643669,-1.836299,8.788166,-1.8673899,-5.60217,240.3,-83.700005,-15.3,,,,x,,
420508,-10.372995,16.119953,-9.370508,5.10674,-11.7150135,8.978716,242.70001,-95.700005,-20.7,,,,x,,
420528,-10.478867,16.560785,-9.174317,4.054904,-12.058003,8.239382,242.70001,-90.9,-21.900002,,,,x,,
420572,-9.754516,11.48913,-8.069547,4.740884,-5.929916,9.779026,221.1,-100.50001,-21.300001,,,,x,,
420592,-7.939152,14.1078005,-9.922594,4.756128,-3.8186219,12.804959,221.1,-112.50001,-19.5,,,,x,,
420612,-6.250594,13.782411,-10.077513,3.094532,-9.085423,11.570196,209.1,-105.3,-26.7,,,,x,,
420632,-6.2236776,12.174004,-8.263345,0.60976,-10.472628,10.564092,209.1,-122.100006,-29.7,,,,x,,
420652,-5.4676247,10.916707,-8.292654,1.303362,-4.641798,10.525982,197.1,-117.3,-26.7,,,,x,,
420692,-2.7999072,10.934651,-9.244898,-1.013726,-3.7271578,12.477214,165.90001,-119.700005,-25.500002,,,,x,,
420712,-1.8339063,10.713339,-8.033658,-2.301844,-6.0899777,10.640312,161.1,-134.1,-26.7,,,,x,,
420732,-1.4164026,8.658119,-6.791315,-2.347576,-3.879598,6.699738,165.90001,-136.5,-24.900002,,,,x,,
420752,-1.1227144,6.317586,-6.6663036,-1.692084,0.35061198,6.158576,144.3,-148.5,-26.7,,,,x,,
420772,-0.59694666,7.170538,-6.8463445,-2.423796,3.407034,8.971094,137.1,-158.1,-30.900002,,,,x,,
420792,0.079553016,7.542583,-6.6375923,-2.2713559,3.346058,7.50767,149.1,-162.90001,-26.7,,,,x,,
420816,0.38939106,6.1776204,-5.826511,-1.074702,2.408552,5.167716,129.90001,-153.3,-35.100002,,,,x,,
420836,0.28471604,4.5482793,-4.623047,-1.94361,2.47715,4.474114,125.100006,-153.3,-29.1,,,,x,,
420856,0.3409415,3.8974996,-3.9058735,-1.684462,7.218034,5.663146,132.3,-155.70001,-27.900002,,,,x,,
420876,1.0910128,4.8294063,-4.049428,-2.7362978,7.73633,5.693634,115.50001,-158.1,-30.900002,,,,x,,
420896,1.2471281,4.778564,-3.6468778,-2.995446,7.4695597,5.137228,110.700005,-170.1,-26.1,,,,x,,
420916,1.6682208,4.4741096,-2.1575017,-4.275942,5.693634,3.559474,115.50001,-167.70001,-28.500002,,,,x,,
420936,1.7645217,3.9226215,-0.72614557,-4.824726,6.5396757,2.47715,115.50001,-165.3,-27.900002,,,,x,,
420981,1.2555021,3.7431786,-0.88704604,-3.147886,12.65252,0.68597996,108.3,-153.3,-28.500002,,,,x,,
421002,1.5222739,3.9884174,-0.76502484,-1.501534,10.472628,-0.46494198,105.9,-160.5,-31.500002,,,,x,,
421022,2.104865,4.6918335,0.5347398,-1.417692,7.6524878,-0.388722,96.3,-177.3,-27.900002,,,,x,,
421043,1.5701253,6.372017,0.8631203,-1.242386,9.748538,-0.594516,110.700005,-165.3,-21.900002,,,,x,,
421106,0.9648046,7.9421425,1.8410841,-1.9054999,8.224138,0.20579399,115.50001,-170.1,-27.300001,,,,x,,
421126,0.19918162,8.198746,0.68606997,-1.4024479,9.969576,-0.106708,125.100006,-167.70001,-24.900002,,,,x,,
421146,-0.1309933,8.396132,0.23925719,-0.967994,7.5305357,-0.289636,117.9,-165.3,-26.1,,,,x,,
421166,-0.5736191,9.322657,0.17106889,-0.106708,5.8765616,-0.045732,122.700005,-148.5,-21.900002,,,,x,,
421186,-0.5329454,9.902855,-0.33496007,-0.121952,4.80186,-0.68597996,115.50001,-191.70001,-24.300001,,,,x,,
421207,-0.6029281,9.619335,-0.4791125,-0.213416,3.147886,-1.3719599,117.9,-160.5,-27.900002,,,,x,,
421248,-1.1364716,9.340601,-1.2794278,0.22865999,1.821658,-1.059458,105.9,-165.3,-17.1,,,,x,,
421284,-0.6974347,9.53081,-1.5988362,0.20579399,0.07622,-0.46494198,113.100006,-177.3,-22.5,,,,x,,
421304,-0.16927446,9.963267,-1.9684886,0.144818,0.57164997,-0.129574,132.3,-160.5,-23.1,,,,,,
421348,-0.5048327,9.112708,-1.9439646,-0.144818,0.022866,-0.960372,113.100006,-172.5,-23.7,,,,,,
421408,-0.39058736,9.213795,-2.3064394,1.516778,-1.577754,0.17530599,110.700005,-160.5,-20.1,,,,,,
421448,0.51021594,9.284973,-1.5880696,0.22865999,-1.29574,0.739334,108.3,-165.3,-20.1,,,,,,
421468,0.28890306,9.252673,-2.3710387,0.03811,0.243904,0.87653,122.700005,-165.3,-23.7,,,,,,
421488,0.5843857,9.402209,-2.7030082,0.708846,-0.068598,1.166166,103.50001,-170.1,-22.5,,,,,,
421528,0.74648243,8.8579,-2.3112245,-0.213416,-0.640248,1.044214,115.50001,-162.90001,-22.5,,,,,,
421549,1.0718722,8.718532,-2.4655454,0.045732,-0.442076,1.051836,105.9,-162.90001,-14.700001,,,,,,
421569,0.8625222,8.813039,-2.7113822,-0.274392,-0.487808,0.998482,108.3,-155.70001,-18.300001,,,,,,
421590,0.73511773,8.504396,-3.2820106,-0.388722,-0.160062,0.68597996,105.9,-172.5,-24.900002,,,,,,
421610,1.7669144,8.79629,-3.9321918,-0.53354,-2.035074,0.99086,113.100006,-148.5,-18.300001,,,,,,
421630,2.2274845,8.569594,-3.5194733,-1.920744,-3.018312,0.251526,103.50001,-174.90001,-23.1,,,,,,
421650,2.3369446,7.7184367,-4.1056533,-0.72409,-0.92988396,-0.625004,103.50001,-158.1,-21.900002,,,,,,
421670,3.0810344,7.777653,-4.848547,0.541162,-0.754578,-0.434454,101.100006,-165.3,-19.5,,,,,,
421714,5.1823106,8.375197,-5.2265735,-0.57164997,-2.118916,-4.0472817,101.100006,-170.1,-20.7,,,,,,
421735,5.2995467,6.890009,-4.188795,-2.2027578,-2.560992,-6.0594897,115.50001,-165.3,-23.7,,,,x,,
421755,4.836584,5.458653,-3.1348674,-3.102154,-0.60976,-6.70736,120.3,-162.90001,-21.300001,,,,x,,
421775,3.9800434,4.600916,-2.3273742,-4.0015497,2.461906,-7.43145,120.3,-158.1,-27.900002,,,,x,,
421799,3.7623193,4.045241,-2.2209048,-3.955818,4.809482,-8.72719,129.90001,-162.90001,-27.900002,,,,x,,
421819,2.865105,3.1492229,-1.2291838,-3.8262439,4.4817357,-10.647934,129.90001,-148.5,-24.300001,,,,x,,
421841,1.681978,3.1276896,0.016748004,-3.460388,4.0320377,-12.713495,158.70001,-146.1,-23.1,,,,x,,
421861,0.32060462,0.8792702,1.1885101,-4.367406,5.18296,-14.336982,180.3,-138.90001,-23.1,,,,x,,
421885,-1.6801836,-1.0120579,2.033088,-2.05794,6.166198,-12.835447,173.1,-141.3,-21.900002,,,,x,,
421905,0.20277047,3.8083763,2.1407537,-1.006104,2.957336,-7.492426,180.3,-148.5,-18.900002,,,,x,,
421925,-0.6669294,4.8670893,5.442503,-2.004586,5.015276,-11.272938,189.90001,-131.70001,-31.500002,,,,x,,
421948,-2.095893,5.065673,3.3693395,-1.75306,10.373542,-13.140327,213.90001,-119.700005,-23.1,,,,x,,
422011,-7.120294,9.12168,4.457361,1.417692,0.548784,-7.751574,228.3,-105.3,-19.5,,,,x,,
422031,-13.765064,5.9886074,2.3686461,3.8262439,4.5274677,-12.012272,242.70001,-107.700005,-24.900002,,,,x,,
422051,-11.816913,7.1669493,-1.3577845,9.169266,-1.6082419,-6.242418,249.90001,-93.3,-24.300001,,,,x,,
422071,-9.19585,9.857396,2.0785468,5.129606,-15.846138,-3.8186219,242.70001,-93.3,-25.500002,,,,x,,
422091,-14.085071,9.475183,2.3895812,6.13571,-5.8613176,-5.320156,254.70001,-76.5,-25.500002,,,,x,,
422114,-13.70525,12.399504,-3.0218184,9.405548,1.082324,-0.655492,257.1,-90.9,-18.900002,,,,x,,
422135,-11.391035,11.796576,-2.515191,5.0228977,-15.106804,-3.2698379,254.70001,-76.5,-23.7,,,,x,,
422155,-18.755371,6.651948,1.0581149,8.071698,-9.489389,-3.6890478,259.5,-78.9,-18.300001,,,,x,,
422175,-12.065142,15.857966,-7.106537,18.10987,10.922326,11.859832,242.70001,-78.9,-23.7,,,,x,,
422196,-7.489348,19.07837,-9.564306,7.5762677,-5.60217,7.27901,237.90001,-74.100006,-20.1,,,,x,,
422216,-14.778318,9.695299,-5.4933453,6.02138,-12.172334,-0.792688,254.70001,-88.5,-15.900001,,,,x,,
422237,-10.9837,12.58732,-8.758009,11.997027,1.478668,11.16623,235.50002,-83.700005,-16.5,,,,x,,
422257,-7.856608,17.097918,-10.125364,5.724122,-5.708878,10.777508,228.3,-86.100006,-13.500001,,,,x,,
422277,-9.802965,14.281261,-7.8793373,2.980202,-10.59458,4.9771657,235.50002,-100.50001,-19.5,,,,x,,
422297,-12.04959,11.77265,-8.113212,5.22107,-2.6677,4.634176,245.1,-95.700005,-19.5,,,,x,,
422319,-6.715949,13.5138445,-12.161443,4.108258,-2.926848,9.5275,216.3,-102.9,-15.900001,,,,x,,
422339,-7.007843,12.456327,-10.169627,0.884152,-11.676904,8.323224,204.3,-107.700005,-20.1,,,,x,,
422359,-6.5209546,12.788297,-9.33761,1.509156,-9.359816,9.840002,211.50002,-112.50001,-17.1,,,,x,,
422379,-5.2080307,12.495805,-9.7132435,1.173788,-5.205826,9.748538,189.90001,-122.100006,-15.3,,,,x,,
422399,-4.230665,11.767266,-9.486547,-0.213416,-5.670768,9.87049,189.90001,-126.9,-17.1,,,,x,,
422419,-4.672693,10.971737,-8.920704,-0.434454,-2.2561119,9.893355,189.90001,-126.9,-12.900001,,,,x,,
422439,-2.714971,11.649432,-10.364621,0.487808,2.59148,11.097631,182.70001,-126.9,-17.1,,,,x,,
422459,-1.4995444,11.62132,-10.435801,-2.51526,-2.62959,10.205858,175.5,-138.90001,-18.900002,,,,x,,
422483,-2.1688664,9.951304,-8.121585,-5.228692,-5.739366,7.5305357,153.90001,-141.3,-25.500002,,,,x,,
422503,-2.2221012,7.087396,-7.170538,-3.147886,0.160062,4.969544,151.5,-146.1,-21.300001,,,,x,,
422523,-0.80749303,6.8044744,-8.432021,-1.79117,2.7744079,6.227174,156.3,-143.70001,-19.5,,,,x,,
422546,-0.24404234,7.0054502,-7.9750404,-3.3003259,0.68597996,7.8735256,144.3,-148.5,-20.7,,,,x,,
422630,1.2925869,5.093786,-3.9513326,-4.054904,4.085392,5.236314,129.90001,-158.1,-26.7,,,,x,,
422670,1.4606651,4.563233,-2.878264,-5.015276,6.128088,4.817104,101.100006,-167.70001,-21.300001,,,,x,,
422690,1.4373375,3.7748804,-2.1664739,-5.129606,5.807964,4.519846,98.700005,-146.1,-24.900002,,,,x,,
422732,2.0019846,4.0111465,-0.2560052,-5.5793037,7.0960817,3.7728899,96.3,-165.3,-21.900002,,,,x,,
422754,2.2358584,3.6989162,0.006579573,-5.091496,9.60372,2.637212,93.9,-174.90001,-27.300001,,,,x,,
422774,2.510406,4.2516003,-0.01794429,-4.207344,10.106771,2.317088,98.700005,-170.1,-24.300001,,,,x,,
422798,1.9278148,4.600916,0.04067372,-3.460388,10.243968,1.204276,79.5,-170.1,-21.300001,,,,x,,
422838,1.8195509,6.7141547,0.8625222,-2.614346,7.8277936,1.8369019,84.3,-170.1,-17.1,,,,x,,
422902,0.45638308,5.9628873,1.9643015,-2.545748,6.676872,-0.47256398,98.700005,-167.70001,-36.300003,,,,x,,
422967,0.5819931,10.073924,0.94805664,0.274392,3.414656,0.93750596,86.700005,-162.90001,-26.1,,,,x,,
422987,-0.18063918,10.280283,-0.39297992,0.22865999,3.361302,0.297258,86.700005,-179.70001,-31.500002,,,,x,,
423027,-0.10646945,10.141514,-0.36546534,1.3567159,0.487808,-0.830798,79.5,-179.70001,-30.900002,,,,x,,
423047,-0.07835673,9.788012,-1.0186375,1.44818,0.67835796,-1.56251,98.700005,-167.70001,-33.300003,,,,x,,
423070,0.12740445,9.778441,-1.422384,1.996964,-0.312502,-1.493912,93.9,-165.3,-33.300003,,,,,,
423090,0.2213129,10.093662,-1.1179292,1.821658,-0.983238,-1.478668,84.3,-165.3,-31.500002,,,,,,
423110,0.32778236,10.192356,-1.4917686,1.196654,-0.045732,-1.783548,96.3,-167.70001,-25.500002,,,,,,
423130,0.27514577,9.479968,-1.7513626,0.663114,0.312502,-2.2103798,93.9,-177.3,-22.5,,,,,,
423150,0.30804363,9.109119,-1.8374952,1.036592,0.289636,-1.326228,93.9,-174.90001,-24.300001,,,,,,
423170,0.29608077,9.244898,-1.8177565,1.059458,0.53354,-0.251526,98.700005,-174.90001,-30.300001,,,,,,
423191,0.4204945,8.953602,-1.9726756,1.242386,0.94512796,0.3811,110.700005,-165.3,-22.5,,,,,,
423211,0.635826,9.269422,-1.9176464,1.6158639,1.036592,0.82317597,91.5,-170.1,-19.5,,,,,,
423231,0.773997,9.541576,-2.1407537,1.455802,1.509156,0.87653,108.3,-172.5,-27.900002,,,,,,
423252,0.7554546,9.443481,-2.2735415,0.94512796,1.5929979,0.579272,89.100006,-177.3,-31.500002,,,,,,
423272,0.78595984,9.216785,-2.497845,0.853664,1.5929979,0.41921,89.100006,-174.90001,-24.300001,,,,,,
423334,1.3410366,9.582849,-2.4631526,0.060976,-0.099086,0.830798,86.700005,-174.90001,-25.500002,,,,,,
423356,1.1932952,9.067249,-2.2597842,-0.182928,-0.22865999,0.41921,96.3,-158.1,-33.300003,,,,,,
423377,1.1992767,8.96736,-2.1868107,-0.083841994,-0.426832,0.47256398,81.9,-174.90001,-22.5,,,,,,
423397,1.4738243,9.167139,-2.1287909,0.068598,-0.67835796,0.541162,84.3,-174.90001,-27.300001,,,,,,
423417,1.5348349,9.196448,-1.991218,-0.099086,-0.64787,0.23628199,89.100006,-165.3,-25.500002,,,,,,
423437,1.5378256,9.015809,-2.0881171,-0.221038,-0.594516,-0.251526,69.9,-162.90001,-21.300001,,,,,,
423459,1.6544634,8.542678,-2.0528266,-0.137196,-0.70122397,-0.518296,93.9,-167.70001,-17.1,,,,,,
423500,2.0277047,8.755617,-2.6653252,-0.274392,0.160062,-0.28201398,74.700005,-165.3,-18.300001,,,,,,
423521,2.3124208,8.604286,-3.1988685,-0.625004,0.40396598,-0.47256398,89.100006,-177.3,-23.1,,,,,,
423542,2.2209048,7.1651545,-3.2568884,0.198172,0.891774,-0.92226195,91.5,-165.3,-20.7,,,,,,
423562,2.9081712,8.278298,-4.6068974,1.516778,3.033556,0.907018,84.3,-165.3,-20.7,,,,,,
423582,3.6068022,9.46322,-5.2552843,0.655492,2.545748,0.967994,81.9,-167.70001,-22.5,,,,,,
423602,4.233656,8.51935,-5.075243,-0.03811,0.80793196,-0.72409,81.9,-172.5,-21.900002,,,,,,
423623,4.7026,7.8853188,-4.216908,-0.83842,0.49543,-0.92226195,81.9,-174.90001,-22.5,,,,,,
423643,5.330052,8.079117,-3.7994041,-1.707328,3.399412,-1.9131219,79.5,-167.70001,-25.500002,,,,,,
423663,5.73021,7.3786917,-3.174943,-2.7667859,4.283564,-4.5122237,98.700005,-182.1,-27.900002,,,,,,
423683,5.4622416,6.1369467,-1.4229821,-3.376546,5.37351,-6.66925,84.3,-179.70001,-19.5,,,,x,,
423703,5.334837,5.857016,-0.6071151,-3.3155699,9.474146,-7.644866,96.3,-172.5,-25.500002,,,,x,,
423746,3.5045197,3.1354654,0.42109266,-2.347576,12.058003,-11.006167,117.9,-165.3,-24.300001,,,,x,,
423766,2.0647895,2.994902,1.1669769,-0.708846,11.295804,-11.39489,122.700005,-165.3,-26.1,,,,x,,
423786,1.87458,3.3412266,1.1980804,-0.106708,11.150986,-11.66166,132.3,-155.70001,-23.7,,,,x,,
423807,0.68666816,2.8806565,1.472628,0.57164997,8.971094,-14.413201,151.5,-141.3,-23.7,,,,x,,
423827,-0.5957504,1.6550616,2.405731,2.088428,5.670768,-16.227238,158.70001,-153.3,-23.1,,,,x,,
423847,-0.4743274,2.560052,3.058305,2.850628,2.881116,-14.870522,177.90001,-141.3,-21.900002,,,,x,,
423867,-1.4989463,2.3441224,3.8765645,2.2180018,1.79117,-15.541258,182.70001,-136.5,-15.900001,,,,x,,
423928,-7.743559,2.234064,2.9057786,5.4268637,-0.91463995,-13.368988,209.1,-112.50001,-12.900001,,,,x,,
423948,-8.120987,4.8718743,0.28351977,7.5915117,-2.126538,-7.218034,221.1,-105.3,-16.5,,,,x,,
423968,-10.063755,6.99588,0.6077133,6.3567476,-6.17382,-7.179924,230.70001,-102.9,-14.1,,,,x,,
423988,-12.205108,6.135751,-1.4062341,7.8887696,-2.103672,-8.704324,247.50002,-86.100006,-14.700001,,,,x,,
424011,-11.868951,7.722026,-3.6779811,7.446694,-7.416206,-3.8109999,235.50002,-88.5,-17.7,,,,x,,
424031,-12.451542,11.239106,-4.023708,6.4786997,-9.931466,-2.2103798,240.3,-71.700005,-12.3,,,,x,,
424051,-10.547055,13.635865,-5.6985083,7.210412,-9.093046,-3.018312,264.30002,-78.9,-10.5,,,,x,,
424071,-13.061049,10.410679,-5.3791,5.807964,-13.323256,-5.3354,247.50002,-69.3,-16.5,,,,x,,
424093,-12.452739,12.597489,-6.211117,6.654006,-10.990924,0.548784,240.3,-74.100006,-11.700001,,,,x,,
424113,-9.837059,14.841722,-7.351177,6.3719916,-10.853727,1.013726,257.1,-66.9,-14.700001,,,,x,,
424176,-10.665487,14.815403,-9.486547,1.3567159,-14.801924,6.486322,259.5,-78.9,-20.1,,,,x,,
424196,-11.8187065,13.955872,-7.3320365,0.80030996,-18.094627,5.213448,240.3,-76.5,-19.5,,,,x,,
424218,-8.170034,16.672039,-8.228055,1.463424,-14.618996,8.018344,242.70001,-86.100006,-21.300001,,,,x,,
424238,-7.96547,16.06672,-7.3445973,-0.068598,-18.087006,7.0808377,245.1,-81.3,-21.900002,,,,x,,
424280,-8.789113,14.028247,-7.145416,3.2469718,-1.3567159,10.236346,211.50002,-100.50001,-24.900002,,,,x,,
424344,-5.899484,14.049182,-4.527344,-2.378064,-15.000095,9.077802,192.3,-107.700005,-31.500002,,,,x,,
424364,-5.8935027,11.910821,-3.65585,-1.089946,-7.294254,7.172302,187.5,-124.50001,-37.5,,,,x,,
424386,-5.7200413,11.554328,-5.270238,-0.297258,-0.69360197,8.887252,182.70001,-126.9,-30.900002,,,,x,,
424406,-5.141637,11.713434,-5.8731656,-0.746956,-1.547266,9.923843,175.5,-143.70001,-32.7,,,,x,,
424426,-4.3239756,10.774349,-5.142833,-0.708846,-3.871976,9.291218,168.3,-134.1,-36.300003,,,,x,,
424446,-4.1271863,9.441687,-4.681067,-0.129574,-0.655492,9.56561,163.5,-146.1,-31.500002,,,,x,,
424468,-2.414105,9.16355,-5.9712615,0.625004,3.8109999,11.257693,146.70001,-153.3,-30.300001,,,,x,,
424489,-1.2734464,9.304712,-5.54,0.0,-0.785066,10.579336,132.3,-155.70001,-33.9,,,,x,,
424509,-1.1472383,7.7082686,-3.711477,-0.53354,-0.396344,7.705842,129.90001,-143.70001,-38.100002,,,,x,,
424529,-0.67470527,6.3911576,-4.07455,0.548784,6.318638,8.57475,125.100006,-160.5,-27.900002,,,,x,,
424551,0.26677176,7.111322,-4.786938,-0.80030996,7.4085836,10.716532,125.100006,-165.3,-37.5,,,,x,,
424571,0.83082056,7.1741266,-3.9046774,-0.739334,5.0838737,9.992442,103.50001,-174.90001,-37.5,,,,x,,
424595,1.0258152,6.007748,-2.6390069,-0.518296,4.641798,7.3171196,93.9,-160.5,-28.500002,,,,x,,
424635,2.2143252,4.2940683,-1.7663162,0.853664,8.948228,6.51681,89.100006,-167.70001,-27.900002,,,,x,,
424696,2.4296567,4.3658457,-0.65077955,1.699706,13.841552,1.8750119,77.100006,-172.5,-26.7,,,,x,,
424716,2.8316088,4.080531,-0.117834166,1.745438,13.155572,-1.013726,79.5,-172.5,-26.7,,,,x,,
424736,3.087614,3.4644442,0.23925719,2.560992,13.856795,-1.585376,79.5,-174.90001,-27.300001,,,,x,,
424756,2.857927,4.655347,0.18362989,1.989342,14.131187,-0.82317597,84.3,-167.70001,-27.300001,,,,x,,
424778,2.0336862,3.9680805,-0.056225438,2.431418,15.022962,-2.545748,79.5,-165.3,-25.500002,,,,x,,
424798,2.2729433,5.515476,-0.27036062,2.6905658,12.340017,-0.312502,84.3,-184.5,-23.7,,,,x,,
424818,1.6861651,7.074237,0.4288685,1.318606,11.39489,-0.182928,81.9,-174.90001,-25.500002,,,,x,,
424878,0.88046646,7.5826583,-0.47492552,-0.846042,6.265284,-2.2408679,98.700005,-177.3,-21.900002,,,,x,,
424898,1.1179292,8.364431,-0.30864176,-0.19055,3.2241058,-1.577754,93.9,-170.1,-23.1,,,,x,,
424918,1.067087,8.958387,-0.79313755,0.07622,2.355198,-0.891774,77.100006,-172.5,-21.900002,,,,x,,
424938,1.0311985,9.185083,-1.2788297,0.34298998,0.82317597,-0.91463995,89.100006,-172.5,-18.900002,,,,x,,
424981,0.91755134,10.334714,-1.602425,0.3811,0.137196,-0.975616,89.100006,-167.70001,-21.300001,,,,x,,
425027,0.37922263,10.097252,-2.0970893,-0.92988396,-1.48629,-3.323192,91.5,-177.3,-21.300001,,,,x,,
425126,0.3229972,9.322657,-1.903291,0.426832,-0.975616,0.41921,93.9,-162.90001,-19.5,,,,,,
425146,0.32239905,9.137232,-2.171259,0.56402797,-0.70122397,0.251526,98.700005,-162.90001,-31.500002,,,,,,
425189,0.656761,9.086988,-2.263971,0.746956,-0.358234,0.510674,105.9,-158.1,-22.5,,,,,,
425209,0.5257677,9.019996,-2.4822934,0.80030996,0.19055,0.251526,96.3,-172.5,-21.300001,,,,,,
425229,0.69085515,9.674963,-2.9129562,1.021348,0.083841994,0.442076,101.100006,-165.3,-20.7,,,,,,
425253,0.7339214,9.750329,-2.7951221,0.327746,-0.274392,-0.20579399,98.700005,-174.90001,-21.900002,,,,,,
425315,0.81945586,8.990687,-2.6569512,-0.320124,0.121952,0.106708,93.9,-170.1,-13.500001,,,,,,
425445,1.594051,8.542678,-2.6946342,-0.28201398,0.297258,-0.274392,93.9,-174.90001,-24.900002,,,,,,
425509,2.740093,8.576174,-3.480594,0.586894,1.227142,-1.699706,93.9,-174.90001,-20.1,,,,,,
425549,4.673291,8.585146,-3.635513,0.129574,1.150922,-1.478668,93.9,-167.70001,-21.900002,,,,x,,
425569,4.421473,7.854215,-3.371732,-0.975616,3.2698379,-3.948196,101.100006,-165.3,-20.7,,,,x,,
425609,4.777966,6.304427,-3.133671,0.07622,4.4207597,-7.3171196,117.9,-153.3,-19.5,,,,x,,
425629,4.527942,6.3187823,-2.234662,-0.30488,4.397894,-7.5305357,122.700005,-160.5,-21.900002,,,,x,,
425670,3.7025049,4.266554,-0.8726906,-1.082324,6.562542,-10.1982355,125.100006,-153.3,-21.300001,,,,x,,
425690,2.7442799,2.9428635,0.18183546,-0.91463995,6.93602,-11.257693,134.70001,-148.5,-17.1,,,,x,,
425730,-0.46116823,1.5127035,0.6196761,1.661596,7.08846,-13.498562,173.1,-134.1,-17.7,,,,x,,
425752,-0.7267437,2.3190002,0.85235375,3.12502,4.809482,-12.553433,161.1,-124.50001,-18.900002,,,,x,,
425773,-0.9002052,3.5739043,1.4624596,3.361302,2.7667859,-11.66166,182.70001,-136.5,-15.3,,,,x,,
425793,-1.5916585,3.7838523,1.4415245,3.917708,2.530504,-12.012272,194.70001,-126.9,-14.1,,,,x,,
425814,-1.7298294,4.703198,1.5617512,4.428382,0.94512796,-10.868972,197.1,-107.700005,-14.700001,,,,x,,
425834,-3.4441073,6.217696,1.9804513,3.39179,-0.045732,-10.396408,197.1,-110.100006,-11.1,,,,x,,
425854,-6.773371,5.560935,1.1771454,2.903982,2.042696,-11.753123,216.3,-114.9,-8.1,,,,x,,
425894,-8.516359,6.7123604,-0.5335435,3.940574,-1.310984,-5.807964,228.3,-86.100006,-11.1,,,,x,,
425957,-10.93226,6.873859,-3.1258953,5.266802,-6.74547,-3.338436,237.90001,-81.3,-15.900001,,,,x,,
425977,-10.916109,9.019398,-3.899892,6.0976,-7.134192,-1.3872039,235.50002,-71.700005,-6.9,,,,x,,
425997,-10.4363985,10.131944,-4.837182,6.623518,-4.855214,-0.480186,233.1,-86.100006,-5.7000003,,,,x,,
426019,-11.306098,10.823996,-7.1023498,6.257662,-5.8613176,0.716468,254.70001,-71.700005,-14.1,,,,x,,
426082,-11.565693,13.079593,-7.1717343,3.612828,-8.704324,2.2561119,237.90001,-69.3,-12.3,,,,x,,
426102,-10.166636,13.210586,-9.624719,6.158576,-4.336918,5.8765616,237.90001,-76.5,-3.9,,,,x,,
426122,-8.487649,14.757981,-9.5182495,1.059458,-12.72874,5.9527817,235.50002,-76.5,-14.700001,,,,x,,
426142,-9.5942135,12.929459,-7.78184,0.846042,-13.361365,4.237832,245.1,-95.700005,-10.5,,,,x,,
426164,-9.444677,12.593901,-9.142615,3.955818,-6.59303,6.4329677,230.70001,-86.100006,-17.7,,,,x,,
426184,-7.923002,13.718409,-10.182786,2.43904,-7.751574,7.66011,228.3,-86.100006,-17.7,,,,x,,
426206,-7.3362236,14.5611925,-9.671373,0.861286,-11.730258,7.309498,213.90001,-98.100006,-12.900001,,,,x,,
426226,-7.870365,13.684913,-8.96078,0.47256398,-10.686044,5.975648,216.3,-93.3,-15.900001,,,,x,,
426248,-6.05859,12.657902,-9.404602,0.503052,-8.567128,7.820172,209.1,-110.100006,-15.3,,,,x,,
426269,-5.89769,13.488124,-8.753822,-1.44818,-10.739398,9.557988,204.3,-112.50001,-21.900002,,,,x,,
426289,-6.748847,12.395915,-7.409197,-2.7667859,-9.352194,8.46042,199.50002,-110.100006,-18.300001,,,,x,,
426331,-4.3502936,11.231929,-8.123978,-1.928366,-3.628072,11.295804,182.70001,-122.100006,-25.500002,,,,x,,
426353,-3.1635783,11.481355,-8.348282,-1.9054999,-5.320156,11.615928,182.70001,-124.50001,-24.900002,,,,x,,
426373,-2.363263,10.610458,-7.2046323,-2.7744079,-7.3171196,10.487872,165.90001,-146.1,-23.1,,,,x,,
426417,-1.2638761,7.8500285,-6.7661934,-0.487808,2.621968,7.881148,153.90001,-141.3,-26.7,,,,x,,
426467,-0.12321745,8.399123,-5.133861,-4.9771657,0.053354,8.6204815,125.100006,-148.5,-28.500002,,,,x,,
426567,1.3894861,5.3850813,-1.6855669,-1.8597679,6.577786,1.41007,110.700005,-165.3,-29.7,,,,x,,
426588,1.3117275,4.707385,-2.1527166,-2.027452,9.954331,0.137196,117.9,-162.90001,-23.7,,,,x,,
426628,0.94147706,3.6157742,-1.6664263,-2.32471,9.405548,0.388722,115.50001,-165.3,-29.1,,,,x,,
426651,1.3924768,4.6260376,-1.5779011,-1.471046,9.618964,1.585376,117.9,-167.70001,-27.900002,,,,x,,
426672,0.99710435,4.900585,-1.1149385,-1.951232,8.315601,1.29574,113.100006,-160.5,-20.7,,,,x,,
426692,1.6598468,4.8449583,-0.60352623,-1.692084,8.658592,0.785066,125.100006,-160.5,-30.300001,,,,,,
426712,1.9810495,5.515476,-0.4719348,-1.806414,8.597616,0.792688,115.50001,-162.90001,-27.300001,,,,,,
426733,1.5390218,5.877951,-0.25720146,-2.118916,9.1463995,0.060976,108.3,-160.5,-23.1,,,,,,
426753,1.0694796,5.5585427,-0.26378104,-1.98172,8.46042,-0.998482,115.50001,-167.70001,-27.300001,,,,,,
426815,0.09151588,7.919413,0.016748004,-1.318606,4.4969797,-1.036592,115.50001,-172.5,-27.300001,,,,,,
426927,-1.2178191,10.075718,-1.3571864,-0.975616,2.01983,-0.640248,125.100006,-167.70001,-23.1,,,,,,
426947,-1.0264133,9.445275,-1.041965,-0.594516,0.099086,-1.1432999,122.700005,-160.5,-21.300001,,,,,,
426990,-0.9977025,9.027772,-1.305148,-0.160062,-0.487808,-1.250008,110.700005,-162.90001,-30.900002,,,,,,
427010,-0.78595984,8.920106,-1.6604449,0.594516,-0.93750596,-0.586894,120.3,-189.3,-21.900002,,,,,,
427030,-0.53414166,9.1946535,-1.5713216,1.06708,-1.8673899,-0.137196,120.3,-160.5,-25.500002,,,,,,
427051,-0.14175989,9.558923,-1.3721399,1.1204339,-2.050318,0.221038,113.100006,-158.1,-23.7,,,,,,
427092,-0.19559275,9.397425,-1.7370071,-0.053354,-0.160062,-0.11432999,110.700005,-172.5,-23.1,,,,,,
427152,-0.22849062,9.219776,-2.3160095,0.586894,-0.68597996,1.204276,117.9,-150.90001,-26.1,,,,,,
427172,-0.08374002,9.196448,-2.3734312,0.594516,-0.91463995,2.05794,108.3,-165.3,-23.7,,,,,,
427192,0.59275967,9.504492,-2.409918,0.480186,-1.318606,2.378064,98.700005,-160.5,-26.7,,,,,,
427212,0.60232997,9.409986,-2.6408012,0.221038,-0.41921,2.2942219,98.700005,-162.90001,-22.5,,,,,,
427232,0.63223714,9.357348,-2.9087694,-0.35061198,-0.853664,2.050318,105.9,-160.5,-18.900002,,,,,,
427252,0.78835243,8.819618,-2.7293265,-0.663114,-1.4024479,1.440558,108.3,-174.90001,-23.1,,,,,,
427272,0.9516455,8.887806,-2.5385187,-0.365856,-2.05794,1.3795819,110.700005,-162.90001,-21.900002,,,,,,
427296,1.3296719,9.297534,-2.2681582,-0.320124,-1.951232,0.70122397,103.50001,-162.90001,-23.1,,,,,,
427316,1.3577845,9.071436,-2.14195,-0.487808,-1.44818,-0.221038,103.50001,-167.70001,-23.1,,,,,,
427336,1.3529994,8.910536,-2.1006782,-0.434454,-1.021348,-0.81555396,98.700005,-167.70001,-26.1,,,,,,
427356,1.2710538,8.878835,-2.2238955,-0.33536798,-0.41921,-1.166166,105.9,-172.5,-21.900002,,,,,,
427376,1.3745326,9.239514,-2.6294365,-0.030488,0.23628199,-1.18141,113.100006,-167.70001,-22.5,,,,,,
427399,1.4570763,9.184485,-2.7353077,-0.07622,0.320124,-1.3490939,117.9,-162.90001,-21.900002,,,,,,
427419,1.9798533,9.351965,-2.8429735,-0.442076,0.663114,-1.1280559,98.700005,-160.5,-26.1,,,,,,
427461,3.2036538,8.731691,-3.3334508,-1.8902559,3.330814,-5.076252,117.9,-167.70001,-24.900002,,,,x,,
427525,4.547681,6.069357,-2.1090522,1.98172,6.4634557,-5.3354,122.700005,-162.90001,-27.300001,,,,x,,
427545,3.6217556,6.3235674,-2.3746276,1.478668,9.596098,-6.577786,132.3,-153.3,-28.500002,,,,x,,
427585,2.8633103,5.288182,-2.9506392,1.6234859,9.481768,-9.016826,146.70001,-155.70001,-19.5,,,,x,,
427605,2.4733212,5.108739,-2.7550466,1.288118,8.780544,-9.077802,149.1,-146.1,-21.300001,,,,x,,
427625,1.6514727,4.4083138,-2.2149234,-0.068598,7.6219997,-9.618964,153.90001,-146.1,-21.300001,,,,x,,
427645,0.9636083,2.9769576,-1.5868733,-1.204276,6.8826656,-10.548848,168.3,-143.70001,-16.5,,,,x,,
427665,0.34572664,2.200568,-1.2196136,-0.92988396,6.204308,-10.830862,177.90001,-141.3,-9.900001,,,,x,,
427685,-0.899607,2.1347723,-1.6640338,0.20579399,7.233278,-11.39489,177.90001,-129.3,-16.5,,,,x,,
427709,-2.0360787,3.2808142,-1.9816476,1.737816,2.13416,-9.573232,199.50002,-117.3,-15.900001,,,,x,,
427730,-1.4074304,5.208629,-0.4372425,0.853664,-2.423796,-8.239382,197.1,-112.50001,-21.300001,,,,x,,
427750,-3.4273593,5.084215,1.8644116,1.074702,-0.769822,-9.359816,201.90001,-119.700005,-14.1,,,,x,,
427770,-5.8163424,6.9169254,1.0365818,-0.22865999,2.7820299,-8.780544,213.90001,-114.9,-15.900001,,,,x,,
427790,-5.2361436,7.09577,1.1735566,0.083841994,1.242386,-9.352194,211.50002,-110.100006,-6.9,,,,x,,
427813,-6.3205767,6.513777,2.5253596,1.173788,0.541162,-7.789684,230.70001,-102.9,-12.900001,,,,x,,
427833,-7.2094173,9.860387,0.6681257,1.570132,3.88722,-3.2393498,218.70001,-95.700005,-14.700001,,,,x,,
427854,-6.9719543,11.671564,0.9767675,0.94512796,-0.95274997,-3.833866,233.1,-102.9,-16.5,,,,x,,
427875,-8.829188,8.124576,1.8709912,2.32471,-0.449698,-6.280528,242.70001,-93.3,-21.300001,,,,x,,
427895,-10.460922,9.848424,-0.45399052,3.140264,0.518296,-2.164648,247.50002,-88.5,-11.700001,,,,x,,
427915,-8.664101,12.624406,-1.2315763,2.2484899,-8.025966,-0.47256398,240.3,-98.100006,-9.900001,,,,x,,
427955,-12.748221,11.422736,-2.0492377,3.2545938,-3.589962,-1.089946,245.1,-95.700005,-9.3,,,,x,,
427975,-11.748126,13.645435,-5.2947617,5.251558,-2.301844,1.8750119,233.1,-88.5,-15.3,,,,x,,
428038,-10.53569,15.096531,-8.180801,5.228692,-10.655556,3.7652678,252.3,-83.700005,-21.300001,,,,x,,
428064,-9.768871,13.272195,-5.9628873,0.34298998,-20.907146,2.469528,240.3,-74.100006,-12.900001,,,,x,,
428088,-11.397017,12.940824,-4.881445,4.5122237,-10.495494,4.169234,264.30002,-93.3,-26.1,,,,x,,
428128,-8.568398,13.6245,-7.054498,2.423796,-16.303457,5.289668,233.1,-98.100006,-23.7,,,,x,,
428150,-8.65154,11.4945135,-4.694824,2.6829438,-17.11139,4.76375,237.90001,-105.3,-21.900002,,,,x,,
428170,-7.830888,11.191255,-4.806079,4.61131,-8.30798,7.4085836,228.3,-100.50001,-26.7,,,,x,,
428190,-6.9121404,12.083086,-6.531721,4.748506,-4.23021,8.910118,218.70001,-102.9,-28.500002,,,,x,,
428212,-7.0060487,11.307893,-7.272222,6.13571,-2.118916,8.475664,201.90001,-112.50001,-38.100002,,,,x,,
428232,-4.9508295,11.758893,-9.014613,6.638762,-0.92988396,9.649452,216.3,-114.9,-22.5,,,,x,,
428252,-2.9422653,11.822296,-9.438098,3.8033779,-4.771372,9.939088,206.70001,-126.9,-22.5,,,,x,,
428272,-3.7545435,10.470492,-8.070145,0.899396,-5.289668,8.468041,185.1,-119.700005,-23.1,,,,x,,
428295,-2.7939258,10.206712,-8.789113,1.661596,-0.20579399,8.833898,177.90001,-129.3,-27.900002,,,,x,,
428315,-2.5241632,9.561316,-8.90276,-0.47256398,-1.326228,8.6509695,189.90001,-136.5,-26.1,,,,x,,
428335,-1.9266185,9.135438,-7.794401,-1.692084,-2.995446,9.138778,175.5,-146.1,-21.900002,,,,x,,
428355,-1.3583827,8.884217,-6.705781,-1.8597679,-3.856732,8.711946,158.70001,-136.5,-29.7,,,,x,,
428375,-1.7687088,7.1472106,-5.1769276,-2.507638,-2.461906,6.532054,163.5,-138.90001,-26.1,,,,x,,
428395,-1.108359,5.904269,-5.0590935,-0.907018,2.881116,6.562542,141.90001,-146.1,-30.900002,,,,x,,
428415,-0.2769402,7.2321467,-5.459251,-1.585376,4.024416,8.57475,139.5,-153.3,-21.900002,,,,x,,
428435,-0.7171734,6.6220407,-3.9949968,-1.98172,3.871976,4.0167937,127.50001,-155.70001,-24.900002,,,,x,,
428456,-0.27454764,5.3707256,-3.9046774,-1.547266,5.167716,3.384168,127.50001,-167.70001,-31.500002,,,,x,,
428477,-0.6376204,5.3186874,-3.0559125,-3.2393498,5.4573517,4.4664917,127.50001,-148.5,-30.900002,,,,x,,
428497,-0.46834594,5.664414,-2.6982229,-3.605206,7.339986,4.4664917,122.700005,-165.3,-26.7,,,,x,,
428517,-0.3062492,5.120104,-2.3710387,-3.88722,7.50767,3.589962,127.50001,-160.5,-25.500002,,,,x,,
428537,-0.11364716,5.320482,-1.8518506,-3.7576458,6.951264,3.35368,113.100006,-165.3,-24.900002,,,,x,,
428557,-0.42109266,4.5123906,-1.225595,-3.498498,7.309498,1.3643379,117.9,-155.70001,-26.1,,,,x,,
428577,-0.0029907147,4.3532844,-1.2435392,-2.2256238,7.27901,1.234764,125.100006,-165.3,-27.300001,,,,x,,
428597,0.036486723,4.71217,-0.5796005,-2.050318,5.4421077,1.166166,113.100006,-155.70001,-25.500002,,,,x,,
428617,0.84996116,5.7421727,-0.24822934,-1.3490939,4.80186,1.097568,117.9,-165.3,-22.5,,,,x,,
428657,1.0413669,3.8598166,0.31641763,-0.99086,8.216516,0.28201398,120.3,-170.1,-22.5,,,,x,,
428680,1.1885101,5.3868756,-0.73033255,0.846042,8.277492,2.347576,113.100006,-170.1,-20.7,,,,x,,
428700,1.4516929,7.4450855,-0.6830793,1.074702,5.137228,3.064044,113.100006,-165.3,-32.100002,,,,x,,
428720,1.5306479,8.717336,-0.30385664,-0.099086,4.9161897,2.2256238,110.700005,-172.5,-27.900002,,,,x,,
428785,0.64360183,8.24899,-0.8362039,-0.35061198,1.303362,-1.204276,105.9,-160.5,-28.500002,,,,x,,
428846,1.0018895,10.073326,-1.2136321,-1.082324,2.179892,0.518296,98.700005,-179.70001,-23.1,,,,x,,
428866,0.75605273,10.089476,-1.4720298,-1.242386,1.928366,-0.121952,108.3,-170.1,-27.900002,,,,x,,
428926,0.27454764,8.944032,-1.7274369,-0.26677,0.746956,0.07622,105.9,-155.70001,-24.900002,,,,x,,
428966,0.58797455,9.1946535,-2.2101383,0.129574,0.884152,0.47256398,115.50001,-162.90001,-26.7,,,,x,,
428988,0.72076225,9.035547,-1.9445628,0.045732,0.289636,0.579272,98.700005,-167.70001,-25.500002,,,,,,
429029,0.97616935,9.510473,-2.2837098,0.213416,0.182928,0.251526,113.100006,-165.3,-26.1,,,,,,
429050,0.7219586,9.11869,-2.3028505,-0.022866,-0.083841994,-0.33536798,108.3,-165.3,-20.1,,,,,,
429070,0.83321315,9.145008,-2.4290586,0.137196,-0.480186,-0.121952,110.700005,-170.1,-17.1,,,,,,
429092,1.079648,9.091175,-2.1551092,-0.068598,-0.81555396,-0.274392,105.9,-167.70001,-21.300001,,,,,,
429112,0.91994387,9.375293,-2.3243835,-0.20579399,-0.22865999,-0.56402797,105.9,-170.1,-30.300001,,,,,,
429132,0.9911229,9.430322,-2.585772,-0.121952,0.15244,-0.868908,110.700005,-172.5,-22.5,,,,,,
429152,1.0736667,9.225159,-2.5301447,-0.099086,0.221038,-1.059458,108.3,-160.5,-15.900001,,,,,,
429172,1.0323948,9.021193,-2.5702202,-0.358234,0.69360197,-0.93750596,117.9,-158.1,-21.900002,,,,,,
429193,0.8248392,9.155774,-2.9775558,-0.426832,1.516778,-0.853664,113.100006,-158.1,-19.5,,,,,,
429213,1.1974822,9.367517,-3.514688,-0.053354,1.745438,-1.074702,113.100006,-155.70001,-27.300001,,,,,,
429233,1.1562104,8.822609,-3.6462796,-0.510674,1.501534,-1.3948259,108.3,-170.1,-23.1,,,,,,
429253,1.4606651,9.14441,-3.9668841,-0.20579399,1.265252,-1.25763,101.100006,-160.5,-17.1,,,,,,
429273,1.6526691,8.887208,-3.8346946,-1.089946,1.6539739,-2.2942219,110.700005,-165.3,-26.1,,,,x,,
429293,1.9966012,8.122782,-3.9776506,-0.93750596,3.08691,-3.2622159,108.3,-170.1,-20.1,,,,x,,
429316,2.5588555,7.7626996,-4.224684,-0.160062,2.82014,-3.3003259,113.100006,-153.3,-26.7,,,,x,,
429336,2.8088794,7.092779,-3.5200713,-0.3811,2.012208,-3.910086,125.100006,-179.70001,-23.7,,,,x,,
429356,3.0923991,6.5155716,-3.4698274,0.655492,3.460388,-5.213448,132.3,-162.90001,-16.5,,,,x,,
429376,3.3137121,5.966476,-3.4351351,1.044214,3.971062,-6.4939437,129.90001,-167.70001,-24.900002,,,,x,,
429399,3.527249,5.287584,-3.1235025,0.746956,3.940574,-7.294254,132.3,-155.70001,-18.300001,,,,x,,
429419,3.1181192,4.167262,-2.4260678,-0.34298998,4.8857017,-8.132674,151.5,-165.3,-13.500001,,,,x,,
429439,2.899199,3.5386138,-2.0426583,-1.6234859,5.9985137,-7.8125496,134.70001,-158.1,-23.7,,,,x,,
429462,2.1246037,2.0629952,-1.2148284,-3.6966698,8.292736,-8.544262,165.90001,-148.5,-23.1,,,,x,,
429483,1.4720298,1.6993241,-1.1388642,-3.3155699,8.742434,-7.972612,153.90001,-146.1,-30.900002,,,,x,,
429503,-0.80809116,1.0114597,-0.25839776,-3.84911,8.894874,-9.634208,173.1,-136.5,-25.500002,,,,x,,
429526,-0.22310732,1.5755086,-0.75784713,-1.265252,9.855246,-9.961954,185.1,-124.50001,-27.900002,,,,x,,
429546,-1.0108616,4.044643,-0.5066271,1.3719599,4.9466777,-8.147918,180.3,-136.5,-18.300001,,,,x,,
429566,-2.6569512,6.1477137,0.052636582,1.158544,5.510706,-8.6509695,185.1,-122.100006,-19.5,,,,x,,
429587,-2.3746276,6.040646,0.033496007,2.40093,4.093014,-10.731775,201.90001,-126.9,-17.1,,,,x,,
429608,-2.9093673,7.2704277,1.3841028,2.545748,2.8048959,-9.306461,199.50002,-126.9,-14.1,,,,x,,
429628,-5.2534895,10.701974,0.9438696,-1.234764,4.862836,-8.658592,209.1,-114.9,-20.7,,,,x,,
429651,-7.5395923,7.3703175,-0.82603544,2.2789779,3.643316,-13.300389,211.50002,-114.9,-11.700001,,,,x,,
429672,-7.9008703,9.358545,0.11962859,1.547266,-1.768304,-8.1250515,225.90001,-90.9,-23.7,,,,x,,
429692,-8.046818,8.977528,1.2214079,-0.41158798,-2.568614,-7.865904,233.1,-98.100006,-15.3,,,,x,,
429714,-8.972144,9.27002,0.13936731,1.684462,-1.432936,-6.17382,245.1,-86.100006,-12.3,,,,x,,
429774,-10.656515,9.414172,-0.40613908,1.3567159,-5.990892,-4.9924097,249.90001,-86.100006,-13.500001,,,,x,,
429889,-9.885509,13.434291,-3.262272,3.12502,-12.324774,2.500016,249.90001,-74.100006,-23.1,,,,x,,
429927,-10.636777,11.759491,-4.9227166,5.000032,-6.5091877,4.0777698,254.70001,-71.700005,-32.7,,,,x,,
429948,-9.149195,12.98688,-5.2648544,3.833866,-11.867454,5.929916,235.50002,-86.100006,-21.900002,,,,x,,
429988,-9.223963,12.648332,-4.518372,5.403998,-7.8277936,5.388754,233.1,-93.3,-29.1,,,,x,,
430009,-7.976835,12.691398,-5.3473983,4.9543,-7.629622,5.9070497,242.70001,-86.100006,-23.7,,,,x,,
430030,-7.3416066,12.428813,-5.3282576,4.672286,-8.963471,5.769854,237.90001,-98.100006,-28.500002,,,,x,,
430050,-7.647258,11.458625,-5.3515854,5.800342,-7.118948,6.32626,225.90001,-93.3,-24.900002,,,,x,,
430070,-6.79311,11.970037,-6.0986657,5.625036,-4.847592,8.658592,223.50002,-107.700005,-21.900002,,,,x,,
430092,-6.5113845,12.150078,-6.4695144,4.5427117,-3.7119138,8.910118,213.90001,-107.700005,-27.900002,,,,x,,
430115,-6.1225915,11.343781,-7.312298,4.984788,-0.15244,8.673836,211.50002,-119.700005,-29.1,,,,x,,
430135,-4.7295165,11.48913,-8.893787,4.443626,-0.11432999,9.79427,192.3,-119.700005,-27.900002,,,,x,,
430157,-2.9231248,11.703265,-8.059379,0.221038,-6.8674216,9.169266,187.5,-129.3,-38.100002,,,,x,,
430177,-2.7891407,11.072225,-6.8595037,-0.487808,-6.4024796,6.760714,177.90001,-129.3,-27.900002,,,,x,,
430197,-2.9291062,8.473293,-6.376204,-0.47256398,-2.423796,4.702774,170.70001,-136.5,-21.300001,,,,x,,
430217,-2.150922,8.293252,-7.0844054,-0.144818,0.53354,8.795788,168.3,-129.3,-26.1,,,,x,,
430237,-1.3476161,9.905846,-6.1853967,-2.378064,-2.301844,10.236346,168.3,-146.1,-26.7,,,,x,,
430257,-1.2507169,9.040931,-4.8186398,-1.509156,-0.56402797,7.057972,149.1,-158.1,-33.9,,,,x,,
430277,-1.0503391,7.238128,-4.8479486,-0.548784,2.423796,4.1921,153.90001,-138.90001,-26.1,,,,x,,
430299,-1.0688815,5.6183567,-4.6445804,-1.1356779,3.833866,5.175338,151.5,-146.1,-34.5,,,,x,,
430319,-0.32538977,7.702885,-4.673889,-2.370442,3.2241058,8.292736,137.1,-141.3,-30.300001,,,,x,,
430339,-0.8015116,6.9342713,-3.1635783,-3.3079479,3.498498,5.137228,139.5,-167.70001,-30.300001,,,,x,,
430422,-0.61309654,3.5930448,-1.4355432,-0.64787,6.21193,2.088428,125.100006,-162.90001,-31.500002,,,,x,,
430492,0.5473008,4.036867,-1.0599093,-0.40396598,7.01224,3.399412,115.50001,-162.90001,-25.500002,,,,x,,
430530,1.6999223,6.0005703,-0.28351977,-1.051836,6.0442457,3.490876,115.50001,-170.1,-18.300001,,,,x,,
430551,1.7974197,6.324764,0.2129389,-2.2637339,6.067112,2.065562,117.9,-165.3,-29.7,,,,x,,
430591,1.263278,6.8373723,-0.18303175,-1.280496,5.9832697,1.79117,101.100006,-165.3,-21.300001,,,,x,,
430611,1.12092,7.5019093,-0.0017944289,-0.67835796,4.550334,1.493912,101.100006,-170.1,-23.7,,,,x,,
430631,1.2662686,8.2226715,-0.020935005,-0.213416,4.108258,1.318606,101.100006,-165.3,-23.7,,,,x,,
430651,1.0700778,8.4714985,-0.25899592,-0.861286,3.7805119,0.40396598,96.3,-160.5,-26.7,,,,x,,
430675,1.3230922,7.981022,-1.1843231,0.30488,3.407034,-0.327746,105.9,-167.70001,-21.300001,,,,x,,
430695,2.0725653,9.274805,-1.5880696,1.303362,3.01069,0.289636,96.3,-165.3,-24.300001,,,,x,,
430717,2.2472231,9.806554,-1.6945391,0.297258,3.018312,-0.602138,105.9,-167.70001,-23.1,,,,x,,
430737,2.376422,9.738366,-1.8016067,-0.41158798,3.6814258,-1.768304,101.100006,-170.1,-24.300001,,,,x,,
430759,2.782561,10.229441,-2.280121,-0.40396598,4.199722,-2.614346,110.700005,-158.1,-25.500002,,,,x,,
430779,2.5080135,9.34718,-2.7287283,-0.182928,4.565578,-3.7576458,117.9,-160.5,-18.900002,,,,x,,
430799,2.3710387,8.950611,-2.933293,0.11432999,2.7744079,-3.132642,98.700005,-165.3,-26.1,,,,x,,
430819,2.334552,8.630007,-2.659942,-0.121952,1.775926,-2.560992,117.9,-179.70001,-24.300001,,,,x,,
430839,2.3225892,8.2011385,-2.7185597,0.007622,1.5244,-2.164648,105.9,-167.70001,-20.1,,,,x,,
430859,2.3949645,8.076725,-2.748467,0.213416,1.036592,-1.06708,117.9,-170.1,-29.1,,,,x,,
430879,2.087519,8.176615,-2.5193782,0.26677,0.70122397,-0.19055,122.700005,-160.5,-20.7,,,,x,,
430902,2.2484195,9.152783,-2.5373225,0.884152,0.60976,0.87653,105.9,-165.3,-28.500002,,,,x,,
430922,2.0863228,9.687524,-2.4966488,0.480186,0.602138,0.70122397,105.9,-162.90001,-18.300001,,,,x,,
430943,2.1915958,9.880126,-2.6491752,0.785066,-0.068598,0.586894,108.3,-162.90001,-22.5,,,,,,
430963,1.1669769,9.1838875,-1.3524013,0.030488,-0.365856,-0.030488,103.50001,-165.3,-21.300001,,,,,,
431005,-0.48090696,11.610553,-2.836992,0.87653,0.716468,-0.91463995,105.9,-162.90001,-19.5,,,,,,
431067,-2.585772,8.838758,-2.3483093,0.28201398,-0.99086,-1.272874,120.3,-158.1,-18.300001,,,,,,
431107,-2.5217707,9.636682,-2.631829,0.708846,-1.9131219,-0.861286,122.700005,-160.5,-21.300001,,,,,,
431127,-2.539715,9.335217,-2.6838675,0.053354,-1.8826339,-1.5244,120.3,-162.90001,-25.500002,,,,,,
431190,-2.1317816,8.836965,-2.5032284,0.030488,-2.484772,-0.45731997,120.3,-158.1,-20.1,,,,,,
431250,-1.1005831,9.217981,-1.6078084,-1.6006199,0.518296,-1.501534,120.3,-158.1,-26.1,,,,,,
431292,-1.1388642,8.40989,-1.4738243,-0.777444,1.585376,-1.951232,122.700005,-150.90001,-14.700001,,,,,,
431430,0.01016843,8.759804,-2.8220387,-0.060976,0.7622,-1.1356779,139.5,-160.5,-23.1,,,,,,
431450,0.06519759,8.367422,-2.8788621,-0.091464,0.80030996,-1.044214,134.70001,-162.90001,-18.900002,,,,,,
431470,-0.014355431,8.6551285,-2.6228569,0.480186,0.548784,0.053354,127.50001,-165.3,-22.5,,,,,,
431490,0.11603974,10.659506,-2.8507495,0.57164997,1.02897,0.64787,132.3,-160.5,-21.300001,,,,,,
431510,0.058618013,10.552439,-2.9386764,0.198172,1.21952,-0.983238,134.70001,-162.90001,-19.5,,,,,,
431530,-0.640013,9.123475,-2.7957203,0.03811,1.189032,-2.118916,141.90001,-167.70001,-21.300001,,,,,,
431550,-0.9187476,8.707766,-3.0068648,0.632626,1.02897,-2.027452,141.90001,-153.3,-26.1,,,,,,
431570,-0.9648046,8.507986,-2.91176,0.69360197,0.68597996,-1.8978779,137.1,-146.1,-14.700001,,,,,,
431590,-0.84457785,8.618044,-3.1187174,0.449698,0.846042,-1.547266,151.5,-172.5,-16.5,,,,,,
431611,-0.4456165,8.649746,-3.24672,0.251526,0.57164997,-1.440558,141.90001,-162.90001,-20.1,,,,,,
431631,-0.06340315,8.42604,-3.2389443,-0.03811,0.594516,-1.303362,139.5,-153.3,-15.3,,,,,,
431651,0.37503564,7.960685,-3.1982706,-0.46494198,0.884152,-1.097568,144.3,-153.3,-21.300001,,,,,,
431671,1.155014,8.583352,-3.439322,-0.137196,1.1051899,-0.3811,146.70001,-150.90001,-16.5,,,,,,
431694,1.7059038,9.396826,-3.421378,0.015244,1.516778,-0.312502,144.3,-153.3,-16.5,,,,,,
431714,1.8536451,9.432714,-3.5798857,-0.19055,1.288118,-0.975616,165.90001,-153.3,-12.900001,,,,,,
431737,1.5300497,8.748439,-3.506314,-0.251526,0.960372,-1.21952,146.70001,-155.70001,-22.5,,,,,,
431758,1.4905723,9.018202,-3.5613432,0.259148,-0.34298998,-0.81555396,144.3,-153.3,-24.900002,,,,,,
431778,1.3619715,8.933864,-3.6085966,-0.045732,-0.716468,-0.93750596,149.1,-153.3,-19.5,,,,,,
431841,1.1005831,9.147401,-3.196476,-0.365856,-1.6082419,0.23628199,146.70001,-158.1,-19.5,,,,,,
431861,0.3062492,8.567202,-2.8088794,-0.967994,-1.310984,0.289636,144.3,-148.5,-23.1,,,,,,
431881,-0.49227166,9.120484,-2.8316088,-0.426832,-0.754578,1.1204339,139.5,-153.3,-21.900002,,,,,,
431901,-0.94028074,10.020091,-2.9009933,-0.602138,-0.41158798,1.036592,141.90001,-146.1,-23.1,,,,,,
431983,-2.8334033,9.348376,-3.1731484,0.106708,-0.579272,1.013726,149.1,-143.70001,-13.500001,,,,,,
432032,-2.459564,9.255664,-2.9267135,0.022866,-2.2942219,0.40396598,127.50001,-155.70001,-26.1,,,,,,
432052,-1.6341265,9.636682,-2.6138847,-0.426832,-2.2484899,0.160062,137.1,-155.70001,-20.7,,,,x,,
432092,-1.2967739,8.218485,-2.5367243,-1.585376,0.731712,-1.082324,132.3,-146.1,-17.7,,,,x,,
432136,-0.24882747,8.6001,-3.0684733,-1.4024479,1.02897,0.846042,144.3,-155.70001,-20.1,,,,x,,
432156,0.06519759,8.446377,-3.6576443,-1.760682,2.355198,0.068598,132.3,-158.1,-22.5,,,,x,,
432196,1.0676852,8.717336,-5.6069922,-0.67835796,1.6539739,0.251526,149.1,-160.5,-15.900001,,,,x,,
432260,2.5331354,9.183289,-5.402427,-0.541162,4.580822,-2.141782,129.90001,-150.90001,-26.1,,,,x,,
432280,1.9475535,7.7489424,-4.9562125,-0.846042,3.140264,-4.45887,146.70001,-146.1,-13.500001,,,,x,,
432300,1.5360311,5.4616437,-3.6002226,-0.40396598,3.109776,-6.714982,153.90001,-155.70001,-21.900002,,,,x,,
432320,1.6807817,4.530335,-3.2102332,0.998482,4.53509,-8.315601,151.5,-146.1,-24.300001,,,,x,,
432340,1.9140575,2.6473808,-2.9769576,2.17227,4.5427117,-10.762263,163.5,-148.5,-14.1,,,,x,,
432360,2.9943037,1.4875816,-1.4929649,3.12502,1.1051899,-9.474146,173.1,-143.70001,-18.900002,,,,x,,
432383,3.2628698,3.2790198,1.5737141,0.47256398,0.274392,-6.44059,163.5,-126.9,-16.5,,,,x,,
432403,2.1993718,4.3807993,1.7848586,-2.660078,9.07018,-8.673836,187.5,-134.1,-16.5,,,,x,,
432443,0.051440295,3.5930448,0.6573591,-1.532022,6.0137577,-14.009235,199.50002,-119.700005,-12.900001,,,,x,,
432463,-0.7058087,1.9553294,2.397357,-2.012208,2.103672,-14.725703,201.90001,-117.3,-18.300001,,,,x,,
432487,-1.238156,4.313209,3.782058,-1.288118,0.373478,-8.582372,221.1,-112.50001,-15.900001,,,,x,,
432507,-2.9177413,5.143431,4.7624145,-2.55337,3.2545938,-9.931466,223.50002,-95.700005,-15.900001,,,,x,,
432527,-6.590339,4.6996093,2.4613583,-0.198172,6.036624,-10.236346,240.3,-93.3,-12.900001,,,,x,,
432547,-7.7040815,5.815744,1.4911704,1.8826339,2.7210538,-6.74547,242.70001,-78.9,-11.700001,,,,x,,
432567,-8.527126,6.869074,1.4158044,2.492394,0.083841994,-4.34454,240.3,-88.5,-15.900001,,,,x,,
432587,-9.358545,7.144818,1.2196136,3.140264,-2.454284,-3.50612,252.3,-76.5,-17.7,,,,x,,
432607,-9.292151,9.351965,-0.20695747,4.23021,-2.7896519,-0.365856,264.30002,-78.9,-12.3,,,,x,,
432628,-9.696496,12.273893,-0.8529519,2.500016,-5.586926,0.40396598,247.50002,-74.100006,-11.1,,,,x,,
432649,-12.206902,10.389744,-1.3039516,2.164648,-6.0747337,-3.2698379,242.70001,-90.9,-15.3,,,,x,,
432669,-10.94183,10.928072,-2.7460744,3.498498,-7.5152917,-0.365856,245.1,-81.3,-14.700001,,,,x,,
432689,-9.847228,13.485133,-2.334552,1.768304,-11.791234,0.899396,252.3,-81.3,-8.700001,,,,x,,
432709,-12.712333,14.094043,-4.134364,3.551852,-5.655524,-0.297258,242.70001,-71.700005,-18.900002,,,,x,,
432729,-11.135628,14.294421,-5.5459814,4.550334,-6.3872356,0.396344,237.90001,-81.3,-14.1,,,,x,,
432752,-12.607657,11.990374,-2.7604299,1.1204339,-15.823272,-0.81555396,252.3,-83.700005,-18.900002,,,,x,,
432772,-13.690894,12.277483,-5.2355456,7.263766,-0.92988396,1.585376,257.1,-74.100006,-20.7,,,,x,,
432792,-8.424246,16.063728,-10.041624,9.961954,1.440558,6.006136,264.30002,-76.5,-17.7,,,,x,,
432815,-8.531313,15.304685,-9.68872,2.378064,-13.7577095,2.7286758,259.5,-76.5,-18.300001,,,,x,,
432835,-11.884502,11.534589,-7.003058,2.644834,-12.934534,1.6006199,257.1,-95.700005,-21.900002,,,,x,,
432855,-9.977025,12.223052,-9.465014,7.3323636,-2.919226,6.379614,259.5,-86.100006,-24.300001,,,,x,,
432875,-6.845148,14.447545,-11.008224,4.0015497,-9.352194,7.1265697,237.90001,-100.50001,-18.300001,,,,x,,
432895,-7.3601494,12.297221,-8.585744,1.440558,-16.692179,4.5731997,235.50002,-86.100006,-23.1,,,,x,,
432915,-6.887018,11.473578,-7.116107,1.8369019,-15.777539,5.5183277,225.90001,-88.5,-22.5,,,,x,,
432935,-7.5790696,10.275498,-6.112423,1.3490939,-9.801891,6.234796,235.50002,-93.3,-29.1,,,,x,,
432959,-6.8062687,11.127254,-7.183099,3.147886,-2.13416,9.1463995,225.90001,-90.9,-22.5,,,,x,,
432980,-5.4502788,12.140508,-8.804665,3.033556,-0.998482,9.969576,225.90001,-102.9,-26.7,,,,x,,
433000,-5.209227,11.327632,-8.707766,1.150922,-5.320156,9.466524,204.3,-110.100006,-25.500002,,,,x,,
433023,-4.1241956,11.693097,-6.8272038,-1.478668,-5.464974,10.419273,192.3,-117.3,-24.900002,,,,x,,
433043,-3.8604147,10.617636,-6.7847357,-1.3872039,-0.95274997,8.506152,192.3,-124.50001,-27.300001,,,,x,,
433064,-3.539212,8.788515,-7.433721,-0.30488,2.332332,8.102186,182.70001,-136.5,-33.300003,,,,x,,
433084,-2.485284,8.893189,-7.51447,-1.539644,-0.541162,10.190614,180.3,-138.90001,-32.100002,,,,x,,
433106,-2.2370548,9.529016,-5.7505465,-3.1859958,-2.888738,9.557988,156.3,-136.5,-24.900002,,,,x,,
433126,-2.075556,8.205325,-4.6894407,-1.9131219,1.432936,5.464974,173.1,-141.3,-22.5,,,,x,,
433150,-1.5408163,6.4126906,-5.912045,-1.318606,6.21193,9.420792,146.70001,-150.90001,-32.100002,,,,x,,
433170,-0.59036714,8.93805,-4.8593135,-4.413138,2.118916,11.783611,139.5,-143.70001,-26.7,,,,x,,
433190,-0.65795726,7.518059,-2.6796806,-4.207344,3.071666,7.225656,137.1,-162.90001,-23.7,,,,x,,
433210,-0.42109266,5.8426604,-2.3237855,-2.599102,7.721086,3.7805119,129.90001,-148.5,-30.300001,,,,x,,
433230,-0.45040166,4.3407235,-2.5522761,-1.509156,9.893355,2.2103798,129.90001,-150.90001,-23.1,,,,x,,
433250,-0.35410064,3.5697172,-2.301654,-0.503052,7.835416,2.2942219,120.3,-158.1,-30.300001,,,,x,,
433270,0.2296869,3.4865754,-0.9660009,-0.068598,5.9680257,3.2393498,125.100006,-160.5,-29.1,,,,x,,
433290,0.891233,3.9943988,0.04187001,-0.396344,8.1250515,3.856732,129.90001,-160.5,-27.900002,,,,x,,
433352,1.2668668,4.8551264,-0.68846256,-0.320124,11.722635,3.079288,108.3,-160.5,-29.1,,,,x,,
433372,1.1077608,5.885727,-1.4080286,0.67835796,12.850692,2.507638,115.50001,-165.3,-18.900002,,,,x,,
433392,0.5359361,5.355174,-0.711192,-0.525918,10.266833,0.731712,110.700005,-170.1,-24.900002,,,,x,,
433412,0.535338,4.982531,-0.7943339,-0.091464,10.487872,0.129574,105.9,-167.70001,-23.1,,,,x,,
433435,0.80270785,6.385774,-0.73033255,0.46494198,7.416206,0.846042,115.50001,-170.1,-21.300001,,,,x,,
433475,0.7811747,7.664604,0.18542433,-1.501534,6.78358,-0.731712,93.9,-160.5,-24.900002,,,,x,,
433495,0.95702875,7.9899936,-0.18602246,-1.318606,5.205826,-1.021348,108.3,-177.3,-17.7,,,,x,,
433517,1.3685511,8.412881,0.7393047,-1.669218,3.841488,-0.891774,98.700005,-165.3,-18.300001,,,,x,,
433537,1.0264133,9.09297,0.16329303,-1.989342,5.121984,-0.82317597,98.700005,-165.3,-29.1,,,,x,,
433557,-0.38041893,9.022388,-0.5652451,-1.3719599,4.4664917,-1.265252,115.50001,-158.1,-21.300001,,,,x,,
433577,-0.44202766,8.788515,-1.0652926,-0.396344,2.012208,-1.25763,105.9,-167.70001,-23.7,,,,x,,
433598,-0.31163248,9.48894,-0.99052477,0.297258,-0.632626,0.221038,105.9,-167.70001,-26.1,,,,,,
433618,-0.37084866,10.042222,-1.1478363,0.060976,-1.737816,0.35061198,108.3,-167.70001,-24.300001,,,,,,
433638,-0.17047074,10.481259,-1.5826863,-0.53354,-1.98172,0.20579399,115.50001,-165.3,-22.5,,,,,,
433658,-0.18183546,9.903453,-1.8004104,-0.579272,-2.97258,-0.632626,98.700005,-165.3,-25.500002,,,,,,
433678,0.16329303,9.585241,-1.3165127,-0.30488,-3.6661818,-0.28201398,110.700005,-165.3,-27.900002,,,,,,
433702,0.4360462,10.335313,-1.5659384,-0.312502,-2.7286758,0.40396598,113.100006,-167.70001,-16.5,,,,,,
433722,0.26677176,9.835265,-1.7035112,-0.87653,-2.042696,0.106708,103.50001,-160.5,-28.500002,,,,,,
433742,0.1824336,9.592419,-1.8512524,-0.40396598,-1.814036,0.060976,115.50001,-172.5,-24.300001,,,,,,
433766,-0.037084863,9.38606,-1.866206,-0.289636,-1.417692,-0.007622,101.100006,-170.1,-26.7,,,,,,
433786,0.13577846,9.785021,-2.1353705,-0.144818,-1.440558,0.327746,113.100006,-167.70001,-23.7,,,,,,
433806,-0.0681883,9.181495,-2.1329777,-0.602138,-1.29574,0.182928,96.3,-167.70001,-25.500002,,,,,,
433829,0.078954875,8.963172,-2.5492854,-0.07622,-1.417692,0.213416,108.3,-177.3,-23.1,,,,,,
433849,0.24703304,8.695803,-2.2669618,-0.243904,-1.8826339,0.503052,110.700005,-160.5,-20.1,,,,,,
433871,0.44800907,8.836965,-2.5127985,-0.11432999,-1.150922,0.731712,98.700005,-174.90001,-24.900002,,,,,,
433891,0.45040166,8.811244,-2.53493,0.137196,-1.158544,0.746956,110.700005,-167.70001,-18.900002,,,,,,
433911,0.4438221,8.81603,-2.2771304,-0.129574,-1.280496,0.617382,115.50001,-172.5,-21.900002,,,,,,
433934,0.5610581,8.792104,-2.4200864,0.129574,-0.91463995,0.289636,113.100006,-165.3,-22.5,,,,,,
433954,0.6364241,9.031959,-2.493658,0.251526,-0.998482,0.320124,105.9,-174.90001,-27.300001,,,,,,
434014,0.61070395,8.884816,-2.6204643,0.617382,-1.3872039,-0.327746,110.700005,-172.5,-24.900002,,,,,,
434056,0.8254373,9.214991,-3.0014815,0.03811,-0.830798,-0.3811,110.700005,-155.70001,-24.900002,,,,,,
434132,1.2578946,8.7304945,-4.5757937,-0.81555396,3.551852,-1.48629,108.3,-167.70001,-28.500002,,,,,,
434173,3.0894084,7.160968,-8.457144,2.652456,2.93447,-1.661596,113.100006,-162.90001,-24.300001,,,,,,
434193,4.07455,7.095172,-6.760212,0.41921,-5.769854,-0.967994,110.700005,-158.1,-17.7,,,,,,
434215,6.3349323,8.472695,-3.496744,-2.6905658,-4.176856,-4.176856,103.50001,-165.3,-23.7,,,,x,,
434255,5.493943,3.6462796,-1.8063917,-3.84911,5.5183277,-10.510737,132.3,-155.70001,-25.500002,,,,x,,
434279,4.5973268,3.0230145,-0.2619866,-3.8186219,5.37351,-10.487872,141.90001,-150.90001,-21.900002,,,,x,,
434299,3.5930448,2.1993718,0.54072124,-3.7881339,9.10829,-12.111358,146.70001,-158.1,-24.900002,,,,x,,
434340,1.1615937,1.2895962,0.2990715,-2.7134318,10.686044,-12.477214,168.3,-146.1,-24.900002,,,,x,,
434368,-0.4827014,0.9426733,0.50602895,-2.2637339,9.733294,-12.400993,182.70001,-138.90001,-21.300001,,,,x,,
434388,-1.8985058,1.0353855,0.42827037,-0.983238,8.61286,-11.455866,211.50002,-131.70001,-18.900002,,,,x,,
434428,-1.1986785,6.305623,3.2329628,-1.21952,0.33536798,-7.301876,206.70001,-126.9,-23.1,,,,x,,
434471,-6.8535223,5.30493,2.5618463,-1.463424,7.103704,-12.461969,213.90001,-100.50001,-18.900002,,,,x,,
434491,-8.095865,8.282486,1.4546837,0.998482,3.62045,-7.77444,235.50002,-112.50001,-21.300001,,,,x,,
434514,-7.5395923,7.9541054,4.4459968,2.09605,-3.0488,-9.801891,237.90001,-93.3,-15.900001,,,,x,,
434534,-10.898165,7.0682554,1.9852365,2.7744079,0.434454,-7.789684,237.90001,-83.700005,-17.7,,,,x,,
434554,-11.606964,10.4579315,-0.5431138,3.6661818,-0.830798,-4.38265,237.90001,-81.3,-17.1,,,,x,,
434574,-9.546362,12.930655,-0.84517604,3.7500238,-7.599134,-5.9527817,249.90001,-90.9,-19.5,,,,x,,
434594,-12.348063,11.627899,0.33376378,3.6890478,-8.529017,-8.468041,245.1,-76.5,-14.1,,,,x,,
434616,-12.775138,13.783009,-2.255597,4.085392,-6.051868,-7.0046177,266.7,-74.100006,-18.300001,,,,x,,
434679,-19.41871,10.6953945,-2.455975,9.45128,9.405548,-3.2774599,288.30002,-62.100002,-23.1,,,,x,,
434727,-15.599568,9.653429,-0.41810194,-0.083841994,-28.70445,-4.336918,271.5,-45.300003,-26.1,,,,x,,
434749,-15.756282,9.722814,-1.6155841,9.07018,-4.53509,3.071666,273.90002,-50.100002,-25.500002,,,,x,,
434792,-11.730182,9.675561,-6.7793527,7.43145,-6.638762,4.367406,269.1,-59.7,-29.7,,,,x,,
434812,-11.767266,8.975135,-7.3033257,8.544262,-6.9893737,7.6067557,271.5,-54.9,-20.1,,,,x,,
434832,-8.661709,9.86577,-7.4408984,7.8277936,-7.0808377,10.907082,252.3,-66.9,-24.900002,,,,x,,
434856,-8.012125,10.383762,-6.644172,7.58389,-4.664664,10.282078,264.30002,-74.100006,-24.300001,,,,x,,
434876,-6.8798404,10.363425,-8.895582,10.647934,3.483254,10.89946,245.1,-90.9,-24.300001,,,,x,,
434898,-4.9340816,11.213387,-10.722909,8.338468,0.594516,12.477214,233.1,-83.700005,-12.3,,,,x,,
434918,-5.812753,10.41666,-8.780141,3.490876,-5.86894,10.038174,211.50002,-98.100006,-22.5,,,,x,,
434938,-5.6422825,9.792198,-8.644362,5.205826,0.92988396,10.434518,209.1,-98.100006,-18.300001,,,,x,,
434958,-4.2904797,10.256357,-10.782125,4.443626,4.893324,11.318669,213.90001,-93.3,-28.500002,,,,x,,
435038,-0.719566,7.9253945,-8.460732,-0.503052,3.1936178,8.811031,180.3,-131.70001,-17.1,,,,x,,
435061,0.63522786,8.580959,-8.47748,-2.43904,2.149404,8.529017,161.1,-131.70001,-18.900002,,,,x,,
435082,0.6962384,7.278802,-7.266839,-2.195136,2.82014,5.289668,153.90001,-131.70001,-20.7,,,,x,,
435102,0.12142302,6.2057333,-6.736884,-3.902464,5.9527817,5.79272,165.90001,-160.5,-23.7,,,,x,,
435142,-0.000598143,6.2996416,-5.810361,-7.492426,5.8613176,5.670768,134.70001,-153.3,-16.5,,,,x,,
435163,-0.3020622,5.1482167,-4.4232674,-7.385718,4.0472817,4.756128,137.1,-153.3,-11.700001,,,,x,,
435183,0.28471604,4.9275017,-3.2096353,-6.6158957,3.1783738,4.1921,139.5,-146.1,-20.7,,,,x,,
435203,0.9450659,5.23076,-2.0390694,-5.350644,3.7805119,4.184478,129.90001,-148.5,-27.300001,,,,x,,
435226,0.19020946,4.5877566,-1.3936732,-5.129606,5.838452,2.13416,141.90001,-153.3,-26.1,,,,x,,
435246,0.3493155,3.715066,-1.5222739,-3.6585598,8.1250515,1.56251,134.70001,-155.70001,-26.7,,,,x,,
435267,1.0012913,5.1847034,-1.5832845,-2.7896519,7.256144,3.132642,110.700005,-158.1,-26.7,,,,x,,
435288,0.41092423,4.8515377,-1.27225,-2.919226,8.628104,2.2256238,122.700005,-170.1,-27.300001,,,,x,,
435308,0.5150011,4.5530643,-1.2901944,-3.01069,8.368956,2.13416,113.100006,-158.1,-26.7,,,,x,,
435328,0.9869359,4.725928,-0.5580674,-3.445144,7.766818,2.62959,120.3,-158.1,-25.500002,,,,x,,
435389,-0.17286332,4.685254,-1.6969316,-2.2027578,9.077802,-0.198172,122.700005,-167.70001,-24.300001,,,,x,,
435409,0.018542431,6.2141075,-1.0413669,-1.471046,5.137228,0.861286,108.3,-155.70001,-25.500002,,,,x,,
435429,0.90140146,8.144913,-0.5664414,-1.18141,3.140264,1.234764,105.9,-170.1,-21.900002,,,,x,,
435452,1.3769251,8.85431,0.83082056,-2.2865999,1.928366,-0.015244,110.700005,-158.1,-24.900002,,,,x,,
435472,1.510311,9.327441,0.98215073,-3.35368,4.199722,-0.868908,103.50001,-174.90001,-26.1,,,,x,,
435492,0.6196761,9.107923,0.117834166,-3.88722,5.243936,-1.958854,101.100006,-160.5,-25.500002,,,,x,,
435535,0.694444,8.830983,1.0401707,-4.0472817,0.91463995,-2.560992,115.50001,-174.90001,-27.300001,,,,x,,
435631,-1.5450033,9.87235,-0.30804363,0.510674,-0.769822,-1.768304,127.50001,-155.70001,-23.7,,,,,,
435651,-1.5838826,9.457238,-0.5078234,0.739334,-2.141782,-2.179892,125.100006,-150.90001,-27.300001,,,,,,
435691,-0.99052477,9.4859495,-0.63283527,0.68597996,-1.730194,-1.272874,122.700005,-160.5,-24.900002,,,,,,
435714,-1.0503391,9.415967,-0.93729,0.891774,-1.440558,-0.56402797,117.9,-160.5,-35.7,,,,,,
435734,-1.0593112,9.71145,-1.2907926,1.417692,-1.211898,0.30488,120.3,-153.3,-26.1,,,,,,
435755,-0.6286483,9.773058,-1.5324423,1.585376,-1.67684,0.83842,125.100006,-153.3,-20.1,,,,,,
435775,-0.22430362,9.945323,-1.6454914,1.745438,-2.195136,1.318606,120.3,-160.5,-20.1,,,,,,
435817,0.4982531,9.451257,-1.9565257,1.432936,-2.301844,1.044214,113.100006,-162.90001,-23.7,,,,,,
435837,0.7434917,9.402807,-2.1694646,1.211898,-2.073184,0.426832,105.9,-155.70001,-24.300001,,,,,,
435858,0.753062,9.371106,-2.363263,0.92988396,-1.6234859,-0.106708,120.3,-155.70001,-25.500002,,,,,,
435878,0.9378882,9.030763,-2.51878,0.327746,-1.570132,-0.81555396,115.50001,-153.3,-24.900002,,,,,,
435898,0.92891604,8.862086,-2.7203543,-0.289636,-1.074702,-0.81555396,120.3,-162.90001,-21.300001,,,,,,
435920,0.80510044,8.814833,-3.0720623,-0.396344,-0.72409,-0.998482,117.9,-155.70001,-30.300001,,,,,,
435940,1.2196136,9.017604,-2.882451,-1.036592,-1.074702,-1.158544,115.50001,-158.1,-24.900002,,,,,,
435960,1.6221638,9.200037,-2.9213302,-1.478668,-0.22865999,-1.722572,122.700005,-170.1,-21.900002,,,,,,
435980,1.7423905,8.464321,-3.0989788,-1.783548,0.785066,-2.599102,141.90001,-165.3,-21.300001,,,,,,
436003,1.873982,8.489443,-3.8179467,-0.099086,2.13416,-2.644834,122.700005,-165.3,-22.5,,,,x,,
436023,2.36745,8.945827,-4.192982,-0.243904,1.471046,-2.51526,125.100006,-158.1,-31.500002,,,,x,,
436043,2.7556446,8.512173,-3.8083763,-0.830798,0.868908,-3.2393498,141.90001,-155.70001,-29.1,,,,x,,
436063,3.1617837,7.4941335,-3.4279573,-0.846042,2.05794,-3.986306,139.5,-160.5,-23.1,,,,x,,
436083,3.57211,7.2985406,-3.3149083,-1.089946,2.987824,-3.940574,149.1,-155.70001,-22.5,,,,x,,
436103,3.8059838,6.9641786,-2.9482467,-1.8369019,4.054904,-5.3658876,139.5,-153.3,-26.1,,,,x,,
436163,2.7783742,3.3017492,-1.3099331,-2.339954,5.556438,-9.321706,163.5,-150.90001,-21.300001,,,,x,,
436183,2.5002377,1.8016067,-0.21832219,-1.94361,7.477182,-8.048832,173.1,-131.70001,-27.300001,,,,x,,
436203,2.2657657,2.6037164,-0.45399052,-1.8597679,9.60372,-6.006136,173.1,-138.90001,-30.300001,,,,x,,
436223,1.9272166,2.7705982,-0.47073853,-1.8445239,9.611341,-6.471078,185.1,-146.1,-22.5,,,,x,,
436288,-1.7399979,3.589456,1.9774606,0.716468,1.8521459,-11.478732,206.70001,-126.9,-23.1,,,,x,,
436309,-3.8400779,2.7089896,4.9179316,-1.8673899,3.08691,-13.483317,201.90001,-119.700005,-16.5,,,,x,,
436330,-5.568113,4.0584,1.753157,0.81555396,6.9436417,-12.073248,230.70001,-114.9,-18.900002,,,,x,,
436352,-5.873764,6.722529,1.6335285,1.722572,-0.07622,-9.824758,225.90001,-105.3,-23.1,,,,x,,
436373,-8.638979,5.39824,3.1037638,1.722572,-0.754578,-10.6631775,228.3,-88.5,-23.1,,,,x,,
436393,-9.877733,6.5024123,1.5719197,2.980202,-2.118916,-7.728708,242.70001,-86.100006,-17.1,,,,x,,
436413,-10.527316,9.994969,0.25421077,3.8186219,-3.08691,-4.870458,261.90002,-78.9,-23.7,,,,x,,
436453,-13.708838,9.058875,-0.3481192,3.8262439,-8.910118,-7.2409,252.3,-69.3,-21.900002,,,,x,,
436473,-13.022769,11.075813,-1.4187951,4.893324,-9.306461,-3.361302,264.30002,-71.700005,-19.5,,,,x,,
436493,-12.8552885,14.822581,-2.5456965,4.45887,-10.86135,-1.935988,264.30002,-69.3,-22.5,,,,x,,
436513,-13.499489,15.158737,-3.4644442,4.984788,-11.615928,-2.644834,264.30002,-62.100002,-23.7,,,,x,,
436536,-11.855194,14.776524,-2.6390069,3.597584,-19.29128,-2.073184,269.1,-69.3,-30.900002,,,,x,,
436556,-15.709029,12.351054,0.30864176,2.7896519,-17.164743,-2.55337,271.5,-66.9,-26.1,,,,x,,
436576,-15.002024,13.670558,-3.6618314,7.73633,-3.7957559,2.522882,259.5,-71.700005,-34.5,,,,x,,
436596,-11.784613,15.530184,-6.0101404,5.5183277,-12.7668495,4.618932,276.30002,-71.700005,-23.7,,,,x,,
436662,-9.62113,13.791981,-6.293062,8.178406,-7.16468,6.8674216,259.5,-76.5,-33.300003,,,,x,,
436712,-9.901061,11.990374,-6.324764,9.695184,-5.213448,8.521396,242.70001,-95.700005,-33.300003,,,,x,,
436733,-8.178409,12.634574,-6.7751656,7.0351057,-9.024447,7.92688,230.70001,-93.3,-34.5,,,,x,,
436753,-7.7561197,11.512458,-5.9431486,7.0198617,-8.742434,6.5396757,235.50002,-110.100006,-35.7,,,,x,,
436773,-7.534807,11.673956,-6.755427,7.3171196,-4.11588,8.07932,213.90001,-100.50001,-30.300001,,,,x,,
436793,-6.3301473,11.447858,-7.3601494,5.5945477,-1.699706,8.315601,218.70001,-102.9,-36.9,,,,x,,
436816,-5.4131937,11.458027,-8.095865,5.777476,-1.059458,8.23176,199.50002,-126.9,-32.100002,,,,x,,
436836,-5.8067718,10.009324,-7.995975,4.733262,-1.3567159,7.789684,209.1,-124.50001,-30.900002,,,,x,,
436860,-3.6492703,10.460324,-7.6550336,2.309466,-0.632626,10.487872,177.90001,-124.50001,-32.7,,,,x,,
436880,-3.0888102,10.259348,-7.183697,2.050318,-0.091464,8.818654,180.3,-129.3,-30.300001,,,,x,,
436920,-2.2573917,7.1932673,-6.313399,-0.525918,3.16313,9.230242,165.90001,-136.5,-25.500002,,,,x,,
436945,-1.1681732,8.234036,-6.20035,-1.661596,6.0442457,9.763782,161.1,-136.5,-30.900002,,,,x,,
436965,-0.85235375,7.2871757,-6.1596766,-0.617382,6.920776,6.692116,153.90001,-141.3,-41.100002,,,,x,,
437005,0.24583676,6.598115,-4.766003,-2.393308,3.346058,8.147918,139.5,-150.90001,-26.7,,,,x,,
437026,0.4521961,7.0682554,-3.4859772,-4.222588,4.9619217,7.157058,137.1,-153.3,-35.100002,,,,x,,
437068,0.7716044,5.4885597,-3.0313885,-3.7652678,8.033587,4.0167937,120.3,-158.1,-27.900002,,,,x,,
437109,1.2363615,4.309022,-1.0892184,-3.460388,9.420792,3.35368,122.700005,-162.90001,-27.900002,,,,x,,
437187,1.74897,4.694824,0.023925718,-3.2164838,12.553433,2.378064,110.700005,-170.1,-28.500002,,,,x,,
437207,1.7310258,4.7181516,-0.10108616,-2.583858,12.789716,1.707328,108.3,-158.1,-29.1,,,,x,,
437250,1.3147182,6.3403153,0.24523862,-0.998482,11.791234,1.158544,110.700005,-158.1,-21.900002,,,,x,,
437292,0.723753,5.9670744,0.026318291,0.182928,8.986338,-1.082324,103.50001,-172.5,-27.300001,,,,x,,
437366,0.105273165,7.7537274,-0.34692293,-0.221038,4.131124,2.40093,105.9,-170.1,-24.300001,,,,x,,
437386,0.84039086,9.921397,0.2560052,0.442076,0.64787,3.650938,105.9,-160.5,-19.5,,,,x,,
437426,-0.05084215,10.818612,-1.9212352,1.768304,3.1936178,0.7622,98.700005,-162.90001,-23.7,,,,x,,
437446,-0.16090046,9.781432,-1.1621917,1.036592,-1.227142,-1.1128119,110.700005,-170.1,-23.1,,,,x,,
437466,0.15432088,9.764086,-1.267465,0.907018,-1.082324,-0.907018,91.5,-162.90001,-24.300001,,,,x,,
437486,0.23148133,9.838854,-1.5055258,0.213416,-0.998482,-0.861286,108.3,-167.70001,-26.7,,,,,,
437508,0.24523862,9.573876,-1.6131916,-0.525918,-1.288118,-1.6539739,105.9,-165.3,-24.300001,,,,,,
437528,0.21652776,9.35376,-1.7292314,-0.030488,-1.1204339,-1.67684,105.9,-162.90001,-17.7,,,,,,
437590,0.36127836,9.061268,-1.5892658,-0.327746,-0.983238,-0.7622,113.100006,-170.1,-28.500002,,,,,,
437630,-0.3050529,8.869264,-2.4577694,0.92226195,-0.41921,-0.769822,110.700005,-165.3,-20.7,,,,,,
437670,0.19977975,8.830983,-2.4954524,1.18141,-2.59148,-0.053354,120.3,-160.5,-19.5,,,,,,
437691,0.5359361,8.890199,-2.7371023,1.585376,-2.545748,0.274392,120.3,-165.3,-23.7,,,,,,
437734,0.76801556,9.558923,-2.902788,0.93750596,-2.073184,0.7622,115.50001,-165.3,-14.700001,,,,,,
437774,0.6782941,9.118092,-2.9895186,-0.137196,-1.227142,-0.35061198,117.9,-186.90001,-17.7,,,,,,
437794,0.5790024,9.063661,-3.3400304,0.26677,-0.434454,-0.548784,115.50001,-167.70001,-17.7,,,,,,
437814,0.51859,8.966163,-3.589456,-0.015244,-0.655492,-0.67835796,120.3,-165.3,-20.7,,,,,,
437855,0.912168,8.6324,-3.342423,-1.074702,-0.769822,-0.510674,108.3,-170.1,-25.500002,,,,,,
437879,1.0652926,8.676064,-3.7455714,-0.503052,0.11432999,-0.129574,117.9,-160.5,-20.7,,,,,,
437899,1.2878019,8.990088,-3.5709136,-0.868908,-0.060976,0.17530599,113.100006,-158.1,-23.7,,,,,,
437919,1.3494105,9.131848,-3.7168605,-1.082324,0.731712,-0.396344,113.100006,-158.1,-20.1,,,,,,
437942,1.4415245,8.929078,-3.9250143,-0.92226195,1.821658,-0.92988396,115.50001,-174.90001,-20.1,,,,,,
437962,1.7830642,8.8381605,-3.9303975,-0.92226195,1.8369019,-0.7622,115.50001,-160.5,-18.900002,,,,,,
437982,2.392572,9.390844,-3.439322,-1.02897,2.339954,-0.47256398,115.50001,-162.90001,-24.900002,,,,,,
438004,2.8178515,9.051698,-3.188102,-1.463424,4.893324,-2.042696,113.100006,-158.1,-23.7,,,,,,
438024,3.1558022,8.801674,-3.1402507,-1.089946,6.181442,-3.025934,103.50001,-162.90001,-17.7,,,,x,,
438087,2.9548264,6.56761,-2.5911553,-0.49543,9.1463995,-8.247004,117.9,-158.1,-18.900002,,,,x,,
438108,2.5899591,5.1344595,-2.4637508,0.99086,9.016826,-10.449761,137.1,-158.1,-20.7,,,,x,,
438129,2.4960506,4.5763917,-2.329767,2.36282,7.721086,-11.105254,139.5,-153.3,-23.7,,,,x,,
438149,2.2304752,4.3006477,-1.79084,1.6311079,7.0503497,-10.990924,151.5,-160.5,-17.1,,,,x,,
438172,2.0019846,4.560242,-1.4780113,0.998482,5.960404,-11.1890955,165.90001,-131.70001,-16.5,,,,x,,
438192,1.6544634,2.652764,0.19559275,-0.92988396,3.7805119,-12.759228,177.90001,-143.70001,-17.7,,,,x,,
438212,1.2154266,2.1634831,0.5496934,-1.29574,3.6890478,-12.812582,180.3,-143.70001,-22.5,,,,x,,
438233,-0.4677478,1.7603347,0.7943339,-0.251526,2.416174,-12.15709,189.90001,-124.50001,-18.900002,,,,x,,
438253,-1.075461,1.5994343,1.4193933,-0.510674,-0.221038,-11.288181,194.70001,-126.9,-20.1,,,,x,,
438273,-3.1815224,1.4498986,2.689849,-0.030488,-1.059458,-9.885734,206.70001,-117.3,-14.1,,,,x,,
438293,-3.669009,4.931091,2.5415094,-0.80030996,-1.8597679,-6.3567476,223.50002,-112.50001,-14.1,,,,x,,
438333,-6.882233,3.3723302,2.171259,2.073184,0.243904,-9.71805,218.70001,-93.3,-9.900001,,,,x,,
438357,-6.7757635,7.216595,0.65795726,2.332332,-1.3490939,-4.207344,223.50002,-88.5,-21.900002,,,,x,,
438378,-7.919413,8.924891,1.3643641,1.760682,-4.23021,-6.166198,228.3,-93.3,-15.900001,,,,x,,
438398,-9.438098,8.015116,0.1016843,3.589962,-3.079288,-7.2409,245.1,-74.100006,-14.1,,,,x,,
438440,-10.109813,8.018704,1.342831,1.265252,-9.733294,-5.4878397,254.70001,-81.3,-15.3,,,,x,,
438460,-9.8101425,9.897471,-0.9719823,3.475632,-4.390272,-2.13416,254.70001,-81.3,-23.1,,,,x,,
438483,-10.392136,13.073611,-1.0760592,0.746956,-10.754642,-2.355198,259.5,-74.100006,-22.5,,,,x,,
438503,-12.034039,10.356846,-1.3858973,2.309466,-5.884184,-3.993928,259.5,-66.9,-23.1,,,,x,,
438586,-10.243198,16.913689,-6.8295965,4.336918,-5.785098,5.556438,259.5,-62.100002,-25.500002,,,,x,,
438627,-15.800545,10.715133,-0.13817103,0.91463995,-13.628136,-2.2256238,264.30002,-81.3,-31.500002,,,,x,,
438647,-11.392231,15.171897,-5.6494603,7.370474,0.67835796,7.0503497,254.70001,-69.3,-28.500002,,,,x,,
438689,-13.410365,11.568085,-2.2777283,0.20579399,-15.487904,0.602138,261.90002,-81.3,-33.300003,,,,x,,
438709,-11.430512,11.413166,-4.485474,6.905532,-1.547266,6.150954,249.90001,-81.3,-31.500002,,,,x,,
438729,-7.4827685,14.2046995,-6.965375,5.541194,-5.44973,8.841519,242.70001,-83.700005,-30.900002,,,,x,,
438752,-9.416565,11.042317,-4.37721,3.3079479,-11.28056,5.320156,245.1,-90.9,-33.9,,,,x,,
438772,-7.797392,10.653524,-5.3444076,5.388754,-4.0777698,7.4390717,225.90001,-95.700005,-35.100002,,,,x,,
438814,-6.04902,10.1881695,-5.1488147,2.545748,-3.330814,9.1159115,211.50002,-110.100006,-39.300003,,,,x,,
438834,-5.166759,10.555429,-6.1746297,3.132642,0.091464,9.695184,209.1,-114.9,-31.500002,,,,x,,
438854,-4.547083,9.467407,-6.501814,2.2103798,0.35061198,9.18451,189.90001,-117.3,-28.500002,,,,x,,
438874,-3.2861974,9.515857,-6.702192,1.4024479,-1.9054999,10.221102,180.3,-134.1,-35.100002,,,,x,,
438894,-3.936379,8.12338,-5.2816024,-0.23628199,0.16768399,8.833898,182.70001,-131.70001,-32.100002,,,,x,,
438914,-3.3161047,8.108426,-5.919223,1.310984,3.8109999,9.359816,175.5,-129.3,-29.7,,,,x,,
438934,-0.8045023,9.851415,-7.5629196,1.71495,3.62045,11.341536,168.3,-129.3,-25.500002,,,,x,,
438954,-1.2650723,9.398023,-5.8330903,-1.440558,-2.385686,8.711946,161.1,-146.1,-32.100002,,,,x,,
438974,-1.8650098,7.6903243,-4.1600842,-1.1204339,0.975616,6.6311398,141.90001,-150.90001,-30.300001,,,,x,,
438994,-1.2453337,7.183099,-5.011242,-0.525918,7.370474,7.301876,137.1,-148.5,-36.9,,,,x,,
439014,-0.7668193,7.8296914,-5.693125,-0.69360197,6.1204658,7.972612,149.1,-153.3,-31.500002,,,,x,,
439036,-0.7506694,6.915729,-4.330555,-0.94512796,2.621968,6.067112,129.90001,-155.70001,-25.500002,,,,x,,
439056,-0.2978752,5.532224,-2.9972944,-1.082324,2.035074,5.3963757,129.90001,-158.1,-27.900002,,,,x,,
439076,0.40314835,5.5459814,-2.2203066,-1.227142,5.29729,6.5244317,117.9,-160.5,-32.7,,,,x,,
439116,0.1531246,3.84905,-2.0450509,-1.250008,8.963471,4.923812,122.700005,-167.70001,-26.7,,,,x,,
439136,1.0856295,4.5548587,-1.8273268,-0.365856,8.605238,6.6006517,115.50001,-153.3,-28.500002,,,,x,,
439156,1.9278148,6.0466275,-1.1011813,-0.975616,7.4238276,7.057972,113.100006,-165.3,-18.900002,,,,x,,
439217,1.6789873,5.656638,-1.1819305,-0.274392,8.963471,4.580822,89.100006,-165.3,-30.900002,,,,x,,
439279,1.9619089,5.376109,-0.35529694,-0.57164997,7.301876,1.1128119,79.5,-162.90001,-27.900002,,,,x,,
439299,2.5851738,6.5335155,-0.046655152,-0.586894,7.881148,1.310984,91.5,-170.1,-27.900002,,,,x,,
439319,2.1024725,7.3063164,-0.3798208,-0.525918,8.490908,0.129574,84.3,-160.5,-19.5,,,,x,,
439339,1.5796956,7.5533495,-0.26916432,0.259148,7.294254,-1.044214,81.9,-172.5,-26.1,,,,x,,
439400,1.7274369,8.886012,0.47671995,-0.594516,5.312534,-2.40093,84.3,-165.3,-29.7,,,,x,,
439468,-0.015551717,9.557727,-1.150827,0.777444,2.926848,-1.6387299,91.5,-162.90001,-27.300001,,,,x,,
439488,-0.12261931,8.897975,-1.1227144,1.06708,0.07622,-1.8978779,101.100006,-177.3,-26.1,,,,x,,
439530,0.49765494,9.605578,-1.6012287,1.074702,-1.21952,-0.708846,89.100006,-170.1,-27.900002,,,,,,
439550,0.757249,9.981212,-1.7005205,0.83842,-1.730194,-0.655492,103.50001,-191.70001,-22.5,,,,,,
439570,0.753062,9.824498,-2.046247,0.15244,-1.821658,-0.67073596,91.5,-160.5,-19.5,,,,,,
439590,0.5861801,9.021193,-2.0647895,-0.16768399,-1.951232,-0.503052,93.9,-167.70001,-26.7,,,,,,
439610,0.8170633,9.27301,-2.141352,0.106708,-2.461906,0.41921,98.700005,-160.5,-30.900002,,,,,,
439630,1.0934054,9.99138,-1.865608,-0.182928,-2.339954,0.45731997,91.5,-174.90001,-14.700001,,,,,,
439650,0.8092874,10.096653,-1.9619089,-0.640248,-1.6234859,-0.34298998,103.50001,-172.5,-21.900002,,,,,,
439673,0.49466425,9.408789,-2.1479313,-0.72409,-1.21952,-1.074702,89.100006,-170.1,-18.300001,,,,,,
439693,0.27036062,8.598305,-2.2538028,0.40396598,-1.3414719,-0.998482,96.3,-170.1,-21.900002,,,,,,
439713,0.4204945,8.756215,-2.2400453,0.67835796,-1.570132,-0.41921,93.9,-177.3,-23.1,,,,,,
439733,0.660948,9.541576,-2.1706607,0.47256398,-1.3719599,0.320124,103.50001,-167.70001,-27.900002,,,,,,
439753,0.67171454,9.431519,-2.2621768,-0.022866,-0.777444,0.030488,101.100006,-165.3,-20.1,,,,,,
439773,0.6053207,9.401013,-2.3770201,0.007622,-0.56402797,-0.106708,89.100006,-177.3,-21.900002,,,,,,
439793,0.39597064,9.229346,-2.597735,0.144818,-0.221038,-0.34298998,89.100006,-162.90001,-23.7,,,,,,
439813,0.67410713,9.17013,-2.497845,0.625004,-1.189032,0.198172,120.3,-162.90001,-18.900002,,,,,,
439833,0.8362039,9.4428835,-2.3979552,0.594516,-1.166166,0.487808,91.5,-165.3,-22.5,,,,,,
439853,0.94087887,9.563708,-2.3518982,-0.060976,-0.46494198,0.297258,93.9,-172.5,-21.900002,,,,,,
439893,0.9426733,8.963172,-2.4236753,-0.503052,-0.03811,-0.396344,89.100006,-153.3,-22.5,,,,,,
439956,1.3739344,9.072035,-2.242438,-0.602138,0.07622,0.251526,103.50001,-165.3,-24.300001,,,,,,
439976,1.91645,9.256263,-2.2400453,-0.746956,0.060976,0.053354,96.3,-172.5,-20.1,,,,,,
439997,2.041462,8.800478,-2.1066597,-1.1432999,0.137196,-0.640248,101.100006,-167.70001,-29.7,,,,,,
440017,2.3435242,8.661709,-2.1598942,-1.158544,0.198172,-1.204276,103.50001,-158.1,-23.7,,,,,,
440041,2.8513474,8.25856,-2.7131765,-1.1432999,2.2484899,-2.7820299,115.50001,-172.5,-23.7,,,,,,
440061,3.1719522,8.0611725,-4.179823,0.548784,4.291186,-3.948196,91.5,-162.90001,-26.1,,,,,,
440083,3.572708,8.613857,-4.2151136,0.17530599,-0.091464,-2.40093,110.700005,-160.5,-24.900002,,,,,,
440103,3.3926668,8.497817,-3.410013,-1.417692,1.3490939,-3.117398,108.3,-172.5,-25.500002,,,,,,
