time,sensor_accX,sensor_accY,sensor_accZ,sensor_gyroX,sensor_gyroY,sensor_gyroZ,sensor_magX,sensor_magY,sensor_magZ,label_Boxing_slip_left,label_Boxing_slip_right,label_Boxing_pullback,label_Boxing_roll_left,label_Boxing_roll_right,label_Boxing_recording_cut
731523,3.1450357,9.455444,-3.3860874,2.2942219,-0.586894,-1.18141,57.9,-184.5,-24.300001,,,,,,
731543,3.1785316,9.176111,-3.1683633,1.4024479,-0.80030996,-1.310984,48.300003,-174.90001,-20.7,,,,,,
731563,3.0439496,8.576174,-3.0553143,0.41921,-0.3811,-1.417692,45.9,-170.1,-16.5,,,,,,
731583,2.9679854,8.28428,-2.994902,0.16768399,-0.11432999,-1.021348,53.100002,-184.5,-25.500002,,,,,,
731603,3.0965862,8.576174,-2.7885425,-0.487808,-0.045732,-0.41158798,43.5,-179.70001,-25.500002,,,,,,
731625,2.9560225,8.287869,-2.9225266,-1.3567159,0.20579399,-0.30488,53.100002,-179.70001,-21.300001,,,,,,
731646,2.9655929,8.143119,-2.7705982,-0.80793196,-0.099086,0.106708,50.7,-167.70001,-21.300001,,,,,,
731666,2.9691818,8.157474,-2.6766899,-0.967994,-0.022866,0.41158798,53.100002,-172.5,-18.300001,,,,,,
731686,2.8513474,8.14252,-2.7143729,-0.83842,0.053354,0.442076,45.9,-182.1,-27.900002,,,,,,
731728,3.150419,8.263345,-2.7442799,-0.365856,-0.327746,0.35061198,48.300003,-170.1,-23.7,,,,,,
731748,2.9434617,7.9020667,-2.7903368,-0.091464,-0.396344,0.221038,36.300003,-174.90001,-24.900002,,,,,,
731768,2.912358,7.9929843,-2.9273117,0.57164997,-0.72409,0.426832,74.700005,-170.1,-19.5,,,,,,
731788,3.0935955,8.487649,-2.9566207,0.739334,-0.983238,0.434454,41.100002,-182.1,-18.900002,,,,,,
731810,3.116325,8.548659,-2.9608078,0.40396598,-1.242386,-0.20579399,50.7,-174.90001,-20.7,,,,,,
731830,3.166569,8.669484,-2.9715743,0.26677,-1.3643379,-0.297258,53.100002,-167.70001,-29.7,,,,,,
731852,3.4153965,9.603186,-2.924321,0.525918,-0.91463995,0.45731997,43.5,-170.1,-28.500002,,,,,,
731872,4.8455563,12.446757,-3.8508444,0.480186,0.312502,3.635694,50.7,-177.3,-20.7,,,,,,
731892,4.242628,10.8790245,-2.6928396,-2.93447,-3.056422,-2.7744079,48.300003,-167.70001,-21.900002,,,,,,
731913,2.9984908,7.3649344,-1.8907299,-0.388722,-2.7210538,-4.5731997,48.300003,-182.1,-21.300001,,,,,,
731933,2.347711,6.463533,-1.6837724,-1.29574,-1.29574,-0.586894,50.7,-162.90001,-22.5,,,,,,
731953,2.7263358,8.638381,-1.912263,-1.8750119,-0.95274997,3.16313,48.300003,-177.3,-17.1,,,,,,
731974,2.2442324,9.393835,-1.911665,-1.417692,-0.586894,1.5929979,41.100002,-179.70001,-22.5,,,,,,
731994,1.6748003,8.933864,-2.158698,-1.25763,-0.640248,-0.198172,50.7,-172.5,-21.300001,,,,,,
732014,1.0898165,9.186878,-2.1664739,-0.632626,-1.417692,-0.94512796,57.9,-177.3,-17.1,,,,,,
732034,1.0066746,10.348472,-2.1808293,-0.30488,-1.570132,-0.731712,57.9,-174.90001,-29.1,,,,,,
732056,0.8266336,10.916707,-2.1706607,-1.455802,-1.227142,-1.41007,50.7,-167.70001,-24.900002,,,,,,
732076,-0.11903045,8.981116,-2.1066597,-1.48629,-0.327746,-3.551852,48.300003,-189.3,-26.7,,,,,,
732096,-0.80809116,8.62582,-2.2609804,0.0,-0.64787,-1.67684,53.100002,-170.1,-28.500002,,,,,,
732118,-0.60472256,9.81433,-2.0773506,-0.602138,-0.144818,-0.30488,53.100002,-179.70001,-21.300001,,,,,,
732138,-0.90977544,9.560718,-2.159296,-0.259148,0.40396598,-1.06708,43.5,-177.3,-20.7,,,,,,
732161,-0.98035634,9.476977,-2.2185123,-0.23628199,0.442076,-1.242386,55.500004,-167.70001,-21.300001,,,,,,
732181,-1.0772555,9.459631,-2.339337,0.289636,0.57164997,-1.234764,65.100006,-165.3,-21.300001,,,,,,
732202,-0.70221984,9.821507,-2.3865905,0.579272,0.068598,-0.83842,50.7,-170.1,-24.300001,,,,,,
732222,-0.53234726,9.906444,-2.2023625,0.26677,0.160062,-0.868908,48.300003,-179.70001,-26.7,,,,,,
732242,-0.48090696,9.523034,-2.2209048,0.20579399,0.3811,-1.440558,65.100006,-179.70001,-24.900002,,,,,,
732262,-0.3505118,9.219177,-2.1610906,0.243904,0.19055,-0.983238,55.500004,-179.70001,-24.900002,,,,,,
732282,-0.16688189,9.106129,-2.0241158,-0.182928,0.3811,-0.487808,65.100006,-174.90001,-20.1,,,,,,
732302,-0.036486723,9.026576,-2.200568,0.0,0.868908,-0.434454,60.300003,-177.3,-26.1,,,,,,
732322,-0.016748004,8.873451,-2.108454,0.03811,0.388722,-0.55640596,50.7,-191.70001,-32.100002,,,,,,
732342,0.26916432,9.066053,-1.9660959,-0.274392,0.49543,-0.099086,53.100002,-160.5,-27.900002,,,,,,
732362,0.39597064,9.134839,-1.9983957,-0.3811,0.655492,-0.22865999,65.100006,-186.90001,-22.5,,,,,,
732382,0.7626323,9.313684,-1.9487498,-0.49543,0.503052,-0.07622,67.5,-182.1,-27.900002,,,,,,
732402,0.832615,8.97693,-1.8022047,-0.60976,0.617382,-0.548784,67.5,-170.1,-27.900002,,,,,,
732422,0.80749303,8.369815,-1.7298294,-0.442076,0.480186,-0.87653,62.7,-179.70001,-24.300001,,,,,,
732442,0.9283179,8.181399,-1.8291212,-0.15244,0.46494198,-0.243904,57.9,-165.3,-23.7,,,,,,
732462,1.2878019,8.832179,-1.9218334,-0.083841994,0.594516,0.28201398,65.100006,-170.1,-21.300001,,,,,,
732482,1.3129238,8.933266,-2.0169382,-0.099086,0.548784,-0.3811,60.300003,-172.5,-23.1,,,,,,
732502,1.3918787,8.360843,-2.033088,-0.11432999,0.68597996,-1.158544,65.100006,-182.1,-18.900002,,,,,,
732522,1.8207473,8.494228,-2.4458065,0.769822,1.1356779,-0.541162,65.100006,-170.1,-19.5,,,,,,
732542,1.9858347,9.713841,-2.493658,0.45731997,0.967994,0.0,57.9,-170.1,-32.7,,,,,,
732565,2.8609178,10.8868,-3.171354,1.06708,2.7362978,-0.510674,72.3,-172.5,-18.900002,,,,,,
732625,2.3160095,8.405704,-2.7729907,0.503052,0.213416,-4.0015497,60.300003,-160.5,-19.5,,,,,,
732645,2.431451,8.362637,-3.049931,0.3811,0.655492,-1.501534,67.5,-165.3,-19.5,,,,,,
732667,2.4147031,8.80945,-3.012248,0.083841994,-0.160062,-0.891774,62.7,-153.3,-17.7,,,,,,
732687,2.5869684,8.414077,-2.8788621,0.67835796,-0.19055,-1.547266,74.700005,-170.1,-21.900002,,,,,,
732707,2.4452085,7.9475255,-2.7478688,0.449698,-0.47256398,-1.6234859,77.100006,-160.5,-25.500002,,,,,,
732731,2.5145931,7.83986,-2.7119803,0.274392,-0.144818,-1.06708,74.700005,-174.90001,-25.500002,,,,,,
732751,2.7676075,8.196353,-2.8304126,0.16768399,0.129574,-0.625004,81.9,-172.5,-20.1,,,,,,
732773,2.807085,7.982218,-2.7137747,-0.129574,0.121952,-1.089946,89.100006,-174.90001,-22.5,,,,,,
732793,2.765813,7.655632,-2.7753835,0.060976,0.442076,-0.967994,81.9,-170.1,-21.900002,,,,,,
732813,3.1731484,8.750832,-3.183317,0.503052,0.960372,0.297258,65.100006,-177.3,-23.1,,,,,,
732834,3.1743448,9.232337,-3.3920689,0.221038,0.434454,-0.19055,86.700005,-167.70001,-21.900002,,,,,,
732854,3.0343792,8.472695,-3.158793,0.34298998,-0.198172,-0.891774,72.3,-182.1,-22.5,,,,,,
732874,3.3454137,9.140223,-3.2527015,0.69360197,-0.320124,0.26677,74.700005,-170.1,-24.300001,,,,,,
732894,3.5296416,10.334714,-3.4243686,0.365856,-0.144818,0.548784,74.700005,-160.5,-20.1,,,,,,
732914,2.9566207,9.229944,-3.0475385,-0.46494198,-1.6311079,-1.5244,81.9,-172.5,-21.900002,,,,,,
732934,2.310028,7.783036,-2.1939883,-0.716468,-2.492394,-1.75306,69.9,-179.70001,-16.5,,,,,,
732954,2.1975772,9.070838,-2.2197087,-0.518296,-0.259148,0.94512796,77.100006,-174.90001,-20.7,,,,,,
732977,1.5444051,11.1164875,-2.7341115,-0.967994,0.53354,1.6463519,81.9,-160.5,-21.300001,,,,,,
732997,0.11364716,10.983101,-2.6545584,-1.013726,0.045732,-2.088428,69.9,-165.3,-23.7,,,,,,
733017,-0.03469229,10.169627,-2.572613,-0.884152,-0.442076,-2.926848,77.100006,-172.5,-18.900002,,,,,,
733037,-0.30983806,9.340601,-1.8357008,-1.29574,-1.6158639,-2.17227,81.9,-182.1,-23.1,,,,,,
733057,-0.5335435,9.417163,-1.4493004,-1.707328,0.373478,-1.1204339,89.100006,-177.3,-21.300001,,,,,,
733077,-0.8421853,8.539089,-1.9989938,-1.3948259,1.493912,-1.821658,91.5,-172.5,-22.5,,,,,,
733101,-1.5001426,7.2423153,-2.1024725,0.15244,0.30488,-1.097568,96.3,-179.70001,-23.1,,,,,,
733121,-0.7016217,8.699391,-2.3279724,0.846042,-0.26677,0.95274997,93.9,-167.70001,-21.300001,,,,,,
733145,-0.840989,8.468508,-2.216718,0.67073596,-0.632626,-0.46494198,89.100006,-170.1,-28.500002,,,,,,
733165,-0.59036714,8.155081,-2.3273742,1.1432999,-0.586894,-0.586894,96.3,-165.3,-27.300001,,,,,,
733187,0.124413736,9.71145,-2.4242735,0.92226195,-0.82317597,0.396344,93.9,-162.90001,-26.1,,,,,,
733207,0.24882747,10.271311,-2.2286806,-0.579272,-0.17530599,-0.846042,91.5,-162.90001,-24.900002,,,,,,
733227,-0.12620817,9.007435,-2.506817,-0.884152,1.1280559,-1.98172,86.700005,-174.90001,-21.900002,,,,,,
733247,0.000598143,8.391946,-2.7682056,-0.602138,0.30488,-0.94512796,93.9,-160.5,-23.1,,,,,,
733267,0.4133168,9.175513,-1.987629,-1.02897,-1.044214,0.716468,86.700005,-172.5,-24.300001,,,,,,
733287,0.62745196,9.76289,-1.8351027,-1.501534,0.19055,0.373478,93.9,-165.3,-21.300001,,,,,,
733309,0.51978624,9.159364,-2.1287909,-1.463424,1.211898,-0.41921,84.3,-158.1,-21.900002,,,,,,
733329,-0.013159146,8.669484,-2.1240058,-1.3719599,1.242386,-0.518296,86.700005,-170.1,-27.300001,,,x,,,
733351,-1.7041093,9.314282,-2.91176,-0.60976,3.1783738,0.95274997,74.700005,-165.3,-20.7,,,x,,,
733371,-2.8794603,9.684533,-3.5966337,-0.373478,4.260698,0.754578,77.100006,-162.90001,-22.5,,,x,,,
733392,-4.082326,10.549448,-4.3951545,1.3490939,4.253076,0.861286,96.3,-170.1,-18.900002,,,x,,,
733412,-4.4017344,12.147686,-5.1769276,1.272874,4.199722,0.739334,103.50001,-172.5,-16.5,,,x,,,
733432,-4.622449,10.618234,-5.339024,-0.312502,1.821658,-1.425314,79.5,-165.3,-24.900002,,,x,,,
733452,-5.7972016,9.452454,-4.8479486,-1.1356779,0.55640596,0.480186,96.3,-174.90001,-21.900002,,,x,,,
733473,-5.6590304,9.759899,-4.7337036,-1.501534,2.522882,2.332332,91.5,-182.1,-22.5,,,x,,,
733493,-4.622449,8.799281,-4.949035,-1.288118,1.570132,0.975616,89.100006,-165.3,-22.5,,,x,,,
733513,-2.999687,7.099957,-4.245619,-1.516778,-3.3003259,-0.28201398,84.3,-172.5,-18.900002,,,x,,,
733533,-1.8458692,6.163863,-2.3483093,-2.042696,-7.3476076,0.746956,89.100006,-167.70001,-20.1,,,x,,,
733557,-0.88704604,6.312801,-0.44501838,-1.935988,-4.4817357,1.935988,79.5,-170.1,-27.900002,,,x,,,
733577,0.11484345,6.8678775,-1.0880221,-1.8597679,1.493912,2.964958,67.5,-162.90001,-13.500001,,,x,,,
733597,0.4151112,5.819333,-1.510311,-3.399412,1.4024479,3.6585598,72.3,-179.70001,-23.1,,,x,,,
733617,1.8991039,5.2696395,-0.757249,-4.275942,-1.1432999,7.0503497,67.5,-177.3,-20.1,,,x,,,
733639,4.176832,7.26325,-0.794932,-4.0625257,1.326228,13.605269,57.9,-174.90001,-21.900002,,,x,,,
733659,4.8329954,7.00246,-1.033591,-3.460388,1.158544,13.064108,50.7,-174.90001,-23.1,,,x,,,
733681,7.2028375,7.9547033,-0.5120104,-1.189032,-1.8292799,13.780576,29.1,-182.1,-26.7,,,x,,,
733702,7.2267632,8.12637,0.47671995,-0.33536798,0.503052,11.448244,7.5000005,-177.3,-31.500002,,,x,,,
733722,6.661518,8.811244,-1.6843706,1.02897,3.879598,9.443658,12.3,-184.5,-24.300001,,,x,,,
733742,7.1388364,9.150392,-2.0665839,0.739334,0.777444,7.865904,2.7,-165.3,-26.1,,,x,,,
733762,7.049713,7.8721595,-0.9743749,-0.259148,-0.632626,6.4177237,-18.900002,-162.90001,-29.7,,,x,,,
733782,8.059379,8.575576,-2.1180243,0.754578,2.073184,7.69822,-16.5,-172.5,-26.1,,,x,,,
733802,8.080314,9.88192,-2.2538028,-0.213416,-0.022866,7.690598,-23.7,-170.1,-27.900002,,,x,,,
733822,8.209513,8.288467,-1.1454438,-0.632626,-0.449698,5.18296,-30.900002,-174.90001,-31.500002,,,x,,,
733842,8.6766615,6.887018,-0.6453963,0.121952,1.67684,4.9924097,-38.100002,-182.1,-36.9,,,x,,,
733862,8.948219,9.375293,-1.7687088,1.211898,3.498498,7.16468,-38.100002,-167.70001,-23.7,,,x,,,
733882,9.533203,9.883117,-2.0881171,0.55640596,3.2164838,5.975648,-50.100002,-170.1,-26.7,,,x,,,
733902,8.671877,7.8338785,-1.8339063,-0.426832,2.05794,4.11588,-38.100002,-179.70001,-27.900002,,,x,,,
733922,9.685131,7.9373574,-2.2855043,1.1051899,1.8750119,4.15399,-54.9,-177.3,-27.300001,,,x,,,
733942,11.944317,9.486547,-2.275934,0.20579399,-1.097568,4.4817357,-62.100002,-177.3,-18.900002,,,x,,,
733962,11.087776,9.394434,-0.89003676,-0.251526,-0.46494198,0.83842,-69.3,-162.90001,-21.900002,,,x,,,
733984,9.771862,9.213795,-3.0882123,1.3948259,1.958854,-2.644834,-66.9,-160.5,-27.900002,,,x,,,
734005,11.027962,7.869767,-2.200568,-0.030488,-1.532022,-4.771372,-69.3,-172.5,-28.500002,,,x,,,
734027,9.459631,8.592922,-1.2680631,-0.708846,1.234764,-3.7576458,-57.300003,-167.70001,-26.7,,,x,,,
734047,7.83029,8.433816,-2.2484195,-0.640248,0.625004,-6.654006,-54.9,-165.3,-25.500002,,,x,,,
734067,8.09108,6.401924,-1.6484821,-0.68597996,-2.454284,-9.885734,-42.9,-162.90001,-26.7,,,x,,,
734087,9.445275,7.486357,-0.6059188,-0.510674,-2.919226,-7.0655937,-28.500002,-158.1,-29.7,,,x,,,
734129,6.623835,7.4325247,-1.4630578,-0.87653,-1.974098,-11.097631,-9.3,-184.5,-30.900002,,,x,,,
734149,6.239229,5.7571263,-0.4456165,-0.20579399,-3.955818,-13.902528,2.7,-172.5,-33.300003,,,x,,,
734169,5.421568,5.1727405,0.16508746,-0.022866,-2.675322,-12.454348,-9.3,-170.1,-27.300001,,,x,,,
734192,4.115822,6.137545,-0.6687238,0.160062,-0.70122397,-10.000064,14.700001,-182.1,-21.300001,,,x,,,
734254,-0.75186574,4.8802485,-1.1412568,0.861286,-0.70122397,-8.902495,38.7,-189.3,-30.300001,,,x,,,
734274,-1.5970417,6.894794,-1.8943188,1.1051899,0.617382,-6.3719916,48.300003,-184.5,-27.300001,,,x,,,
734294,-2.401544,8.104837,-2.447003,0.861286,1.021348,-6.5091877,62.7,-172.5,-27.300001,,,x,,,
734314,-2.6497734,8.103043,-2.5702202,0.69360197,0.16768399,-6.272906,53.100002,-172.5,-16.5,,,x,,,
734336,-3.7037013,8.619839,-2.5247614,1.417692,1.935988,-4.83997,77.100006,-179.70001,-20.7,,,x,,,
734356,-3.8586204,9.828686,-3.459061,2.195136,3.54423,-3.833866,69.9,-174.90001,-29.7,,,x,,,
734376,-3.794021,9.742553,-3.7216456,1.547266,1.440558,-3.910086,79.5,-179.70001,-22.5,,,x,,,
734399,-3.8460593,9.479968,-3.058305,1.21952,0.28201398,-3.346058,84.3,-170.1,-30.300001,,,x,,,
734420,-3.3705356,10.473483,-3.5751004,1.158544,1.699706,-2.2256238,84.3,-177.3,-21.300001,,,x,,,
734440,-3.0182295,10.106224,-3.8556297,0.7622,1.189032,-2.652456,84.3,-172.5,-22.5,,,x,,,
734460,-2.3668518,9.791002,-3.5697172,0.541162,-0.868908,-1.8902559,84.3,-167.70001,-22.5,,,x,,,
734480,-1.673604,9.674963,-2.8728807,-0.060976,-1.775926,-1.189032,98.700005,-172.5,-18.900002,,,x,,,
734523,-0.50363636,10.149888,-2.9189377,0.365856,0.518296,-0.594516,81.9,-160.5,-23.1,,,x,,,
734551,-0.111852735,9.3729,-2.6085014,0.327746,0.28201398,-1.189032,103.50001,-172.5,-23.1,,,,,,
734571,0.04246815,9.319666,-2.502032,0.274392,0.548784,-0.846042,98.700005,-167.70001,-23.7,,,,,,
734617,0.67590153,9.100745,-2.6294365,0.33536798,0.144818,-0.007622,89.100006,-172.5,-14.700001,,,,,,
734659,0.8086893,8.927882,-2.5767999,0.060976,0.03811,-0.182928,91.5,-165.3,-21.300001,,,,,,
734730,0.95044917,9.208411,-2.388983,-0.434454,-0.60976,0.0,91.5,-153.3,-23.7,,,,,,
734770,0.9019996,9.019996,-2.3273742,-0.655492,-0.221038,-0.503052,103.50001,-158.1,-23.1,,,,,,
734851,0.62565756,9.159364,-2.310028,-0.28201398,0.091464,-0.41158798,84.3,-174.90001,-18.900002,,,,,,
734871,0.6304427,9.169532,-2.3770201,-0.106708,0.099086,-0.320124,93.9,-172.5,-19.5,,,,,,
734913,0.6920514,9.0654545,-2.4882748,0.221038,-0.221038,0.03811,101.100006,-167.70001,-26.1,,,,,,
734933,0.7123883,9.182093,-2.5654352,0.327746,-0.274392,0.091464,103.50001,-170.1,-21.900002,,,,,,
734953,0.8134744,9.398023,-2.6132867,0.34298998,-0.45731997,0.03811,96.3,-160.5,-23.1,,,,,,
734973,0.660948,9.125269,-2.6228569,0.106708,-0.426832,-0.16768399,96.3,-167.70001,-27.900002,,,,,,
734993,0.64240557,9.0188,-2.5833795,-0.16768399,-0.46494198,-0.144818,101.100006,-165.3,-22.5,,,,,,
735037,0.53832865,9.131848,-2.6910453,-0.388722,0.068598,-0.182928,98.700005,-174.90001,-23.1,,,,,,
735097,-2.9374802,9.793395,-3.7258325,-0.541162,1.951232,-0.92226195,103.50001,-160.5,-22.5,,,x,,,
735120,-5.078832,11.231331,-4.9717646,0.053354,5.8765616,-2.2408679,110.700005,-158.1,-17.7,,,x,,,
735140,-5.4987283,11.106916,-5.5669165,-0.099086,5.762232,-2.583858,91.5,-167.70001,-26.1,,,x,,,
735160,-7.8996744,9.019996,-4.8216305,-3.094532,0.80030996,-1.1432999,93.9,-162.90001,-18.300001,,,x,,,
735180,-6.6794624,9.798779,-4.5500736,-3.170752,0.480186,3.102154,105.9,-172.5,-24.900002,,,x,,,
735203,-6.170443,8.353066,-3.258683,-4.329296,-1.996964,3.2774599,108.3,-172.5,-24.900002,,,x,,,
735226,-5.1021595,7.425945,-2.0253122,-3.7424018,-3.460388,5.274424,101.100006,-172.5,-24.900002,,,x,,,
735246,-3.7760766,7.1693416,-0.8296243,-3.12502,-2.7439198,6.234796,89.100006,-167.70001,-20.7,,,x,,,
735266,-1.995405,6.9013734,-0.55208594,-2.149404,-1.082324,5.807964,89.100006,-177.3,-22.5,,,x,,,
735286,-0.13458216,6.38398,-0.3355582,-1.8445239,-1.692084,5.701256,74.700005,-170.1,-22.5,,,x,,,
735330,2.012751,5.5280375,-0.6878644,-2.309466,1.25763,8.338468,57.9,-184.5,-27.900002,,,x,,,
735350,5.5872536,6.4617386,-0.15850788,-1.471046,-2.2256238,10.792751,50.7,-177.3,-34.5,,,x,,,
735370,6.4061112,7.472002,1.3242885,-0.99086,-1.554888,9.695184,43.5,-170.1,-26.1,,,x,,,
735390,6.598115,8.464919,-1.2333708,0.083841994,1.9054999,8.414688,19.5,-167.70001,-21.300001,,,x,,,
735410,8.176016,9.55653,-0.52696395,0.55640596,-2.583858,6.8598,29.1,-172.5,-33.300003,,,x,,,
735430,7.9122353,8.427237,-0.6334334,1.044214,-0.40396598,4.474114,14.700001,-186.90001,-28.500002,,,x,,,
735453,8.024088,9.017604,-1.422384,2.454284,0.144818,4.893324,17.1,-174.90001,-32.7,,,x,,,
735474,7.830888,10.764181,-2.3058412,3.071666,0.33536798,4.0472817,14.700001,-179.70001,-24.900002,,,x,,,
735494,6.9091496,9.180897,-2.4344418,2.118916,-0.663114,0.396344,5.1000004,-177.3,-23.7,,,x,,,
735514,7.8631873,9.168934,-2.5624444,3.01069,-0.960372,0.45731997,2.7,-184.5,-26.7,,,x,,,
735534,6.5747876,9.764684,-3.1444376,2.2484899,0.80030996,0.396344,12.3,-189.3,-29.1,,,x,,,
735554,6.5753856,9.835863,-3.3561802,2.36282,1.25763,-0.19055,2.7,-179.70001,-24.900002,,,x,,,
735574,6.769782,8.880629,-3.2957678,1.6463519,-0.49543,-1.288118,5.1000004,-172.5,-17.7,,,x,,,
735594,7.157977,9.477575,-2.7382984,1.18141,-0.274392,0.80793196,-4.5,-174.90001,-20.1,,,x,,,
735615,6.6830516,10.066746,-3.8263206,0.312502,1.6311079,0.67073596,-4.5,-179.70001,-18.300001,,,x,,,
735635,7.328448,9.241309,-3.757534,-0.327746,0.007622,-0.396344,-4.5,-184.5,-20.7,,,x,,,
735655,8.245999,8.221476,-2.3459167,-1.272874,-1.02897,0.297258,9.900001,-170.1,-24.300001,,,x,,,
735678,8.523538,10.575168,-2.7299244,-2.301844,1.455802,1.044214,7.5000005,-167.70001,-20.7,,,x,,,
735698,8.40989,9.433312,-2.6748953,-2.01983,0.853664,-2.370442,12.3,-170.1,-26.1,,,x,,,
735718,8.932069,7.6526413,-1.7214555,-1.554888,0.625004,-3.7957559,-2.1000001,-172.5,-22.5,,,x,,,
735741,8.776552,9.5942135,-2.0318916,-0.716468,2.454284,-1.02897,14.700001,-177.3,-21.900002,,,x,,,
735761,7.3984303,9.959679,-2.7305226,-1.6234859,2.423796,-3.2469718,12.3,-177.3,-24.300001,,,x,,,
735781,6.98631,7.882926,-1.7417923,-1.585376,-0.35061198,-6.3567476,14.700001,-160.5,-25.500002,,,x,,,
735801,6.639985,7.3900566,-1.3781214,-0.57164997,-0.312502,-5.541194,29.1,-170.1,-21.300001,,,x,,,
735824,6.1674523,7.275213,-1.2249968,-1.3719599,-0.57164997,-4.679908,21.900002,-189.3,-24.900002,,,x,,,
735845,5.8384733,7.8290935,-1.1717621,-1.532022,-0.251526,-4.131124,26.7,-189.3,-22.5,,,x,,,
735866,4.4830813,6.3301473,-1.1615937,-1.928366,-0.03811,-6.1204658,21.900002,-172.5,-26.1,,,x,,,
735887,2.8250291,4.655945,-0.1447506,-1.288118,-0.160062,-6.51681,48.300003,-170.1,-29.7,,,x,,,
735907,1.2710538,4.966979,-0.9073829,-0.07622,2.2789779,-5.137228,45.9,-174.90001,-26.1,,,x,,,
735927,-0.96121573,5.4413066,-1.5420126,1.06708,2.675322,-5.762232,50.7,-167.70001,-18.900002,,,x,,,
735947,-2.6336236,6.9193177,-2.5678277,2.55337,3.46801,-5.5030837,50.7,-170.1,-18.900002,,,x,,,
735968,-3.0260053,8.080314,-3.3184972,1.989342,2.2561119,-5.838452,60.300003,-170.1,-19.5,,,x,,,
735988,-3.066679,8.8381605,-3.083427,1.478668,-0.663114,-5.304912,74.700005,-170.1,-21.300001,,,x,,,
736008,-3.2102332,9.992577,-2.5672297,0.068598,-1.173788,-3.871976,77.100006,-172.5,-20.1,,,x,,,
736029,-3.6038115,9.481164,-2.6934378,-0.785066,1.417692,-4.718018,79.5,-165.3,-23.7,,,x,,,
736049,-3.438724,9.015211,-3.459061,0.198172,1.250008,-3.8033779,86.700005,-167.70001,-20.7,,,x,,,
736069,-3.3735263,9.423144,-2.857329,-0.358234,-1.577754,-2.7134318,91.5,-174.90001,-23.7,,,x,,,
736089,-3.2431312,9.493127,-2.5032284,-0.083841994,-0.967994,-2.446662,84.3,-177.3,-28.500002,,,x,,,
736113,-2.70241,10.335313,-2.8800583,0.129574,-0.49543,-2.111294,91.5,-172.5,-26.7,,,x,,,
736133,-2.3423278,10.353855,-2.8722825,-0.144818,-1.02897,-2.995446,91.5,-174.90001,-22.5,,,x,,,
736153,-1.9625071,9.46322,-2.7538502,0.53354,-1.280496,-3.2317278,96.3,-160.5,-24.300001,,,x,,,
736173,-1.388888,9.951902,-2.409918,0.632626,-1.737816,-1.8826339,98.700005,-165.3,-26.7,,,x,,,
736193,-1.1011813,9.921397,-2.3656554,0.396344,-0.67835796,-1.699706,103.50001,-165.3,-26.1,,,x,,,
736213,-1.0784518,9.307703,-2.3847961,0.182928,-0.007622,-1.3795819,101.100006,-170.1,-23.7,,,x,,,
736234,-0.7087994,9.274207,-2.522369,0.388722,0.289636,-0.07622,96.3,-165.3,-23.1,,,,,,
736255,-0.59275967,9.276599,-2.3847961,0.449698,0.160062,0.137196,91.5,-170.1,-27.900002,,,,,,
736276,-0.2296869,9.748534,-2.5002377,0.56402797,0.11432999,0.480186,113.100006,-162.90001,-26.1,,,,,,
736296,0.026318291,9.795189,-2.3704405,0.297258,-0.144818,0.198172,96.3,-162.90001,-26.7,,,,,,
736318,0.031103434,9.103736,-2.262775,-0.274392,0.07622,-0.365856,98.700005,-170.1,-21.300001,,,,,,
736338,0.22430362,8.885414,-2.4051328,0.007622,0.373478,-0.297258,98.700005,-172.5,-28.500002,,,,,,
736358,0.49885124,9.315478,-2.4248717,0.289636,-0.17530599,0.007622,98.700005,-172.5,-18.900002,,,,,,
736381,0.5419175,9.475183,-2.3830016,0.160062,0.198172,-0.068598,98.700005,-174.90001,-23.7,,,,,,
736401,0.35350248,9.179102,-2.5193782,0.16768399,0.41921,-0.46494198,98.700005,-174.90001,-27.300001,,,,,,
736421,0.46714967,8.990088,-2.5989313,0.327746,0.045732,-0.518296,101.100006,-150.90001,-20.7,,,,,,
736441,0.48210323,8.830384,-2.4709287,0.30488,-0.129574,-0.19055,96.3,-155.70001,-24.900002,,,,,,
736461,0.5126085,8.911732,-2.564239,0.320124,-0.015244,-0.099086,98.700005,-174.90001,-24.300001,,,,,,
736481,0.72315484,9.4321165,-2.6515677,0.327746,-0.22865999,-0.045732,103.50001,-160.5,-17.7,,,,,,
736501,0.78416544,9.203626,-2.6587455,-0.099086,-0.251526,-0.70122397,103.50001,-170.1,-25.500002,,,,,,
736521,0.83560574,9.052296,-2.5929499,-0.121952,-0.297258,-0.663114,96.3,-167.70001,-16.5,,,,,,
736541,0.82184845,9.116297,-2.568426,-0.099086,-0.16768399,-0.40396598,96.3,-158.1,-14.1,,,,,,
736561,0.8948219,9.192261,-2.5325372,-0.26677,-0.03811,-0.320124,103.50001,-167.70001,-16.5,,,,,,
736582,0.87747574,9.0756235,-2.3058412,-0.434454,0.121952,-0.49543,98.700005,-165.3,-22.5,,,,,,
736602,0.7596416,8.958985,-2.2394474,-0.503052,0.365856,-0.548784,103.50001,-155.70001,-18.900002,,,,,,
736622,0.18961132,8.914722,-2.469134,-0.35061198,0.602138,-0.518296,105.9,-165.3,-19.5,,,,,,
736642,-0.6053207,8.920106,-2.459564,-0.373478,0.67835796,-0.091464,105.9,-162.90001,-26.1,,,,,,
736662,-2.1150336,9.756908,-2.8351977,-0.70122397,1.478668,1.074702,98.700005,-160.5,-18.900002,,,x,,,
736682,-3.4464998,10.642159,-3.1719522,-0.792688,2.050318,1.242386,96.3,-155.70001,-20.1,,,x,,,
736702,-5.081823,10.940633,-3.2162147,-1.1204339,2.6981878,0.442076,105.9,-153.3,-17.7,,,x,,,
736722,-6.003561,11.997552,-3.9220235,-0.739334,3.140264,1.3414719,98.700005,-170.1,-18.900002,,,x,,,
736742,-8.171231,9.901659,-3.0146406,-2.05794,3.460388,-0.373478,105.9,-162.90001,-15.3,,,x,,,
736766,-7.589836,9.853807,-4.4938483,0.099086,6.0442457,4.26832,96.3,-179.70001,-26.1,,,x,,,
736786,-7.099359,10.352658,-4.33534,-1.928366,3.140264,6.242418,67.5,-170.1,-26.7,,,x,,,
736806,-5.957504,9.255664,-3.8496482,-1.974098,0.57164997,6.204308,60.300003,-162.90001,-20.7,,,x,,,
736828,-4.3114147,8.179007,-2.6306329,-1.79117,-1.783548,5.274424,86.700005,-170.1,-20.1,,,x,,,
736848,-2.7831593,6.086703,-1.3673549,-2.55337,-2.492394,3.1936178,81.9,-174.90001,-26.1,,,x,,,
736868,-1.4140099,3.7132716,-0.31641763,-0.579272,-1.730194,4.618932,69.9,-179.70001,-21.300001,,,x,,,
736891,0.8571389,4.7540402,0.7010236,-0.625004,2.995446,10.914703,43.5,-170.1,-24.900002,,,x,,,
736911,2.43504,4.9011836,0.58976895,-0.503052,4.603688,11.844587,53.100002,-167.70001,-27.300001,,,x,,,
736933,2.823833,5.1727405,0.22191104,0.708846,5.929916,12.111358,45.9,-177.3,-20.7,,,x,,,
736953,4.166664,6.096273,-0.698631,0.69360197,5.823208,11.570196,17.1,-172.5,-22.5,,,x,,,
736973,6.133956,6.4156814,-1.4074304,1.5929979,4.26832,10.754642,2.7,-182.1,-25.500002,,,x,,,
736993,8.027677,7.0491147,-2.5193782,2.2256238,2.393308,10.640312,0.3,-179.70001,-21.300001,,,x,,,
737013,10.810836,8.50978,-2.9482467,1.3490939,-0.655492,12.561056,-18.900002,-172.5,-21.300001,,,x,,,
737033,11.280976,9.422546,-2.484686,-0.426832,-2.2637339,11.562573,-18.900002,-170.1,-23.1,,,x,,,
737053,10.987886,8.275907,-2.4912655,-0.93750596,-2.01983,8.064075,-26.1,-177.3,-27.900002,,,x,,,
737073,12.30081,8.991285,-2.0468452,-0.503052,-1.821658,6.654006,-50.100002,-167.70001,-26.7,,,x,,,
737094,10.698983,8.462526,-2.0558174,-0.95274997,-0.480186,4.5122237,-42.9,-174.90001,-19.5,,,x,,,
737114,10.234226,10.03325,-2.7795703,-0.251526,0.007622,3.338436,-38.100002,-179.70001,-21.900002,,,x,,,
737137,9.893285,9.523034,-2.3901794,-1.1356779,-0.70122397,-0.41921,-35.7,-179.70001,-27.300001,,,x,,,
737157,9.7886095,8.025883,-1.8201491,-1.227142,-0.57164997,-1.150922,-50.100002,-174.90001,-24.300001,,,x,,,
737177,8.862086,8.127566,-2.5779963,-0.525918,0.769822,-0.442076,-40.5,-174.90001,-26.7,,,x,,,
737197,8.823805,9.115699,-2.9476485,0.182928,-0.022866,-1.3414719,-52.500004,-172.5,-21.300001,,,x,,,
737220,7.847038,7.552751,-2.049836,-2.141782,-1.21952,-4.15399,-50.100002,-177.3,-28.500002,,,x,,,
737240,8.787318,7.768681,-1.3506068,-1.56251,-0.853664,-3.1936178,-28.500002,-172.5,-26.7,,,x,,,
737260,8.542678,8.089884,-1.4343468,-1.6311079,1.013726,-2.964958,-35.7,-170.1,-23.1,,,x,,,
737280,7.753129,8.360245,-1.3841028,-1.67684,1.1204339,-3.2774599,-28.500002,-172.5,-28.500002,,,x,,,
737300,7.8883095,7.8673744,-1.2662686,-1.783548,1.539644,-4.618932,-28.500002,-179.70001,-29.1,,,x,,,
737322,8.705373,7.9929843,-0.857737,-1.509156,1.516778,-4.0472817,-33.300003,-170.1,-26.7,,,x,,,
737343,7.384075,7.34699,-1.0946016,-1.71495,2.850628,-3.58234,-18.900002,-172.5,-24.300001,,,x,,,
737363,7.3481865,8.233438,-1.3111295,-0.769822,0.960372,-5.541194,-9.3,-182.1,-24.300001,,,x,,,
737383,7.375103,7.6293135,-0.84996116,-1.06708,0.518296,-6.875044,-16.5,-179.70001,-23.7,,,x,,,
737406,7.71425,7.0323668,-0.6334334,-0.960372,0.221038,-6.082356,-4.5,-179.70001,-29.7,,,x,,,
737427,7.222576,6.769184,-0.5676377,-1.1051899,0.56402797,-4.5884438,5.1000004,-172.5,-21.300001,,,x,,,
737447,6.1883874,7.3039236,-1.0341892,-0.716468,0.82317597,-5.617414,12.3,-172.5,-27.300001,,,x,,,
737467,6.221285,8.067154,-1.4516929,0.586894,-0.57164997,-6.714982,12.3,-172.5,-27.900002,,,x,,,
737487,5.5364113,6.6627145,-0.20396675,0.068598,-1.974098,-9.291218,17.1,-179.70001,-25.500002,,,x,,,
737507,4.526148,5.983224,-0.70939755,0.57164997,-1.6539739,-7.8430376,43.5,-172.5,-24.300001,,,x,,,
737527,3.9513326,6.3325396,-0.6872663,0.327746,-2.6905658,-6.501566,31.500002,-179.70001,-18.900002,,,x,,,
737547,3.2951696,5.843857,-0.5736191,-0.35061198,-2.7744079,-6.13571,31.500002,-177.3,-35.100002,,,x,,,
737570,1.1753509,5.4837747,-0.88943857,0.442076,-2.2256238,-6.303394,43.5,-167.70001,-24.900002,,,x,,,
737590,-0.40613908,5.9126434,-1.3380458,0.754578,-1.67684,-6.394858,41.100002,-194.1,-23.1,,,x,,,
737611,-1.7459793,7.309307,-2.3602722,1.036592,-0.243904,-5.228692,57.9,-177.3,-21.900002,,,x,,,
737631,-2.5181818,8.99607,-2.994902,0.983238,0.358234,-5.114362,62.7,-174.90001,-30.900002,,,x,,,
737651,-2.743682,9.538586,-3.363358,1.493912,0.07622,-5.724122,57.9,-174.90001,-28.500002,,,x,,,
737672,-3.480594,10.132542,-3.276029,0.891774,-1.432936,-5.510706,69.9,-165.3,-27.900002,,,x,,,
737692,-3.957912,9.8239,-2.933293,0.449698,-1.089946,-6.0137577,79.5,-172.5,-23.7,,,x,,,
737712,-3.7718897,10.050596,-3.1934853,0.754578,-0.541162,-5.190582,74.700005,-177.3,-29.7,,,x,,,
737735,-4.073354,10.541074,-3.3143103,0.57164997,-0.731712,-4.4969797,79.5,-167.70001,-29.1,,,x,,,
737755,-3.8382835,10.818612,-3.250907,0.060976,-1.150922,-4.024416,101.100006,-165.3,-20.7,,,x,,,
737777,-2.8764696,10.117588,-2.7538502,-0.586894,-2.126538,-3.3003259,93.9,-155.70001,-32.7,,,x,,,
737797,-2.7502613,9.526025,-2.1832218,-0.708846,-1.44818,-2.6829438,108.3,-153.3,-20.7,,,x,,,
737817,-2.4111142,9.307703,-2.4224792,-0.20579399,0.07622,-1.585376,101.100006,-174.90001,-19.5,,,,,,
737837,-1.8674023,9.318469,-2.5522761,0.022866,0.007622,-0.81555396,103.50001,-162.90001,-27.900002,,,,,,
737859,-1.1137422,9.645654,-2.3949645,0.15244,-0.541162,-0.160062,103.50001,-179.70001,-20.7,,,,,,
737879,-0.6286483,9.508678,-2.2484195,-0.07622,-0.26677,-0.221038,98.700005,-165.3,-20.7,,,,,,
737921,0.32359535,9.731786,-2.6880546,0.33536798,0.26677,0.708846,84.3,-177.3,-26.1,,,,,,
737941,-0.002392572,9.283777,-2.1180243,-0.03811,-0.23628199,0.099086,105.9,-146.1,-26.7,,,,,,
737963,0.4521961,9.524829,-2.6766899,0.198172,0.81555396,0.365856,91.5,-170.1,-23.7,,,,,,
737984,0.33196935,8.941639,-2.5092099,0.34298998,0.617382,-0.106708,98.700005,-167.70001,-24.300001,,,,,,
738026,0.67590153,9.249084,-2.6258476,0.35061198,1.4024479,0.297258,101.100006,-167.70001,-23.7,,,,,,
738046,0.64120924,9.427331,-2.865105,0.663114,1.1051899,0.23628199,96.3,-177.3,-24.900002,,,,,,
738066,0.59694666,9.301722,-2.736504,0.40396598,0.67073596,0.015244,101.100006,-160.5,-21.300001,,,,,,
738090,0.7309307,9.593017,-2.7036061,0.243904,0.327746,-0.022866,98.700005,-155.70001,-21.900002,,,,,,
738111,0.7482768,9.161756,-2.5145931,-0.41921,0.213416,-0.541162,120.3,-170.1,-27.300001,,,,,,
738131,0.7393047,9.064259,-2.4332457,-0.49543,0.137196,-0.46494198,98.700005,-167.70001,-17.7,,,,,,
738151,0.6304427,8.9464245,-2.423077,-0.388722,0.16768399,-0.602138,96.3,-158.1,-24.900002,,,,,,
738173,0.7524639,8.936256,-2.4176939,0.045732,0.015244,-0.57164997,91.5,-165.3,-18.300001,,,,,,
738193,0.8039042,9.240112,-2.2364566,-0.22865999,-0.15244,-0.449698,101.100006,-172.5,-17.1,,,,,,
738213,0.6824811,9.021193,-2.2567935,0.068598,0.56402797,-1.021348,98.700005,-160.5,-22.5,,,,,,
738233,0.6782941,9.086988,-2.4840877,0.26677,0.57164997,-0.91463995,96.3,-170.1,-20.1,,,,,,
738253,0.45638308,8.916517,-2.5474908,0.358234,0.41921,-0.899396,89.100006,-160.5,-21.900002,,,,,,
738273,0.53115094,9.165943,-2.6360161,0.312502,0.106708,-0.26677,108.3,-167.70001,-22.5,,,,,,
738293,0.63223714,9.266431,-2.5421076,0.182928,-0.15244,-0.251526,96.3,-162.90001,-21.300001,,,,,,
738313,0.6041244,9.454247,-2.601922,-0.015244,0.007622,-0.33536798,93.9,-162.90001,-20.7,,,,,,
738333,0.5024401,9.195251,-2.5450983,-0.22865999,-0.40396598,-0.792688,101.100006,-160.5,-15.900001,,,,,,
738353,0.47851437,8.772365,-2.3291688,-0.19055,-0.80030996,-0.731712,115.50001,-155.70001,-22.5,,,,,,
738373,0.8882423,9.251477,-1.9714792,-0.579272,-0.81555396,-0.251526,113.100006,-177.3,-18.900002,,,,,,
738395,0.61070395,9.235926,-1.7872512,-1.1280559,-0.099086,-1.051836,101.100006,-167.70001,-22.5,,,,,,
738415,0.17645217,9.076819,-2.0510323,-1.25763,0.80793196,-1.150922,96.3,-177.3,-17.7,,,,,,
738435,-0.8858497,8.969153,-2.1808293,-1.6006199,0.99086,-1.021348,115.50001,-150.90001,-21.900002,,,,,,
738455,-2.4170957,9.11211,-2.3668518,-1.1051899,2.141782,-0.81555396,113.100006,-162.90001,-26.7,,,x,,,
738475,-3.9046774,10.971138,-3.3663487,0.30488,3.7881339,0.068598,113.100006,-167.70001,-27.300001,,,x,,,
738497,-4.8676877,12.848111,-4.71875,0.640248,4.61131,0.28201398,103.50001,-153.3,-21.900002,,,x,,,
738519,-5.138048,10.698385,-4.5554566,-1.1051899,0.602138,-2.431418,117.9,-167.70001,-24.300001,,,x,,,
738539,-6.3774004,9.024781,-3.2957678,-0.853664,-1.242386,0.49543,103.50001,-167.70001,-25.500002,,,x,,,
738580,-5.773276,9.750329,-3.814956,-0.853664,5.5030837,4.817104,89.100006,-167.70001,-24.300001,,,x,,,
738600,-5.221788,9.056482,-4.100868,-1.3948259,3.079288,5.67839,91.5,-184.5,-24.900002,,,x,,,
738620,-4.4065194,8.362039,-3.2186074,-1.9054999,-0.007622,5.815586,81.9,-174.90001,-25.500002,,,x,,,
738640,-3.317899,7.4235525,-2.234064,-1.3719599,-2.073184,5.045764,81.9,-162.90001,-29.7,,,x,,,
738660,-2.0007882,6.426448,-1.0951998,-1.6082419,-3.871976,3.894842,89.100006,-167.70001,-14.1,,,x,,,
738680,-0.34991363,5.294163,-0.1782466,-0.777444,-2.2484899,2.446662,79.5,-177.3,-19.5,,,x,,,
738700,2.2561953,5.9437466,-0.16688189,0.69360197,-1.699706,5.586926,77.100006,-167.70001,-28.500002,,,x,,,
738720,2.8914232,6.575984,0.033496007,0.41921,-0.830798,7.0655937,74.700005,-174.90001,-29.1,,,x,,,
738740,3.535025,7.460039,-0.7596416,-0.221038,3.003068,8.414688,53.100002,-172.5,-21.900002,,,x,,,
738760,4.080531,7.492937,-1.4020472,-0.640248,2.530504,7.599134,55.500004,-179.70001,-17.7,,,x,,,
738780,4.9562125,7.6077805,-1.6813799,-0.099086,1.737816,9.009204,26.7,-184.5,-17.1,,,x,,,
738803,6.450972,8.54208,-1.4582726,-0.82317597,1.3795819,10.236346,31.500002,-179.70001,-23.7,,,x,,,
738823,6.3983355,7.915824,-1.1574067,-1.1204339,0.82317597,8.26987,14.700001,-177.3,-26.1,,,x,,,
738844,6.8391666,7.6406784,-1.2136321,-0.769822,0.92226195,8.46042,12.3,-172.5,-21.300001,,,x,,,
738865,7.044928,8.682045,-1.4833946,0.07622,1.539644,8.704324,2.7,-179.70001,-26.1,,,x,,,
738885,7.0377502,8.800478,-2.1186223,0.106708,1.3719599,7.16468,-16.5,-177.3,-27.300001,,,x,,,
738905,6.942047,7.7668867,-1.6897539,-0.083841994,-0.144818,5.5335717,-14.1,-182.1,-21.900002,,,x,,,
738925,7.5653124,7.159173,-1.5174887,0.327746,0.602138,5.114362,-14.1,-179.70001,-32.100002,,,x,,,
738945,8.231046,8.848329,-2.075556,1.006104,1.532022,6.181442,-21.300001,-174.90001,-24.300001,,,x,,,
738968,7.774064,8.877638,-2.546893,0.28201398,2.027452,3.8033779,-16.5,-174.90001,-17.1,,,x,,,
738988,7.542583,7.2704277,-2.4027402,0.41921,0.548784,1.417692,-26.1,-177.3,-24.300001,,,x,,,
739009,8.774159,8.6006975,-2.0905097,0.53354,1.097568,3.8033779,-33.300003,-167.70001,-26.7,,,x,,,
739029,8.756215,9.174915,-2.2609804,-0.259148,1.9131219,4.0167937,-33.300003,-177.3,-21.900002,,,x,,,
739051,8.755617,8.954201,-2.4081235,-0.28201398,0.68597996,0.03811,-35.7,-170.1,-27.300001,,,x,,,
739071,8.583352,7.7626996,-1.3518031,-0.17530599,-0.22865999,-1.21952,-35.7,-174.90001,-21.900002,,,x,,,
739091,9.2377205,8.661709,-1.355392,-0.632626,0.80793196,-0.26677,-42.9,-174.90001,-18.300001,,,x,,,
739111,9.176709,9.233533,-1.2919888,-0.625004,0.7622,-0.95274997,-23.7,-165.3,-28.500002,,,x,,,
739131,8.04921,8.074332,-1.0975924,-0.7622,1.082324,-3.422278,-33.300003,-172.5,-21.300001,,,x,,,
739151,7.7214274,7.1974545,-1.2985684,0.312502,-0.243904,-4.298808,-28.500002,-167.70001,-22.5,,,x,,,
739171,9.532006,8.056986,-0.65077955,0.586894,-1.1432999,-2.446662,-23.7,-177.3,-20.1,,,x,,,
739191,8.526528,8.362637,-0.9462622,-0.022866,0.144818,-3.483254,-30.900002,-172.5,-20.7,,,x,,,
739211,7.547966,7.2285576,-1.5790974,0.91463995,-0.739334,-6.112844,-14.1,-174.90001,-26.1,,,x,,,
739231,8.241214,6.552058,-1.631136,1.79117,-2.339954,-6.722604,-14.1,-177.3,-18.300001,,,x,,,
739251,9.022986,7.655632,-1.8291212,1.478668,-2.812518,-5.4421077,-6.9,-177.3,-21.300001,,,x,,,
739271,8.149698,7.3691216,-1.4887779,-0.022866,-2.2332458,-6.9436417,-9.3,-179.70001,-24.300001,,,x,,,
739291,7.0885925,6.774567,-1.5671346,-0.40396598,-1.768304,-8.330846,7.5000005,-177.3,-21.300001,,,x,,,
739311,5.8516326,5.9269986,-1.4564781,-0.34298998,-1.8369019,-9.321706,14.700001,-170.1,-17.7,,,x,,,
739333,4.041054,5.489158,-1.5222739,0.30488,-1.158544,-8.795788,21.900002,-182.1,-23.1,,,x,,,
739353,3.4698274,6.430635,-2.0767524,0.312502,-0.884152,-6.951264,36.300003,-165.3,-21.300001,,,x,,,
739373,2.2394474,5.995187,-2.2867005,-0.41158798,-1.692084,-7.614378,43.5,-182.1,-20.1,,,x,,,
739413,-1.3039516,6.1895833,-2.8633103,1.242386,-1.158544,-6.242418,55.500004,-170.1,-21.900002,,,x,,,
739433,-2.6970267,8.577371,-3.4004428,0.297258,-0.41921,-4.626554,50.7,-165.3,-22.5,,,x,,,
739456,-2.9344895,10.005735,-4.0344744,0.45731997,1.6158639,-5.343022,60.300003,-179.70001,-23.1,,,x,,,
739476,-2.2908876,9.7234125,-4.4621468,-0.11432999,-0.846042,-7.0046177,69.9,-170.1,-30.900002,,,x,,,
739496,-3.6678126,9.504492,-3.4955475,-1.707328,-3.521364,-6.4786997,81.9,-162.90001,-14.700001,,,x,,,
739516,-4.3778086,9.908836,-3.075053,-0.830798,0.099086,-5.739366,86.700005,-162.90001,-24.900002,,,x,,,
739536,-4.561438,9.668383,-3.1653726,-0.55640596,-0.632626,-5.571682,91.5,-160.5,-19.5,,,x,,,
739556,-4.395753,9.909434,-2.9691818,-0.983238,-1.951232,-4.61131,96.3,-162.90001,-17.1,,,x,,,
739576,-4.2414317,10.037437,-1.9302074,-2.179892,-2.2561119,-4.26832,86.700005,-162.90001,-21.300001,,,x,,,
739598,-3.8179467,9.496118,-2.715569,0.274392,1.250008,-3.528986,105.9,-179.70001,-20.7,,,x,,,
739618,-3.1139324,9.7670765,-2.936882,0.434454,-0.769822,-1.3948259,96.3,-170.1,-20.7,,,x,,,
739638,-2.1862125,10.590719,-2.200568,-0.23628199,-2.012208,-0.030488,105.9,-148.5,-24.900002,,,,,,
739658,-1.8680005,10.3287325,-1.9774606,-0.083841994,-0.07622,-1.006104,101.100006,-153.3,-20.1,,,,,,
739678,-1.5581625,9.557727,-2.5803888,0.19055,1.493912,-1.41007,110.700005,-162.90001,-24.300001,,,,,,
739698,-1.3661586,9.152185,-2.8082812,0.26677,0.55640596,-0.868908,103.50001,-158.1,-24.900002,,,,,,
739718,-0.8936256,9.046314,-2.5869684,0.030488,-0.434454,0.068598,103.50001,-174.90001,-25.500002,,,,,,
739738,-0.26138848,8.945229,-2.43504,0.373478,-0.625004,0.46494198,103.50001,-155.70001,-21.900002,,,,,,
739758,0.5538804,9.191663,-2.3746276,0.33536798,-0.40396598,1.074702,105.9,-162.90001,-21.900002,,,,,,
739778,0.6806867,9.170728,-2.2974672,-0.137196,0.053354,0.655492,105.9,-167.70001,-26.1,,,,,,
739798,0.86910176,9.091773,-2.3991516,0.007622,0.72409,0.56402797,93.9,-160.5,-25.500002,,,,,,
739821,0.96958977,9.455444,-2.4194884,-0.26677,0.655492,0.884152,96.3,-170.1,-18.300001,,,,,,
739841,0.9378882,9.450061,-2.4942563,-0.33536798,0.967994,0.46494198,103.50001,-167.70001,-22.5,,,,,,
739864,0.81646514,8.927284,-2.3357482,-0.26677,0.92226195,-0.015244,108.3,-158.1,-21.900002,,,,,,
739884,0.7506694,8.978126,-2.546893,-0.099086,0.830798,0.3811,93.9,-165.3,-26.1,,,,,,
739904,0.6639387,9.101343,-2.5702202,-0.07622,0.480186,0.320124,110.700005,-158.1,-23.1,,,,,,
739927,0.9271216,8.94463,-2.460162,-0.015244,-0.30488,0.274392,93.9,-155.70001,-23.1,,,,,,
739947,1.0916109,9.345386,-2.3800108,-0.251526,-0.41158798,0.289636,93.9,-167.70001,-21.900002,,,,,,
739967,1.0150486,9.18927,-2.39317,-0.503052,-0.030488,-0.320124,89.100006,-170.1,-22.5,,,,,,
739987,1.0413669,8.995472,-2.3794127,-0.640248,-0.16768399,-0.602138,103.50001,-162.90001,-18.300001,,,,,,
740007,0.9977025,8.743055,-2.3734312,-0.541162,-0.022866,-0.708846,105.9,-167.70001,-23.1,,,,,,
740027,0.76502484,8.790309,-2.4147031,-0.289636,0.068598,-0.56402797,108.3,-158.1,-22.5,,,,,,
740047,0.74947315,9.387854,-2.5044246,-0.23628199,-0.22865999,-0.28201398,101.100006,-160.5,-21.900002,,,,,,
740070,0.5610581,9.186279,-2.4864802,-0.373478,-0.19055,-0.731712,105.9,-160.5,-25.500002,,,,,,
740090,-0.21473333,8.782534,-2.3453186,-0.396344,-0.20579399,-1.196654,103.50001,-165.3,-24.900002,,,,,,
740110,-0.9564306,9.368115,-2.8082812,0.198172,0.312502,-0.15244,101.100006,-165.3,-23.1,,,,,,
740130,-1.4217858,10.093662,-2.802898,-0.33536798,-0.129574,0.045732,113.100006,-179.70001,-18.900002,,,,,,
740150,-3.3651524,10.16843,-2.8310106,0.099086,1.29574,-0.327746,108.3,-165.3,-24.300001,,,,,,
740190,-4.157692,11.003438,-3.6791775,-0.23628199,2.408552,0.60976,113.100006,-177.3,-17.1,,,,,,
740210,-4.7839475,9.964464,-3.7790673,-0.121952,0.92988396,0.785066,101.100006,-172.5,-18.900002,,,x,,,
740230,-5.216405,10.01411,-3.585269,-0.510674,-0.297258,3.452766,101.100006,-165.3,-23.7,,,x,,,
740253,-4.155897,10.538083,-3.1121378,-1.326228,-0.41158798,4.64942,105.9,-158.1,-18.300001,,,x,,,
740273,-3.55596,9.74016,-2.8932176,-1.478668,-0.510674,2.7362978,81.9,-167.70001,-20.7,,,x,,,
740313,-1.878169,7.1693416,-2.0133493,0.60976,-3.2850819,-0.72409,98.700005,-177.3,-27.900002,,,x,,,
740333,-0.598143,6.384578,-1.3715419,1.21952,-3.54423,-0.586894,93.9,-174.90001,-18.900002,,,x,,,
740353,0.9767675,6.8912053,-1.1783416,1.539644,-3.079288,0.34298998,98.700005,-162.90001,-15.3,,,x,,,
740373,2.1610906,8.194559,-0.83859646,1.280496,-2.55337,0.87653,91.5,-170.1,-15.900001,,,x,,,
740396,1.3936732,8.134147,-1.7585404,0.853664,-0.518296,-1.417692,93.9,-174.90001,-26.1,,,x,,,
740416,1.1514252,6.9803286,-2.569024,2.355198,-1.303362,-2.2256238,86.700005,-162.90001,-20.7,,,x,,,
740436,1.8709912,7.0054502,-2.0737617,2.545748,-4.778994,-0.548784,89.100006,-162.90001,-16.5,,,x,,,
740456,2.4398253,8.479275,-1.6131916,2.614346,-3.879598,1.326228,84.3,-160.5,-13.500001,,,x,,,
740476,2.5492854,8.071939,-1.8225416,1.5929979,-1.783548,0.56402797,84.3,-172.5,-18.900002,,,x,,,
740496,2.6994193,7.5276294,-2.1150336,1.928366,-0.20579399,1.577754,89.100006,-165.3,-16.5,,,x,,,
740539,3.5774932,8.923097,-3.2628698,1.989342,3.2698379,4.093014,81.9,-155.70001,-26.1,,,x,,,
740559,3.6719997,8.766383,-3.576895,1.44818,3.635694,3.2317278,77.100006,-170.1,-23.7,,,x,,,
740580,4.0057635,8.4714985,-4.0984755,1.958854,4.291186,2.59148,60.300003,-158.1,-15.900001,,,x,,,
740600,4.757031,8.916517,-4.527942,1.509156,2.118916,3.330814,65.100006,-167.70001,-18.900002,,,x,,,
740622,5.170946,9.597204,-3.9674823,0.83842,1.166166,3.1783738,77.100006,-172.5,-20.1,,,x,,,
740642,5.121898,9.587634,-3.8514426,-0.221038,0.739334,1.8597679,57.9,-167.70001,-14.700001,,,x,,,
740664,5.01184,9.07024,-3.8227317,0.07622,0.769822,0.899396,65.100006,-170.1,-21.900002,,,x,,,
740726,5.9006805,10.1774025,-4.166664,-0.617382,0.007622,0.967994,57.9,-158.1,-18.300001,,,x,,,
740746,5.737387,9.487743,-3.899892,-0.82317597,-0.70122397,0.099086,53.100002,-170.1,-13.500001,,,x,,,
740766,6.8343816,10.312583,-4.150514,-0.81555396,-0.251526,1.173788,45.9,-172.5,-11.700001,,,x,,,
740786,7.229156,9.771862,-4.1594863,-1.6006199,-1.021348,0.3811,53.100002,-174.90001,-19.5,,,x,,,
740806,7.170538,9.737767,-3.953725,-1.265252,-1.6387299,0.388722,67.5,-174.90001,-19.5,,,x,,,
740827,6.6926217,9.845433,-4.13257,-1.3567159,-1.417692,-0.716468,60.300003,-160.5,-17.1,,,x,,,
740847,7.6329026,10.566793,-4.4944463,-1.059458,-1.56251,-1.67684,57.9,-177.3,-18.300001,,,x,,,
740867,8.289663,9.67257,-3.5942411,-2.995446,-3.117398,-3.018312,60.300003,-172.5,-23.1,,,x,,,
740887,6.8541203,8.864479,-2.7574391,-2.408552,-1.951232,-3.528986,67.5,-162.90001,-18.300001,,,x,,,
740907,6.2661457,9.241907,-3.2156167,-2.538126,-0.525918,-4.76375,60.300003,-167.70001,-22.5,,,x,,,
740931,5.3402205,7.7824383,-1.9469553,-3.033556,-1.204276,-7.3171196,86.700005,-174.90001,-23.1,,,x,,,
740951,4.1056533,6.421065,-1.2495207,-2.6905658,-0.312502,-7.3933396,91.5,-165.3,-24.300001,,,x,,,
740971,2.9835372,6.183602,-0.80091345,-1.94361,0.426832,-5.0838737,89.100006,-165.3,-27.300001,,,x,,,
741035,0.3295768,5.117711,-1.1101533,-0.297258,2.865872,-3.46801,103.50001,-158.1,-23.1,,,x,,,
741055,-1.7035112,5.4933453,-1.8470654,1.166166,4.024416,-1.928366,101.100006,-160.5,-26.1,,,x,,,
741075,-2.631829,7.5742846,-2.8914232,2.080806,4.0777698,0.45731997,105.9,-158.1,-25.500002,,,x,,,
741095,-2.60252,8.879433,-3.2431312,0.625004,1.966476,0.251526,101.100006,-167.70001,-17.7,,,x,,,
741115,-2.8005054,8.129959,-2.5337336,0.137196,0.602138,-1.1051899,101.100006,-165.3,-20.1,,,x,,,
741137,-3.271842,8.791506,-2.669512,-0.11432999,1.6234859,-0.46494198,105.9,-165.3,-30.300001,,,x,,,
741157,-4.118214,9.724608,-2.9147508,-0.708846,2.507638,-1.173788,93.9,-174.90001,-23.7,,,x,,,
741181,-4.082924,10.756405,-3.8646019,-1.173788,2.347576,-2.6829438,103.50001,-172.5,-17.7,,,x,,,
741201,-4.264161,9.71145,-3.576895,-1.585376,-0.17530599,-3.955818,98.700005,-165.3,-18.900002,,,x,,,
741221,-4.4184823,9.601989,-2.9691818,-1.5929979,-1.204276,-3.033556,101.100006,-160.5,-23.1,,,x,,,
741241,-4.447193,10.124168,-2.7048025,-1.570132,0.137196,-2.2789779,110.700005,-162.90001,-17.1,,,x,,,
741262,-4.140944,10.091868,-3.1839151,-1.6158639,0.80030996,-2.492394,108.3,-160.5,-23.1,,,x,,,
741282,-3.7168605,9.579858,-3.0983806,-1.074702,-0.754578,-2.179892,113.100006,-162.90001,-16.5,,,x,,,
741302,-3.1067545,9.3459835,-2.5116024,-0.82317597,-1.532022,-1.471046,113.100006,-162.90001,-24.900002,,,x,,,
741362,-1.1514252,9.283777,-2.24184,-0.632626,0.289636,0.030488,129.90001,-153.3,-24.900002,,,x,,,
741410,0.12142302,10.03983,-2.8130665,0.297258,-0.243904,0.731712,117.9,-155.70001,-23.1,,,,,,
741513,0.07058087,9.331629,-3.1486247,-0.129574,0.396344,-0.579272,117.9,-172.5,-24.300001,,,,,,
741533,0.26497734,8.643166,-2.9643965,-0.022866,-0.891774,-0.510674,110.700005,-167.70001,-25.500002,,,,,,
741576,0.3786245,9.473987,-2.815459,-0.16768399,0.69360197,-0.053354,113.100006,-155.70001,-20.7,,,,,,
741596,0.2673699,9.284375,-2.7604299,-0.144818,0.297258,-0.64787,113.100006,-155.70001,-20.7,,,,,,
741616,0.43544808,8.574978,-2.4715269,-0.030488,0.259148,-0.739334,113.100006,-165.3,-26.7,,,,,,
741636,0.59036714,8.894984,-2.2819154,0.053354,0.289636,-0.160062,110.700005,-158.1,-25.500002,,,,,,
741657,0.4175038,9.13783,-2.5971367,0.083841994,1.288118,-0.22865999,110.700005,-165.3,-23.7,,,,,,
741698,-0.14295617,8.625221,-2.7496634,0.07622,0.487808,-0.769822,113.100006,-165.3,-17.7,,,,,,
741718,-0.59754485,8.369815,-2.5750055,0.144818,0.442076,-0.46494198,113.100006,-172.5,-21.900002,,,,,,
741741,-1.9708811,8.93506,-2.8292162,-0.11432999,1.18141,0.022866,120.3,-153.3,-23.1,,,,,,
741761,-2.8645067,10.237217,-3.7048976,0.45731997,2.2561119,0.47256398,122.700005,-162.90001,-16.5,,,,,,
741805,-7.2100153,10.94482,-3.8340964,-0.327746,4.748506,-1.8597679,122.700005,-165.3,-22.5,,,,,,
741825,-7.6586227,11.182282,-5.915634,2.538126,8.864386,-1.173788,132.3,-153.3,-16.5,,,,,,
741845,-7.618547,11.395222,-6.8882146,0.30488,3.2774599,0.67073596,125.100006,-158.1,-21.300001,,,,,,
741865,-8.225064,10.579354,-5.2193956,-3.08691,-3.0488,1.8292799,122.700005,-174.90001,-19.5,,,,,,
741886,-7.312896,9.204823,-3.7060938,-3.0488,-3.7728899,2.2408679,115.50001,-162.90001,-13.500001,,,x,,,
741906,-5.907858,8.262149,-2.56065,-2.7972739,-3.6661818,2.027452,117.9,-162.90001,-18.900002,,,x,,,
741927,-4.5494757,7.158575,-1.6849687,-2.301844,-2.423796,0.60976,110.700005,-162.90001,-21.300001,,,x,,,
741948,-3.2532997,6.2858844,-1.4134119,-1.280496,-2.560992,-0.068598,122.700005,-155.70001,-27.300001,,,x,,,
741968,-2.141352,5.380894,-0.5556748,-0.80793196,-2.576236,-0.137196,110.700005,-170.1,-24.900002,,,x,,,
741988,-0.51859,5.233153,-0.31103435,-0.396344,-1.158544,1.326228,101.100006,-162.90001,-17.7,,,x,,,
742008,0.652574,6.0268884,-0.31103435,-0.289636,-0.099086,3.1783738,108.3,-165.3,-30.300001,,,x,,,
742028,2.577398,6.697407,-0.6782941,-0.853664,1.699706,4.5884438,98.700005,-160.5,-20.1,,,x,,,
742048,3.3663487,6.611872,-0.8039042,-0.56402797,1.44818,5.480218,103.50001,-172.5,-24.300001,,,x,,,
742069,3.9309957,6.4330277,-0.30565107,-0.95274997,1.06708,7.271388,96.3,-170.1,-23.7,,,x,,,
742089,4.7504516,7.7471476,-1.1974822,0.11432999,3.612828,8.658592,98.700005,-160.5,-26.1,,,x,,,
742110,5.601011,9.27301,-2.7293265,1.272874,3.483254,8.102186,77.100006,-170.1,-24.900002,,,x,,,
742130,6.3732133,9.940538,-2.5821831,1.082324,-0.015244,7.5000477,69.9,-177.3,-24.900002,,,x,,,
742150,6.845148,9.816723,-1.7130815,-0.053354,-1.089946,6.0899777,65.100006,-167.70001,-20.1,,,x,,,
742170,7.18908,9.190467,-2.0647895,0.289636,0.30488,5.000032,62.7,-174.90001,-26.1,,,x,,,
742230,6.8218207,9.475183,-2.4176939,1.3490939,0.23628199,3.368924,55.500004,-179.70001,-23.7,,,x,,,
742250,6.709968,9.462024,-2.7759814,1.158544,0.182928,1.8292799,50.7,-182.1,-21.900002,,,x,,,
742273,6.590339,9.2054205,-3.2897863,0.899396,0.53354,0.67073596,50.7,-184.5,-27.300001,,,x,,,
742293,6.4282427,9.361536,-3.9638934,2.2561119,0.792688,0.93750596,36.300003,-174.90001,-16.5,,,x,,,
742313,6.0143275,9.775451,-3.9148457,1.242386,-1.089946,-0.19055,43.5,-179.70001,-15.3,,,x,,,
742334,7.056891,10.066148,-4.066176,0.769822,-0.82317597,-0.40396598,41.100002,-172.5,-22.5,,,x,,,
742354,7.1173034,9.91422,-3.3866856,-0.594516,-1.501534,-0.49543,38.7,-177.3,-21.900002,,,x,,,
742376,6.308016,9.621728,-3.4303498,-1.1204339,0.442076,-1.41007,41.100002,-184.5,-21.300001,,,x,,,
742396,6.3678303,9.209607,-3.677383,-0.754578,-0.548784,-3.92533,48.300003,-174.90001,-18.900002,,,x,,,
742416,7.0090394,9.053492,-3.0600994,-0.95274997,-0.95274997,-3.475632,48.300003,-170.1,-21.900002,,,x,,,
742437,7.1029477,9.871752,-2.4960506,-1.920744,-0.259148,-1.3719599,43.5,-177.3,-25.500002,,,x,,,
742457,6.59333,10.045213,-2.9602096,-2.2180018,1.8369019,-1.821658,53.100002,-174.90001,-25.500002,,,x,,,
742477,5.744565,8.8602915,-2.7460744,-2.050318,0.769822,-3.971062,45.9,-165.3,-20.1,,,x,,,
742497,6.2260704,8.984107,-2.7556446,-0.525918,0.274392,-3.2164838,62.7,-177.3,-20.1,,,x,,,
742520,6.1722374,8.830983,-2.3530943,-2.2180018,-0.30488,-2.827762,72.3,-167.70001,-26.7,,,x,,,
742540,5.6668067,8.153287,-2.020527,-2.59148,-0.95274997,-3.071666,57.9,-174.90001,-20.7,,,x,,,
742560,5.176329,7.5252366,-1.7124833,-2.637212,-1.082324,-3.437522,60.300003,-170.1,-21.900002,,,x,,,
742582,4.2157116,7.1926694,-1.5497885,-1.8673899,-1.013726,-2.118916,69.9,-179.70001,-23.1,,,x,,,
742602,3.3053381,6.204537,-1.284213,-2.2103798,-1.3872039,-2.042696,60.300003,-182.1,-22.5,,,x,,,
742622,2.217316,5.617161,-1.2626798,-1.6082419,-1.1432999,-1.684462,77.100006,-165.3,-17.1,,,x,,,
742642,0.1016843,5.5806737,-1.2925869,-1.044214,-1.150922,-2.195136,74.700005,-170.1,-29.1,,,x,,,
742662,-1.2405485,6.8924017,-2.1784368,-0.030488,-0.45731997,-2.347576,74.700005,-172.5,-23.7,,,x,,,
742682,-1.4833946,8.137137,-2.1383612,-0.41158798,-2.416174,-3.132642,84.3,-165.3,-21.300001,,,x,,,
742702,-2.2681582,8.662905,-1.4552819,-1.6158639,-2.393308,-4.428382,86.700005,-167.70001,-27.300001,,,x,,,
742722,-3.7742822,8.346487,-2.3859923,-0.365856,1.56251,-5.251558,93.9,-179.70001,-24.300001,,,x,,,
742742,-4.0853167,9.219177,-3.1312785,-0.320124,0.198172,-4.146368,91.5,-155.70001,-21.900002,,,x,,,
742762,-3.9178364,9.478771,-2.5253596,-0.7622,-1.783548,-3.940574,115.50001,-177.3,-18.900002,,,x,,,
742782,-4.015932,9.337011,-1.9977975,-0.708846,-0.16768399,-3.986306,105.9,-167.70001,-24.300001,,,x,,,
742802,-4.205543,9.524829,-2.665923,-0.830798,1.4024479,-3.6738038,96.3,-167.70001,-29.7,,,,,,
742822,-4.14214,9.706066,-2.7789721,-0.579272,0.525918,-3.35368,110.700005,-170.1,-20.1,,,,,,
742842,-3.877761,9.713841,-2.280121,-0.297258,0.20579399,-2.637212,101.100006,-158.1,-30.900002,,,,,,
742886,-3.4040318,9.459631,-2.4003477,-0.55640596,1.806414,-1.547266,122.700005,-158.1,-23.1,,,,,,
742906,-2.9649947,9.9937725,-2.275934,-0.091464,1.089946,-0.99086,113.100006,-172.5,-25.500002,,,,,,
742926,-2.5038264,9.608569,-2.263971,-0.053354,1.074702,-0.92226195,110.700005,-162.90001,-27.300001,,,,,,
742946,-2.0737617,9.025379,-2.179633,0.068598,0.69360197,-0.49543,113.100006,-160.5,-30.900002,,,,,,
742969,-1.3033535,9.347778,-2.1473334,0.67835796,0.17530599,0.259148,115.50001,-165.3,-24.900002,,,,,,
742990,-0.799119,9.62113,-2.4553769,0.754578,0.3811,0.396344,103.50001,-170.1,-19.5,,,,,,
743011,-0.3828115,9.557727,-2.4093199,0.434454,-0.060976,0.129574,113.100006,-172.5,-30.300001,,,,,,
743031,0.12919888,9.87235,-2.4428158,0.365856,-0.121952,0.068598,103.50001,-167.70001,-18.300001,,,,,,
743095,0.23686461,8.936256,-2.405731,0.11432999,0.632626,-0.45731997,127.50001,-165.3,-21.900002,,,,,,
743130,0.614891,9.381872,-2.3333557,-1.051836,1.074702,-0.030488,101.100006,-165.3,-26.7,,,,,,
743150,0.47073853,8.887208,-2.5636408,-0.480186,0.998482,-0.49543,115.50001,-170.1,-24.900002,,,,,,
743193,0.7716044,9.354358,-2.1915958,-0.160062,0.320124,-0.099086,113.100006,-167.70001,-23.1,,,,,,
743213,0.4312611,8.893787,-2.2101383,-0.480186,0.57164997,-0.80793196,117.9,-155.70001,-20.7,,,,,,
743233,0.4426258,8.96736,-2.2209048,-0.388722,0.449698,-0.663114,105.9,-155.70001,-21.900002,,,,,,
743253,0.0891233,8.714943,-2.1371648,-0.426832,0.213416,-0.708846,110.700005,-153.3,-26.7,,,,,,
743273,-0.3295768,8.81603,-2.1981754,-0.137196,0.182928,-0.28201398,115.50001,-170.1,-23.1,,,,,,
743295,-1.0940034,9.710851,-2.1449406,-0.213416,0.198172,0.03811,110.700005,-158.1,-24.300001,,,x,,,
743315,-3.2610755,9.865172,-2.4081235,-0.55640596,1.3490939,-0.434454,113.100006,-170.1,-30.900002,,,x,,,
743336,-5.805576,12.592106,-4.3736215,0.967994,3.7195358,0.884152,105.9,-160.5,-25.500002,,,x,,,
743356,-7.5078907,12.078899,-4.3778086,0.26677,1.547266,-1.3719599,110.700005,-146.1,-21.900002,,,x,,,
743376,-7.160968,11.084785,-4.6822634,0.53354,-0.67073596,0.327746,115.50001,-162.90001,-22.5,,,x,,,
743396,-7.1729307,10.398117,-3.1952798,-1.661596,-3.445144,1.98172,105.9,-167.70001,-29.1,,,x,,,
743416,-6.4437943,10.072129,-2.820244,-1.71495,-1.150922,2.812518,108.3,-158.1,-19.5,,,x,,,
743436,-5.493943,8.766981,-2.8172534,-1.775926,-1.814036,1.6158639,108.3,-165.3,-22.5,,,x,,,
743456,-4.7378902,7.029376,-1.8380934,-0.769822,-4.4055157,0.594516,108.3,-167.70001,-26.7,,,x,,,
743476,-3.075053,6.7590156,-0.6890607,-0.053354,-4.9314337,1.3490939,110.700005,-165.3,-20.1,,,x,,,
743497,-1.8709912,6.1351523,0.079553016,0.243904,-2.85825,0.82317597,117.9,-165.3,-21.900002,,,x,,,
743517,-0.5915634,6.062777,-0.14175989,1.1280559,-0.594516,0.792688,101.100006,-172.5,-30.300001,,,x,,,
743539,0.3702505,6.384578,-0.021533147,1.1051899,0.137196,0.87653,96.3,-167.70001,-25.500002,,,x,,,
743559,1.3189052,6.5412917,-0.20695747,1.036592,2.36282,1.051836,101.100006,-167.70001,-19.5,,,x,,,
743579,1.9589182,6.6621165,-0.916355,0.40396598,3.437522,0.92226195,108.3,-170.1,-23.1,,,x,,,
743599,3.2096353,6.6483593,-1.4702355,1.821658,3.589962,2.149404,103.50001,-170.1,-25.500002,,,x,,,
743619,4.301844,7.26325,-1.4229821,1.3643379,2.088428,3.955818,96.3,-167.70001,-21.300001,,,x,,,
743642,5.1524034,7.618547,-1.7609329,1.56251,2.980202,5.129606,86.700005,-165.3,-23.1,,,x,,,
743663,5.7834444,9.555334,-2.4733212,1.8978779,3.08691,6.0747337,86.700005,-160.5,-20.7,,,x,,,
743683,5.5023174,10.584738,-2.7903368,1.326228,1.8521459,4.26832,79.5,-179.70001,-21.900002,,,x,,,
743726,5.0878043,9.069044,-2.4745176,1.5244,-0.091464,0.830798,77.100006,-158.1,-18.900002,,,x,,,
743746,4.956811,9.572082,-2.548089,1.798792,-0.327746,0.82317597,79.5,-165.3,-20.1,,,x,,,
743790,4.075746,9.228149,-3.0571086,2.13416,0.64787,-0.708846,55.500004,-179.70001,-21.300001,,,x,,,
743811,4.149916,9.959679,-3.9585102,3.346058,1.440558,-0.602138,69.9,-174.90001,-21.300001,,,x,,,
743831,3.908266,9.963267,-4.463941,3.35368,0.83842,-0.541162,79.5,-170.1,-26.1,,,x,,,
743853,4.421473,10.947811,-3.9417622,0.95274997,0.53354,0.327746,65.100006,-160.5,-21.900002,,,x,,,
743873,4.021315,10.679843,-4.508802,-0.274392,2.6905658,-1.051836,69.9,-172.5,-16.5,,,x,,,
743893,3.8251243,9.686327,-4.9209223,0.0,2.911604,-1.463424,79.5,-158.1,-15.3,,,x,,,
743913,3.6175687,9.8101425,-5.3288555,0.28201398,1.996964,-0.320124,67.5,-162.90001,-15.900001,,,x,,,
743957,4.0643816,10.712143,-4.166664,-1.196654,0.007622,-0.365856,86.700005,-165.3,-14.700001,,,x,,,
743977,4.053615,9.370508,-4.0930924,-1.768304,0.579272,-1.006104,77.100006,-162.90001,-19.5,,,x,,,
743997,4.2013564,8.829188,-3.8137596,-1.173788,-0.007622,-0.22865999,81.9,-170.1,-16.5,,,x,,,
744017,4.8635006,10.149888,-4.057204,-0.81555396,-0.121952,0.80793196,79.5,-170.1,-21.300001,,,x,,,
744037,5.204442,9.753918,-3.5942411,-1.75306,-0.716468,0.617382,72.3,-179.70001,-20.1,,,x,,,
744057,5.4407086,9.445275,-3.0272017,-2.614346,-0.82317597,0.518296,79.5,-165.3,-15.3,,,x,,,
744077,5.529832,9.290357,-3.2078407,-2.43904,-0.11432999,-0.07622,67.5,-177.3,-15.3,,,x,,,
744097,5.3097153,7.945731,-3.0218184,-2.888738,-0.64787,-0.998482,77.100006,-165.3,-25.500002,,,x,,,
744117,5.9293914,9.90764,-3.4704256,-1.432936,-0.92988396,0.35061198,72.3,-182.1,-18.300001,,,x,,,
744157,5.138048,8.037247,-2.569024,-2.926848,-2.621968,-1.166166,74.700005,-172.5,-17.7,,,x,,,
744177,4.697217,7.6197433,-2.225092,-3.445144,-2.606724,-0.777444,79.5,-172.5,-14.700001,,,x,,,
744199,4.391566,7.7561197,-1.790242,-3.7805119,-2.43904,-0.15244,79.5,-172.5,-21.900002,,,x,,,
744219,3.7922266,7.61436,-1.4158044,-3.96344,-1.798792,-0.785066,84.3,-172.5,-18.300001,,,x,,,
744239,2.8519456,6.700996,-1.0204319,-3.864354,-1.1280559,-1.722572,72.3,-174.90001,-28.500002,,,x,,,
744259,1.8183546,6.508394,-0.9061866,-2.926848,0.007622,-1.67684,74.700005,-160.5,-27.900002,,,x,,,
744279,0.7973246,7.3404107,-1.2202116,-2.073184,1.02897,-1.760682,84.3,-172.5,-30.900002,,,x,,,
744299,-0.44621465,7.4660206,-1.393075,-1.5244,1.280496,-2.881116,86.700005,-174.90001,-23.7,,,x,,,
744319,-1.4947593,7.922404,-1.6622393,-0.67835796,1.166166,-2.62959,81.9,-165.3,-19.5,,,x,,,
744383,-2.0031807,8.315384,-1.3476161,-1.3795819,1.547266,-2.812518,96.3,-160.5,-26.7,,,x,,,
744403,-2.6880546,9.026576,-1.9325999,-1.3567159,2.606724,-2.431418,113.100006,-174.90001,-28.500002,,,x,,,
744423,-2.9105637,8.85431,-2.2484195,-1.166166,1.48629,-2.621968,103.50001,-165.3,-26.7,,,x,,,
744443,-3.0397625,9.088782,-1.8596265,-0.586894,0.20579399,-1.958854,113.100006,-158.1,-23.1,,,x,,,
744463,-3.770095,9.577465,-2.0438545,-0.731712,0.67835796,-1.775926,105.9,-174.90001,-29.7,,,x,,,
744483,-3.5433989,10.090672,-2.388983,-0.243904,-0.17530599,-1.661596,101.100006,-165.3,-24.900002,,,x,,,
744503,-3.1569986,10.645748,-1.8949169,-0.49543,-1.265252,-1.501534,105.9,-162.90001,-27.900002,,,x,,,
744523,-3.1641762,9.917211,-1.8153639,-0.960372,0.121952,-1.974098,120.3,-160.5,-24.300001,,,x,,,
744543,-3.016435,9.383667,-2.2615786,-0.26677,0.274392,-1.3490939,110.700005,-160.5,-28.500002,,,x,,,
744563,-2.694036,9.924986,-2.1455388,0.30488,-0.45731997,-0.57164997,105.9,-162.90001,-33.300003,,,x,,,
744583,-2.3022523,10.450156,-2.2693543,0.503052,-0.22865999,-0.579272,115.50001,-162.90001,-33.9,,,x,,,
744606,-2.2567935,9.801769,-2.476312,0.373478,-0.243904,-1.18141,129.90001,-172.5,-21.300001,,,x,,,
744626,-1.7429886,8.990687,-2.4362364,0.769822,-1.150922,-0.853664,113.100006,-165.3,-26.7,,,,,,
744648,-0.8906349,9.272412,-1.9571238,0.967994,-1.8597679,0.46494198,110.700005,-165.3,-32.7,,,,,,
744668,-0.80091345,10.195347,-1.9882272,0.846042,-0.602138,0.92988396,113.100006,-158.1,-23.7,,,,,,
744690,-0.5239732,9.228149,-2.5373225,1.417692,-0.022866,0.045732,93.9,-155.70001,-18.900002,,,,,,
744710,-0.24583676,9.422546,-2.0946968,1.280496,-1.036592,1.074702,113.100006,-165.3,-33.300003,,,,,,
744730,-0.026318291,10.0476055,-2.0761542,0.884152,-0.091464,1.18141,108.3,-162.90001,-27.900002,,,,,,
744750,0.1309933,10.195945,-2.3949645,0.67073596,0.274392,0.41921,113.100006,-165.3,-23.1,,,,,,
744770,0.15133017,9.626513,-2.2364566,0.259148,-0.160062,-0.41158798,108.3,-162.90001,-22.5,,,,,,
744790,0.25002375,9.348376,-2.2077458,-0.030488,0.106708,-0.548784,117.9,-158.1,-30.900002,,,,,,
744810,0.55208594,9.4757805,-2.1682682,-0.41921,0.03811,-0.23628199,110.700005,-158.1,-21.900002,,,,,,
744833,0.47372922,9.185083,-2.0067697,-0.861286,0.30488,-0.480186,108.3,-167.70001,-24.900002,,,,,,
744873,0.5873764,8.911134,-1.8817577,-0.69360197,-0.274392,-0.899396,98.700005,-162.90001,-29.7,,,,,,
744893,0.5090197,8.475686,-1.795027,-0.777444,0.17530599,-1.1280559,117.9,-158.1,-25.500002,,,,,,
744913,0.18362989,8.381778,-1.9607127,-0.442076,0.274392,-1.234764,120.3,-155.70001,-23.1,,,,,,
744933,-0.25959405,8.150894,-1.8039992,-0.198172,-0.26677,-1.013726,105.9,-158.1,-25.500002,,,,,,
744953,-1.2429411,8.543276,-2.0785468,0.137196,0.198172,-0.518296,113.100006,-155.70001,-29.7,,,,,,
744973,-3.2060463,7.724418,-2.3333557,1.006104,0.69360197,-0.87653,115.50001,-158.1,-22.5,,,x,,,
744993,-4.9185295,11.09316,-3.3143103,2.652456,1.67684,2.568614,108.3,-165.3,-21.900002,,,x,,,
745013,-6.96059,14.257934,-3.9274068,0.099086,3.513742,1.3567159,115.50001,-160.5,-20.7,,,x,,,
745033,-8.7412615,12.297221,-4.5171757,0.487808,6.577786,-3.589962,113.100006,-158.1,-22.5,,,x,,,
745053,-7.55634,11.098543,-6.555647,1.71495,3.894842,-0.442076,115.50001,-155.70001,-19.5,,,x,,,
745073,-8.170034,10.495016,-4.3078256,-2.073184,-2.873494,3.147886,108.3,-170.1,-16.5,,,x,,,
745093,-6.868476,9.826293,-3.4608552,-1.074702,-0.365856,5.320156,120.3,-162.90001,-29.7,,,x,,,
745113,-5.62374,9.120484,-3.1031656,-1.471046,-0.92988396,5.045764,108.3,-167.70001,-25.500002,,,x,,,
745133,-4.101466,7.957096,-2.213129,-1.074702,-2.812518,2.903982,101.100006,-167.70001,-21.300001,,,x,,,
745153,-2.7131765,6.343306,-1.1747528,0.121952,-3.84911,0.731712,110.700005,-165.3,-23.1,,,x,,,
745173,-1.1520233,5.5705056,-0.56703955,0.868908,-3.589962,1.3795819,98.700005,-174.90001,-29.7,,,x,,,
745196,0.95463616,6.1279745,-0.3505118,0.83842,-0.632626,2.942092,98.700005,-170.1,-23.7,,,x,,,
745216,1.9206371,6.7045846,-0.1961909,0.144818,-0.07622,3.910086,108.3,-177.3,-16.5,,,x,,,
745240,2.4804988,6.7638006,-0.5413194,-0.56402797,0.792688,4.397894,74.700005,-179.70001,-26.1,,,x,,,
745261,3.2449257,5.013634,-0.5544785,0.3811,0.373478,5.198204,77.100006,-174.90001,-28.500002,,,x,,,
745281,4.99569,5.627329,-0.794932,2.40093,-0.87653,9.474146,69.9,-167.70001,-21.300001,,,x,,,
745301,5.1230946,7.4875536,-1.1065645,2.7362978,0.708846,10.876594,65.100006,-167.70001,-18.300001,,,x,,,
745321,5.8516326,8.694606,-3.7306178,5.343022,0.442076,8.239382,41.100002,-170.1,-24.900002,,,x,,,
745341,6.2051353,8.359646,-3.5960355,5.0381417,-2.088428,7.4848037,48.300003,-170.1,-27.900002,,,x,,,
745361,7.207623,8.586343,-2.765813,3.39179,-4.093014,7.370474,36.300003,-177.3,-19.5,,,x,,,
745381,7.1017513,9.033753,-3.1653726,2.888738,-0.983238,5.625036,43.5,-170.1,-24.300001,,,x,,,
745401,6.149508,9.045118,-3.614578,2.2332458,-0.83842,2.949714,26.7,-179.70001,-24.900002,,,x,,,
745421,5.9383636,8.344692,-3.383695,1.94361,-1.013726,1.089946,12.3,-172.5,-17.1,,,x,,,
745461,5.8659883,8.913527,-3.5284455,2.2789779,0.40396598,1.013726,21.900002,-179.70001,-15.3,,,x,,,
745485,5.869577,9.257459,-4.3317513,1.67684,1.8978779,0.785066,26.7,-172.5,-19.5,,,x,,,
745505,6.291268,9.362732,-4.16786,1.1204339,0.640248,0.426832,26.7,-170.1,-17.7,,,x,,,
745565,6.4808793,9.777843,-4.358668,-0.373478,-0.20579399,0.503052,24.300001,-177.3,-20.1,,,x,,,
745594,7.253082,9.34718,-4.1618786,-0.998482,-0.07622,-0.716468,29.1,-184.5,-9.900001,,,x,,,
745615,7.920609,9.078614,-3.7832544,-0.64787,-0.015244,0.007622,7.5000005,-170.1,-18.300001,,,x,,,
745655,7.4355154,10.698385,-4.978942,-0.99086,0.891774,-2.408552,17.1,-174.90001,-20.1,,,x,,,
745695,8.487649,8.715541,-2.774187,-2.004586,-1.798792,-2.62959,21.900002,-170.1,-14.700001,,,x,,,
745715,7.2560725,8.853712,-3.5302398,-2.17227,1.417692,-2.126538,21.900002,-170.1,-17.7,,,x,,,
745738,6.743464,9.3782835,-4.434034,-0.94512796,0.67073596,-3.7728899,24.300001,-167.70001,-17.1,,,x,,,
745779,6.296651,8.080912,-3.3184972,-1.783548,-1.8673899,-6.6311398,43.5,-167.70001,-15.900001,,,x,,,
745799,5.367137,6.78653,-2.4631526,-3.102154,-2.43904,-6.196686,48.300003,-162.90001,-23.1,,,x,,,
745822,4.765405,6.8373723,-1.9469553,-3.2774599,-0.586894,-4.641798,55.500004,-167.70001,-24.300001,,,x,,,
745842,4.015932,7.0861998,-2.0940986,-3.414656,0.663114,-5.5183277,43.5,-177.3,-21.300001,,,x,,,
745866,2.874675,5.836081,-1.4271691,-2.7515419,0.72409,-6.714982,62.7,-170.1,-21.300001,,,x,,,
745886,1.908076,6.003561,-1.4158044,-1.8750119,1.745438,-6.196686,77.100006,-162.90001,-18.300001,,,x,,,
745907,0.42827037,5.6135716,-1.5240682,-1.463424,1.48629,-6.0976,81.9,-167.70001,-16.5,,,x,,,
745927,-0.698631,6.4120927,-1.7932327,-0.746956,1.6158639,-4.771372,86.700005,-160.5,-18.300001,,,x,,,
745947,-0.89841074,7.3643365,-2.262775,-0.525918,1.150922,-4.4817357,81.9,-170.1,-20.7,,,x,,,
745967,-1.3326626,6.4778886,-1.957722,-0.899396,0.396344,-4.939056,98.700005,-172.5,-18.300001,,,x,,,
745989,-2.1174262,6.6202464,-1.9343944,-0.663114,0.34298998,-3.574718,96.3,-160.5,-19.5,,,x,,,
746009,-2.451788,8.421255,-2.2878969,-0.60976,0.80793196,-2.6677,101.100006,-160.5,-17.7,,,x,,,
746029,-2.7394948,8.689821,-2.4123106,-1.150922,0.93750596,-4.169234,91.5,-160.5,-26.1,,,x,,,
746049,-3.338834,7.818327,-2.372235,-0.95274997,1.29574,-4.748506,108.3,-153.3,-20.1,,,x,,,
746070,-3.9309957,8.868068,-2.77,-0.312502,1.684462,-3.7271578,113.100006,-155.70001,-17.1,,,x,,,
746090,-4.3610606,9.752123,-2.9279099,-0.388722,1.669218,-3.597584,101.100006,-153.3,-20.1,,,x,,,
746110,-4.6876464,9.704271,-3.1282878,-0.365856,2.2256238,-3.8109999,120.3,-160.5,-16.5,,,x,,,
746133,-4.725928,9.879527,-3.313114,-0.17530599,0.99086,-3.399412,125.100006,-148.5,-18.300001,,,x,,,
746153,-4.565625,9.078614,-2.9147508,0.518296,0.792688,-3.01069,125.100006,-158.1,-27.300001,,,x,,,
746237,-3.1707559,9.418359,-3.1898966,0.55640596,0.28201398,-1.455802,125.100006,-155.70001,-14.700001,,,,,,
746281,-2.0534248,9.165345,-3.1223063,-0.198172,0.56402797,-0.47256398,117.9,-153.3,-20.7,,,,,,
746311,-1.0204319,10.140916,-3.1330729,-0.160062,-0.625004,0.030488,129.90001,-155.70001,-18.900002,,,,,,
746332,-0.50064564,9.964464,-2.970976,-0.198172,-0.518296,-0.11432999,139.5,-150.90001,-21.300001,,,,,,
746374,0.0071777157,9.164148,-3.1109416,-0.083841994,0.15244,0.327746,144.3,-160.5,-20.7,,,,,,
746394,-0.19140574,9.044519,-2.9972944,0.297258,-0.23628199,0.518296,122.700005,-150.90001,-22.5,,,,,,
746414,-0.038879294,9.51466,-3.0182295,0.16768399,-0.19055,0.67073596,134.70001,-150.90001,-12.900001,,,,,,
746434,0.040075578,9.169532,-2.9667892,-0.213416,-0.182928,-0.045732,129.90001,-158.1,-13.500001,,,,,,
746456,0.15671346,8.756215,-2.7831593,-0.358234,-0.11432999,-0.137196,127.50001,-165.3,-21.300001,,,,,,
746477,0.08314187,8.726308,-2.723345,-0.33536798,0.137196,0.068598,137.1,-162.90001,-23.7,,,,,,
746497,0.21832219,9.255066,-2.6372123,-0.41921,0.33536798,0.358234,127.50001,-150.90001,-18.900002,,,,,,
746517,-0.022729432,9.171327,-2.5785944,-1.02897,0.602138,-0.091464,129.90001,-153.3,-23.7,,,,,,
746540,-0.07716044,8.799879,-2.5863702,-0.80030996,0.625004,-0.099086,108.3,-148.5,-23.1,,,,,,
746560,-0.21413518,8.848329,-2.690447,-0.46494198,0.80793196,-0.449698,129.90001,-158.1,-21.900002,,,,,,
746580,-0.21951847,8.942836,-2.7197561,-0.068598,0.35061198,-0.312502,139.5,-155.70001,-23.7,,,,,,
746600,-0.47791624,8.951808,-2.664727,-0.17530599,-0.045732,-0.586894,115.50001,-158.1,-15.900001,,,,,,
746620,-1.0951998,8.2765045,-2.5791924,-0.388722,-0.137196,-0.56402797,127.50001,-143.70001,-23.1,,,,,,
746640,-1.8961133,8.698793,-2.731719,-0.510674,0.083841994,0.312502,129.90001,-153.3,-18.300001,,,x,,,
746660,-3.0929973,9.813732,-3.3567784,-0.289636,2.065562,1.25763,117.9,-153.3,-20.7,,,x,,,
746680,-4.099074,11.1164875,-4.2270765,-0.35061198,3.39179,1.196654,137.1,-150.90001,-21.900002,,,x,,,
746723,-6.7219305,9.759301,-4.393958,-2.2789779,4.679908,0.243904,117.9,-158.1,-24.300001,,,x,,,
746743,-7.4097953,10.527914,-5.555552,-1.699706,7.4238276,2.7896519,127.50001,-158.1,-20.7,,,x,,,
746763,-6.5412917,11.330623,-6.147115,-2.484772,3.460388,3.96344,115.50001,-158.1,-23.1,,,x,,,
746783,-6.42585,9.733581,-4.1523085,-4.641798,-2.660078,3.414656,108.3,-153.3,-27.300001,,,x,,,
746803,-5.944943,8.264542,-2.7012136,-4.161612,-2.500016,4.184478,105.9,-165.3,-20.1,,,x,,,
746845,-3.7533472,7.238726,-1.9391795,-2.332332,-1.554888,4.024416,103.50001,-155.70001,-16.5,,,x,,,
746865,-2.6180718,6.588545,-1.2806242,-1.417692,-3.643316,2.93447,110.700005,-170.1,-22.5,,,x,,,
746885,-0.4384388,6.1818075,-0.056225438,-0.053354,-2.995446,3.323192,98.700005,-158.1,-21.300001,,,x,,,
746905,0.32060462,6.724921,-0.16448931,0.213416,-1.775926,3.955818,93.9,-174.90001,-25.500002,,,x,,,
746926,0.86371845,6.585554,-0.39297992,-0.434454,-0.30488,3.7500238,89.100006,-172.5,-21.900002,,,x,,,
746946,1.9296092,6.5634227,-0.83799833,-0.792688,0.41158798,5.0228977,96.3,-165.3,-24.300001,,,x,,,
746966,3.2700477,6.9390564,-1.1562104,-1.29574,0.57164997,6.6006517,84.3,-155.70001,-25.500002,,,x,,,
746988,4.4788947,8.123978,-1.6365192,-1.288118,0.72409,8.292736,62.7,-172.5,-21.900002,,,x,,,
747008,4.912548,8.181399,-1.6682208,-1.18141,-0.518296,7.5762677,55.500004,-177.3,-27.300001,,,x,,,
747028,6.2386312,8.396132,-1.6813799,-0.083841994,-0.80793196,7.01224,50.7,-184.5,-29.1,,,x,,,
747049,7.0610776,9.287366,-1.7938308,0.891774,-0.41158798,5.724122,45.9,-179.70001,-20.7,,,x,,,
747069,7.262054,9.311292,-1.9571238,0.94512796,-0.28201398,4.4055157,41.100002,-172.5,-26.7,,,x,,,
747093,7.09577,8.814833,-1.8769727,0.663114,-0.099086,3.46801,38.7,-177.3,-23.1,,,x,,,
747113,7.2608576,8.743654,-2.242438,0.861286,0.731712,2.7820299,43.5,-194.1,-24.300001,,,x,,,
747133,7.2261653,9.232935,-2.4039366,0.541162,0.92226195,2.332332,33.9,-186.90001,-23.7,,,x,,,
747153,6.6501536,9.106129,-2.4027402,0.015244,0.830798,1.089946,29.1,-167.70001,-24.300001,,,x,,,
747173,6.439009,9.325048,-2.2119327,0.68597996,0.716468,0.221038,33.9,-177.3,-29.7,,,x,,,
747216,6.191976,9.615149,-1.9589182,0.129574,1.760682,-0.365856,33.9,-184.5,-16.5,,,x,,,
747276,5.4436994,9.395032,-2.643792,0.327746,1.41007,-1.4024479,36.300003,-184.5,-18.900002,,,x,,,
747296,6.069357,9.222168,-2.213129,-0.320124,0.487808,-1.074702,33.9,-174.90001,-27.300001,,,x,,,
747318,6.514973,9.917211,-2.4410214,0.160062,0.998482,0.259148,43.5,-177.3,-21.900002,,,x,,,
747341,5.8749604,9.868761,-2.4619565,0.442076,0.663114,-0.274392,29.1,-191.70001,-23.7,,,x,,,
747362,6.2810993,10.467502,-2.4428158,0.7622,-0.449698,-1.303362,38.7,-167.70001,-21.300001,,,x,,,
747382,6.8182316,9.8239,-2.0396676,0.289636,-0.64787,-1.707328,29.1,-174.90001,-21.900002,,,x,,,
747403,6.7422676,9.791002,-2.1664739,-0.67073596,0.320124,-0.007622,38.7,-172.5,-23.7,,,x,,,
747423,6.471907,9.366321,-2.3644593,-0.602138,0.548784,-0.099086,33.9,-182.1,-18.300001,,,x,,,
747443,6.0920863,9.575671,-2.8220387,-0.259148,-0.853664,-2.614346,36.300003,-177.3,-17.1,,,x,,,
747463,6.166256,8.618044,-2.6294365,-0.640248,-1.821658,-3.018312,55.500004,-179.70001,-18.900002,,,x,,,
747483,6.7416697,9.143811,-1.568929,-1.21952,-3.567096,-1.8521459,43.5,-167.70001,-20.1,,,x,,,
747503,6.3953447,8.28428,-0.75126755,-2.881116,-2.355198,-3.2088618,50.7,-165.3,-23.1,,,x,,,
747523,5.9006805,7.6364913,-0.7751933,-2.378064,-1.692084,-4.923812,45.9,-177.3,-19.5,,,x,,,
747543,5.086608,6.4156814,-0.23626648,-1.707328,-1.493912,-6.051868,60.300003,-172.5,-28.500002,,,x,,,
747563,4.096083,5.9724574,-0.26557547,-1.021348,-0.792688,-5.571682,53.100002,-182.1,-23.7,,,x,,,
747583,2.5026302,5.548374,-0.4163075,-0.297258,-0.541162,-4.847592,60.300003,-177.3,-27.300001,,,x,,,
747603,0.18482618,5.8169403,-1.1197237,1.074702,-0.23628199,-4.4055157,69.9,-177.3,-19.5,,,x,,,
747624,-0.7973246,6.9731507,-1.8925244,1.3567159,-0.121952,-3.460388,72.3,-158.1,-23.1,,,x,,,
747644,-1.6975298,7.8123455,-2.1748478,0.388722,-0.221038,-3.528986,79.5,-172.5,-23.1,,,x,,,
747664,-2.4757137,8.088089,-2.5588555,0.34298998,1.074702,-4.11588,91.5,-177.3,-23.7,,,x,,,
747688,-2.9972944,8.781337,-3.3998446,0.46494198,1.21952,-4.184478,93.9,-155.70001,-26.7,,,x,,,
747708,-3.1851113,8.821412,-3.4961457,0.55640596,-0.091464,-4.275942,84.3,-162.90001,-23.1,,,x,,,
747728,-2.945256,9.4698,-3.0367718,-0.434454,-1.989342,-3.7347798,93.9,-165.3,-29.7,,,x,,,
747748,-2.986528,9.398621,-2.5391169,-1.051836,-1.417692,-3.96344,93.9,-174.90001,-20.7,,,x,,,
747768,-3.0648847,9.292151,-2.6372123,-0.907018,-0.053354,-3.971062,103.50001,-167.70001,-21.900002,,,x,,,
747788,-3.0559125,9.738964,-2.6892507,-1.44818,-0.602138,-3.940574,108.3,-160.5,-25.500002,,,x,,,
747808,-2.957219,9.709057,-2.7496634,-0.708846,-0.87653,-3.7500238,98.700005,-162.90001,-27.900002,,,x,,,
747828,-2.9901166,9.643261,-2.580987,-0.777444,-1.059458,-3.7576458,105.9,-158.1,-30.900002,,,x,,,
747848,-3.032585,9.442285,-2.564239,-0.243904,-0.80030996,-3.643316,108.3,-162.90001,-26.7,,,x,,,
747871,-2.6874564,9.595409,-2.4493954,0.129574,-0.967994,-3.08691,122.700005,-158.1,-18.900002,,,x,,,
747891,-2.1915958,9.945921,-2.3955626,-0.083841994,-0.541162,-2.55337,113.100006,-165.3,-19.5,,,x,,,
747911,-2.1389592,9.426135,-2.6120903,0.129574,0.40396598,-2.431418,127.50001,-146.1,-18.900002,,,x,,,
747934,-1.7334183,9.133643,-2.401544,0.34298998,-0.67073596,-0.93750596,115.50001,-162.90001,-24.900002,,,x,,,
747954,-1.3350551,9.83347,-2.2454288,0.198172,-0.007622,-0.34298998,122.700005,-165.3,-22.5,,,x,,,
747974,-1.2638761,9.684533,-2.5217707,-0.137196,0.967994,-0.861286,122.700005,-165.3,-18.900002,,,x,,,
747994,-1.1956878,9.506287,-2.6713066,0.030488,0.69360197,-0.899396,122.700005,-160.5,-26.1,,,x,,,
748018,-0.9701879,9.409387,-2.459564,0.022866,0.289636,-0.80793196,125.100006,-162.90001,-24.300001,,,,,,
748039,-0.539525,9.485352,-2.4380307,0.022866,0.480186,-0.373478,139.5,-150.90001,-19.5,,,,,,
748059,-0.38520408,9.4644165,-2.250812,-0.121952,0.365856,-0.34298998,120.3,-153.3,-26.1,,,,,,
748079,-0.4228871,9.1192875,-2.2950745,-0.19055,0.7622,-0.510674,125.100006,-158.1,-24.900002,,,,,,
748099,-0.22011662,9.390844,-2.392572,0.091464,0.716468,-0.23628199,125.100006,-150.90001,-24.900002,,,,,,
748121,-0.04844958,9.3567505,-2.1706607,-0.121952,0.373478,-0.64787,125.100006,-153.3,-27.900002,,,,,,
748142,-0.18303175,8.814235,-2.1437445,-0.312502,0.80793196,-0.975616,129.90001,-155.70001,-29.1,,,,,,
748162,-0.18063918,9.066651,-2.3423278,0.045732,0.754578,-0.510674,122.700005,-162.90001,-19.5,,,,,,
748182,-0.13398403,9.203028,-2.3291688,0.030488,0.525918,-0.46494198,120.3,-155.70001,-24.900002,,,,,,
748202,-0.1531246,9.347778,-2.4374325,-0.07622,0.33536798,-0.41921,137.1,-162.90001,-23.1,,,,,,
748222,-0.24464047,9.033753,-2.4272642,-0.106708,0.243904,-0.56402797,122.700005,-150.90001,-22.5,,,,,,
748242,-0.41810194,9.4536495,-2.5367243,0.022866,-0.182928,-0.388722,132.3,-160.5,-21.300001,,,,,,
748284,-0.3481192,9.328638,-2.4410214,-0.274392,-0.47256398,-0.93750596,132.3,-158.1,-22.5,,,,,,
748304,-0.31103435,9.239514,-2.3507018,-0.34298998,-0.365856,-0.7622,127.50001,-155.70001,-24.300001,,,,,,
748325,-0.3062492,9.290955,-2.26756,-0.525918,-0.30488,-0.49543,132.3,-162.90001,-23.7,,,,,,
748345,-0.3367545,9.015809,-2.2538028,-0.625004,0.022866,-0.426832,125.100006,-153.3,-20.1,,,,,,
748365,-0.25839776,9.189869,-2.2567935,-0.26677,0.07622,-0.327746,127.50001,-146.1,-20.1,,,,,,
748385,-0.36965236,9.155774,-2.242438,-0.11432999,0.426832,-0.625004,122.700005,-150.90001,-26.1,,,,,,
748408,-0.40135393,9.366919,-2.4380307,0.03811,0.373478,-0.579272,127.50001,-150.90001,-22.5,,,,,,
748468,-0.6447981,9.387256,-2.7137747,0.198172,0.518296,-0.35061198,132.3,-155.70001,-22.5,,,,,,
748491,-0.7961283,9.039137,-2.5594537,-0.34298998,0.198172,-0.274392,122.700005,-160.5,-23.7,,,,,,
748512,-1.1885101,9.066053,-2.5791924,-0.30488,0.487808,0.274392,132.3,-158.1,-24.900002,,,x,,,
748532,-2.1162298,9.128858,-2.5989313,-0.617382,1.196654,0.754578,125.100006,-150.90001,-23.1,,,x,,,
748552,-2.7101858,10.1558695,-3.1205118,-0.746956,2.2484899,1.806414,134.70001,-150.90001,-23.7,,,x,,,
748592,-4.5076056,10.318564,-3.2772253,-1.288118,2.004586,1.211898,134.70001,-155.70001,-21.300001,,,x,,,
748613,-5.126683,10.53569,-3.6343167,-1.463424,2.118916,1.8750119,113.100006,-160.5,-18.300001,,,x,,,
748653,-5.0722523,10.369407,-3.3962557,-1.310984,-0.785066,3.833866,127.50001,-170.1,-23.7,,,x,,,
748677,-4.9173336,9.808349,-2.7664113,-1.8445239,0.365856,4.4512477,120.3,-153.3,-26.1,,,x,,,
748697,-4.799499,9.485352,-2.9972944,-1.67684,1.06708,5.061008,105.9,-167.70001,-29.7,,,x,,,
748717,-3.8083763,9.267029,-2.8250291,-1.8902559,0.060976,6.3872356,117.9,-153.3,-29.7,,,x,,,
748740,-3.171354,8.576174,-2.2095401,-1.8902559,-0.358234,5.884184,110.700005,-167.70001,-21.900002,,,x,,,
748780,-1.4343468,7.6161547,-1.677791,-1.585376,-0.274392,5.076252,105.9,-167.70001,-25.500002,,,x,,,
748800,-0.6615461,7.0521054,-1.3230922,-1.3643379,-0.480186,4.9619217,84.3,-162.90001,-29.1,,,x,,,
748820,0.09031959,7.0640683,-0.9935155,-1.417692,-0.41158798,5.358266,72.3,-177.3,-32.7,,,x,,,
748841,0.48389766,7.338018,-0.9115699,-1.8369019,0.23628199,5.114362,79.5,-170.1,-24.900002,,,x,,,
748861,0.9983006,7.141827,-0.9953099,-1.951232,0.632626,4.11588,60.300003,-170.1,-26.7,,,x,,,
748881,1.8769727,7.238128,-0.9217383,-1.798792,-0.20579399,3.62045,65.100006,-160.5,-25.500002,,,x,,,
748901,2.714971,6.8744574,-0.614891,-1.966476,-0.068598,3.3003259,62.7,-182.1,-29.7,,,x,,,
748921,3.5326324,6.6531444,-0.539525,-1.3795819,-0.17530599,4.30643,62.7,-182.1,-26.7,,,x,,,
748941,4.5339236,7.401421,-0.56703955,-0.632626,0.41921,5.762232,50.7,-162.90001,-29.7,,,x,,,
748963,5.098571,8.034855,-0.8505593,-0.274392,0.792688,5.929916,50.7,-172.5,-29.7,,,x,,,
748983,5.7595186,8.799281,-1.4140099,0.769822,0.518296,6.143332,50.7,-182.1,-27.300001,,,x,,,
749003,6.1740317,9.198242,-1.3900843,0.861286,-0.739334,5.289668,31.500002,-170.1,-26.1,,,x,,,
749023,6.272127,8.822011,-1.4690391,1.1280559,-0.868908,3.92533,41.100002,-170.1,-27.300001,,,x,,,
749043,6.8212223,8.800478,-1.5168905,1.669218,-1.211898,3.35368,12.3,-184.5,-26.1,,,x,,,
749065,7.0341616,9.455444,-1.5450033,1.554888,-0.434454,3.2088618,17.1,-167.70001,-27.900002,,,x,,,
749085,6.744062,9.274207,-1.5743123,1.18141,-0.213416,2.012208,14.700001,-174.90001,-30.900002,,,x,,,
749105,6.56761,9.238916,-1.6203693,1.3490939,0.388722,1.044214,26.7,-167.70001,-30.300001,,,x,,,
749125,6.680659,9.134241,-2.0043771,1.6463519,1.044214,0.731712,29.1,-184.5,-26.7,,,x,,,
749145,6.9258976,9.308899,-2.3835998,1.432936,0.868908,1.532022,21.900002,-182.1,-29.7,,,x,,,
749165,6.5729933,9.078614,-2.573211,1.158544,0.746956,1.3948259,14.700001,-182.1,-24.900002,,,x,,,
749185,7.1262755,9.255664,-2.8920212,1.25763,0.053354,1.189032,24.300001,-179.70001,-26.1,,,x,,,
749205,7.385271,8.978126,-2.3578796,0.49543,-0.907018,0.586894,2.7,-184.5,-18.300001,,,x,,,
749228,7.9349647,9.404602,-2.3471131,-0.068598,-0.41921,0.503052,21.900002,-174.90001,-21.900002,,,x,,,
749248,7.471404,8.744252,-2.083332,-0.510674,0.083841994,-0.80030996,21.900002,-186.90001,-24.300001,,,x,,,
749269,7.3015313,8.940443,-1.8937206,0.015244,0.33536798,-2.149404,7.5000005,-167.70001,-20.1,,,x,,,
749289,7.4821706,8.944032,-1.711287,-0.548784,0.28201398,-3.46801,19.5,-172.5,-26.7,,,x,,,
749309,7.6705856,9.374695,-1.7065018,-0.548784,0.95274997,-3.574718,31.500002,-167.70001,-27.900002,,,x,,,
749372,6.510188,9.125269,-2.2292788,0.579272,-0.160062,-5.64028,24.300001,-174.90001,-18.900002,,,x,,,
749392,6.4055133,8.833974,-1.782466,-0.617382,-0.594516,-5.44973,38.7,-184.5,-24.900002,,,x,,,
749413,5.986813,8.103641,-2.020527,-0.449698,-0.243904,-4.100636,48.300003,-179.70001,-21.900002,,,x,,,
749433,5.4460917,8.19396,-2.0857246,-0.45731997,-0.015244,-3.917708,50.7,-174.90001,-20.7,,,x,,,
749453,5.10515,8.308804,-2.113239,-1.1128119,-0.221038,-4.0167937,50.7,-174.90001,-18.900002,,,x,,,
749473,4.561438,7.33742,-1.6299396,-1.920744,-0.617382,-4.138746,55.500004,-177.3,-23.1,,,x,,,
749493,3.5487823,6.413289,-1.4122156,-1.67684,-0.19055,-3.567096,69.9,-170.1,-26.1,,,x,,,
749514,2.217914,6.166256,-1.6090046,-0.57164997,0.289636,-3.147886,67.5,-179.70001,-27.300001,,,x,,,
749534,1.1346772,6.3791947,-1.8345045,0.327746,-0.121952,-2.835384,69.9,-158.1,-21.300001,,,x,,,
749554,-0.5167955,6.5795727,-1.8871411,0.259148,-0.632626,-3.407034,55.500004,-162.90001,-26.7,,,x,,,
749575,-1.9044873,6.965973,-2.0312936,0.106708,-0.274392,-4.146368,67.5,-172.5,-22.5,,,x,,,
749596,-2.6754935,7.722026,-2.531341,0.045732,0.769822,-4.718018,79.5,-170.1,-23.7,,,x,,,
749616,-2.6760917,8.404507,-2.9279099,-0.442076,-0.091464,-4.283564,72.3,-165.3,-24.900002,,,x,,,
749636,-3.108549,8.335122,-2.0797431,-1.471046,-2.080806,-3.8262439,79.5,-174.90001,-23.7,,,x,,,
749657,-3.3621616,8.606081,-1.4552819,-1.570132,-0.160062,-2.926848,98.700005,-172.5,-23.7,,,x,,,
749677,-3.0941937,9.19286,-2.2615786,-0.82317597,2.7286758,-2.355198,89.100006,-172.5,-28.500002,,,x,,,
749701,-3.1223063,9.618737,-2.7442799,-0.243904,1.692084,-2.385686,86.700005,-167.70001,-27.300001,,,x,,,
749721,-2.957219,10.134934,-2.5373225,-0.26677,-0.030488,-2.47715,96.3,-179.70001,-20.1,,,x,,,
749741,-2.493658,10.356846,-2.3046448,0.030488,0.213416,-2.942092,96.3,-162.90001,-27.300001,,,x,,,
749764,-2.2328677,10.518942,-2.5235653,0.083841994,0.67073596,-3.6814258,91.5,-158.1,-28.500002,,,x,,,
749784,-2.2406435,9.700085,-2.6366143,0.327746,0.91463995,-3.8262439,101.100006,-167.70001,-27.300001,,,x,,,
749804,-1.9804513,9.827489,-2.6174736,0.53354,0.137196,-3.117398,108.3,-170.1,-27.300001,,,x,,,
749824,-2.0019846,9.419556,-2.3321595,0.40396598,0.297258,-3.323192,108.3,-162.90001,-27.900002,,,x,,,
749844,-1.7274369,9.69829,-2.5421076,0.70122397,0.777444,-2.614346,113.100006,-150.90001,-21.900002,,,x,,,
749865,-1.7800735,9.765881,-2.4625547,0.365856,0.754578,-2.62959,115.50001,-158.1,-26.1,,,x,,,
749885,-1.6269488,9.694701,-2.601922,0.30488,1.196654,-2.40093,125.100006,-150.90001,-21.900002,,,,,,
749907,-1.1795379,9.701879,-2.5989313,0.45731997,0.655492,-1.661596,134.70001,-160.5,-27.900002,,,,,,
749927,-1.0084691,9.652831,-2.3411317,0.213416,0.373478,-1.1051899,120.3,-160.5,-24.900002,,,,,,
749947,-0.79553014,9.935753,-2.4422178,0.327746,0.70122397,-0.487808,122.700005,-150.90001,-26.7,,,,,,
749968,-0.77459514,9.466809,-2.4212828,0.030488,0.67073596,-0.746956,132.3,-153.3,-15.3,,,,,,
750050,-0.044860724,9.340002,-2.2890933,0.015244,-0.022866,-0.03811,129.90001,-165.3,-21.300001,,,,,,
750090,-0.049645867,9.189869,-2.2035587,-0.365856,0.11432999,-0.541162,115.50001,-153.3,-32.7,,,,,,
750110,-0.105273165,9.339404,-2.39317,-0.083841994,-0.053354,-0.251526,125.100006,-155.70001,-19.5,,,,,,
750150,-0.040075578,9.445275,-2.2125309,-0.015244,-0.92226195,-0.33536798,115.50001,-160.5,-24.300001,,,,,,
750173,-0.12740445,9.383069,-2.0767524,-0.221038,-0.47256398,-0.525918,127.50001,-155.70001,-21.900002,,,,,,
750193,-0.5305528,9.062464,-2.2896912,-0.388722,0.091464,-0.64787,122.700005,-162.90001,-24.900002,,,,,,
750213,-1.1047701,9.229346,-2.455975,0.0,0.47256398,-0.320124,105.9,-158.1,-18.900002,,,x,,,
750234,-2.0342844,9.838854,-2.815459,0.099086,1.158544,-0.129574,115.50001,-158.1,-23.1,,,x,,,
750254,-2.9721725,10.611654,-3.4829865,-0.541162,1.8369019,-0.259148,122.700005,-155.70001,-22.5,,,x,,,
750275,-3.322086,10.312583,-3.5870633,-0.525918,1.692084,-0.64787,110.700005,-160.5,-26.1,,,x,,,
750336,-5.7995944,9.58883,-3.4351351,-1.242386,2.36282,1.089946,115.50001,-165.3,-24.300001,,,x,,,
750399,-5.024401,9.249084,-3.0236127,-2.073184,-1.250008,4.352162,105.9,-162.90001,-25.500002,,,x,,,
750421,-4.4238653,8.652138,-2.4673398,-1.48629,-1.478668,4.38265,108.3,-162.90001,-24.900002,,,x,,,
750441,-3.756338,8.124576,-1.9678904,-0.80793196,-2.012208,3.7347798,101.100006,-150.90001,-29.1,,,x,,,
750464,-3.0762494,7.701091,-1.6323322,0.20579399,-2.469528,3.1783738,91.5,-170.1,-24.300001,,,x,,,
750504,-1.0383762,6.6453686,-1.6748003,1.4024479,-2.93447,2.393308,91.5,-174.90001,-27.900002,,,x,,,
750524,-0.26138848,6.753632,-1.321896,1.554888,-3.1859958,2.660078,69.9,-162.90001,-22.5,,,x,,,
750544,1.0533298,7.253082,-1.5880696,1.684462,-2.2332458,3.2241058,84.3,-177.3,-20.1,,,x,,,
750564,2.723345,7.1561823,-1.2889981,0.099086,-3.7347798,3.8109999,77.100006,-170.1,-20.7,,,x,,,
750584,3.7180567,6.2482014,-0.11065645,-1.577754,-2.6677,5.121984,81.9,-174.90001,-22.5,,,x,,,
750607,4.2414317,7.9259925,-1.1274995,-1.471046,1.318606,7.16468,69.9,-179.70001,-30.900002,,,x,,,
750627,4.9980826,7.990592,-1.5204794,-0.640248,0.56402797,5.9527817,65.100006,-167.70001,-26.7,,,x,,,
750647,5.7296114,8.068351,-1.3069423,0.16768399,-0.67835796,6.112844,45.9,-170.1,-23.1,,,x,,,
750670,5.7032933,7.8290935,-1.2285857,0.792688,-0.045732,5.327778,50.7,-177.3,-23.7,,,x,,,
750690,6.287081,9.358545,-2.1736515,2.118916,0.49543,5.686012,43.5,-179.70001,-23.7,,,x,,,
750711,5.9766445,8.829786,-2.146137,1.669218,0.099086,4.009172,38.7,-191.70001,-19.5,,,x,,,
750732,6.1016564,8.67427,-2.3064394,1.6539739,-0.33536798,3.4299,53.100002,-186.90001,-23.7,,,x,,,
750752,5.956906,8.552248,-2.5851738,1.692084,0.289636,2.843006,48.300003,-167.70001,-23.1,,,x,,,
750772,6.34211,9.655224,-3.1049602,1.5929979,0.33536798,3.033556,24.300001,-179.70001,-24.900002,,,x,,,
750793,6.163265,9.409387,-2.873479,0.320124,-0.22865999,1.98172,38.7,-177.3,-18.900002,,,x,,,
750813,6.062777,8.644362,-2.5971367,-0.144818,0.198172,1.265252,12.3,-174.90001,-16.5,,,x,,,
750834,5.9718595,8.685634,-3.0098555,0.45731997,1.173788,0.853664,26.7,-182.1,-20.7,,,x,,,
750854,6.3020344,9.364527,-2.8262255,0.26677,0.708846,1.1204339,21.900002,-177.3,-21.300001,,,x,,,
750874,6.066366,8.917115,-2.7215505,-0.541162,1.3414719,0.82317597,17.1,-170.1,-21.300001,,,x,,,
750896,5.60759,9.073231,-2.7598317,-0.579272,1.577754,0.11432999,14.700001,-162.90001,-17.7,,,x,,,
750916,5.784641,9.303515,-2.6796806,-0.510674,1.280496,-0.007622,14.700001,-174.90001,-21.900002,,,x,,,
750936,6.135751,9.624121,-2.3106263,-0.960372,1.036592,0.121952,17.1,-186.90001,-25.500002,,,x,,,
750958,5.824716,9.654028,-2.3800108,-0.785066,1.6158639,-0.083841994,33.9,-191.70001,-26.1,,,x,,,
750978,5.080028,8.182596,-2.2436342,-0.47256398,0.983238,-1.189032,12.3,-189.3,-20.7,,,x,,,
750998,6.1016564,9.313684,-2.6593437,1.074702,0.53354,-0.015244,17.1,-174.90001,-20.7,,,x,,,
751018,5.3904643,9.214393,-2.9464524,-0.099086,0.49543,-0.3811,29.1,-172.5,-21.900002,,,x,,,
751038,5.772678,10.193553,-3.1097453,-0.548784,-0.960372,-0.56402797,19.5,-186.90001,-21.900002,,,x,,,
751058,5.774472,8.917713,-2.6216607,-1.493912,-1.958854,-2.583858,12.3,-184.5,-23.7,,,x,,,
751078,6.421065,8.076126,-2.1808293,-1.669218,-2.530504,-1.996964,21.900002,-177.3,-17.7,,,x,,,
751099,7.2991385,9.524829,-1.7962234,-1.71495,-2.09605,-0.259148,31.500002,-172.5,-27.300001,,,x,,,
751119,6.7961006,9.480566,-1.9152538,-2.179892,-0.503052,-1.798792,12.3,-172.5,-24.900002,,,x,,,
751141,6.710566,8.748439,-1.8051955,-1.471046,-0.891774,-3.7424018,29.1,-162.90001,-21.900002,,,x,,,
751161,6.73509,8.2011385,-1.6281452,-0.81555396,-0.503052,-4.64942,31.500002,-174.90001,-27.900002,,,x,,,
751181,6.6387887,8.029471,-1.6646318,-0.541162,0.426832,-4.733262,43.5,-186.90001,-25.500002,,,x,,,
751201,6.0143275,8.064762,-1.8039992,-0.594516,0.754578,-5.37351,31.500002,-170.1,-24.300001,,,x,,,
751221,5.3785014,7.3057184,-1.7986159,-0.57164997,0.81555396,-5.724122,50.7,-170.1,-20.7,,,x,,,
751242,4.66073,7.3942432,-1.2555021,-0.388722,0.899396,-5.632658,67.5,-177.3,-27.900002,,,x,,,
751262,4.1002703,7.4426928,-1.5306479,-0.510674,1.8826339,-5.975648,57.9,-177.3,-25.500002,,,x,,,
751282,3.3101232,6.7632027,-1.2435392,-0.53354,1.532022,-6.5854077,72.3,-172.5,-23.7,,,x,,,
751303,1.5611532,5.5071025,-0.9719823,0.57164997,2.035074,-6.829312,77.100006,-177.3,-24.300001,,,x,,,
751323,0.06639387,6.352278,-1.5420126,1.928366,3.3079479,-5.853696,77.100006,-170.1,-20.1,,,x,,,
751343,-1.5587605,7.677165,-2.535528,2.97258,3.521364,-5.64028,77.100006,-172.5,-21.900002,,,x,,,
751365,-2.029499,8.402713,-3.0194256,2.7134318,1.8597679,-5.9985137,96.3,-167.70001,-22.5,,,x,,,
751385,-2.292084,7.5419846,-2.5660334,1.935988,-0.3811,-6.333882,98.700005,-160.5,-21.300001,,,x,,,
751405,-2.6515677,7.5916305,-2.3656554,1.189032,0.373478,-4.679908,105.9,-165.3,-17.7,,,x,,,
751428,-2.978154,8.604286,-3.0355756,0.93750596,2.01983,-3.147886,96.3,-167.70001,-17.7,,,x,,,
751448,-3.6881495,8.496023,-3.6163723,0.41921,0.884152,-3.323192,103.50001,-162.90001,-22.5,,,x,,,
751469,-3.877761,8.351273,-3.6397,0.327746,-0.022866,-2.942092,108.3,-148.5,-21.900002,,,x,,,
751489,-3.7802637,9.002051,-3.3759189,0.137196,-1.288118,-1.79117,93.9,-158.1,-27.300001,,,x,,,
751509,-3.9303975,9.87534,-3.2778234,-0.22865999,-1.211898,-1.684462,103.50001,-158.1,-22.5,,,x,,,
751532,-4.360462,10.160655,-3.5087066,-0.022866,0.182928,-2.461906,117.9,-162.90001,-26.1,,,x,,,
751552,-4.020717,9.780235,-3.9405658,0.26677,-0.129574,-2.500016,127.50001,-150.90001,-26.1,,,x,,,
751572,-3.9052753,9.499108,-3.57211,0.46494198,-1.8902559,-1.3643379,127.50001,-155.70001,-21.300001,,,x,,,
751594,-3.5930448,10.304807,-3.14683,-0.022866,-1.8673899,-0.30488,125.100006,-153.3,-17.7,,,,,,
751656,-2.2872987,9.014014,-3.03737,-0.160062,0.182928,-0.396344,115.50001,-153.3,-23.7,,,,,,
751676,-1.7118852,9.087586,-2.9889205,0.20579399,-0.548784,0.121952,127.50001,-155.70001,-22.5,,,,,,
751696,-1.4714317,9.409986,-2.9392745,0.49543,-0.830798,0.594516,127.50001,-165.3,-20.1,,,,,,
751717,-1.1346772,10.354453,-2.710784,0.03811,-0.64787,0.41921,125.100006,-160.5,-20.7,,,,,,
751737,-0.9277198,9.943529,-2.978154,0.015244,0.57164997,-1.158544,113.100006,-162.90001,-24.300001,,,,,,
751757,-0.79313755,9.402807,-3.2180092,0.17530599,-0.129574,-1.440558,122.700005,-158.1,-24.300001,,,,,,
751777,-0.77040815,8.841749,-3.0295942,0.060976,-0.388722,-0.137196,132.3,-153.3,-20.1,,,,,,
751797,-0.6711164,8.973939,-2.9907148,0.007622,-0.434454,0.35061198,125.100006,-158.1,-23.7,,,,,,
751817,-0.30923992,9.267627,-2.9231248,-0.060976,-0.480186,0.510674,115.50001,-158.1,-20.7,,,,,,
751841,-0.12022674,9.148597,-2.8627121,-0.23628199,-0.19055,0.106708,120.3,-160.5,-19.5,,,,,,
751861,0.02213129,8.883619,-2.7185597,-0.365856,-0.144818,0.0,115.50001,-158.1,-22.5,,,,,,
751882,0.2129389,8.908143,-2.5767999,-0.327746,0.03811,0.121952,125.100006,-150.90001,-19.5,,,,,,
751905,0.09450659,9.0433235,-2.546893,-0.297258,0.594516,-0.15244,125.100006,-160.5,-16.5,,,,,,
751925,-0.13817103,9.2377205,-2.9219284,-0.015244,1.242386,-0.41921,120.3,-158.1,-21.300001,,,,,,
751945,-0.2506219,8.927284,-3.108549,0.022866,0.251526,-0.81555396,108.3,-160.5,-23.1,,,,,,
751966,-0.21772404,8.607876,-2.7723927,-0.015244,-0.640248,-0.365856,120.3,-153.3,-21.900002,,,,,,
751986,-0.5467027,8.841749,-2.6982229,-0.243904,-0.053354,0.16768399,122.700005,-162.90001,-20.1,,,x,,,
752008,-1.0300022,9.363928,-3.0349774,-0.449698,0.34298998,0.106708,115.50001,-150.90001,-14.700001,,,x,,,
752028,-1.8171583,9.343592,-3.1474283,-0.40396598,0.221038,-0.525918,125.100006,-158.1,-19.5,,,x,,,
752048,-2.911162,10.066148,-3.317301,-0.30488,0.92988396,-0.198172,117.9,-160.5,-18.300001,,,x,,,
752070,-4.151112,11.178694,-4.1194105,-0.769822,2.7134318,-0.365856,120.3,-160.5,-24.900002,,,x,,,
752132,-6.255379,11.551337,-4.685852,-1.150922,7.218034,2.40093,120.3,-170.1,-24.300001,,,x,,,
752152,-5.928793,10.822799,-5.3186874,-1.173788,3.033556,0.777444,113.100006,-160.5,-21.900002,,,x,,,
752172,-5.609385,9.032557,-3.8789573,-0.99086,-3.056422,-0.099086,113.100006,-148.5,-25.500002,,,x,,,
752193,-4.33235,8.34888,-2.2083437,-0.480186,-3.7652678,0.182928,108.3,-153.3,-25.500002,,,x,,,
752213,-3.0971844,7.588042,-1.9708811,0.22865999,-0.053354,0.28201398,117.9,-146.1,-26.1,,,x,,,
752233,-2.4194884,6.8882146,-2.4428158,0.022866,1.242386,1.3490939,115.50001,-150.90001,-12.900001,,,x,,,
752253,-1.5085166,6.6435738,-1.8416822,-0.739334,-0.07622,4.38265,122.700005,-160.5,-22.5,,,x,,,
752273,-1.2770352,6.773371,-1.6143879,-0.907018,0.47256398,5.137228,101.100006,-160.5,-18.300001,,,x,,,
752295,-0.52935654,6.755427,-1.7417923,-1.3719599,1.661596,5.3963757,115.50001,-155.70001,-19.5,,,x,,,
752315,0.6806867,6.088497,-1.3924768,-1.150922,0.28201398,5.4878397,98.700005,-153.3,-19.5,,,x,,,
752335,2.8633103,7.396636,0.32778236,-2.873494,1.493912,8.429932,79.5,-167.70001,-23.1,,,x,,,
752376,2.873479,7.1908746,-1.8847485,-1.806414,4.87808,7.27901,74.700005,-158.1,-20.7,,,x,,,
752397,4.405323,7.608977,-2.1563053,0.030488,1.577754,8.109808,72.3,-179.70001,-27.900002,,,x,,,
752417,5.559739,9.374695,-3.066679,1.29574,2.2332458,7.675354,53.100002,-177.3,-17.1,,,x,,,
752440,5.860007,8.821412,-3.129484,0.41158798,-0.69360197,5.251558,60.300003,-179.70001,-20.1,,,x,,,
752461,6.241622,8.815431,-2.338739,0.541162,-1.242386,4.786616,45.9,-191.70001,-18.900002,,,x,,,
752481,5.802585,9.166541,-2.7245412,-0.007622,-0.15244,3.361302,45.9,-177.3,-23.7,,,x,,,
752501,6.0262904,8.856703,-2.894414,0.396344,-0.907018,2.17227,53.100002,-179.70001,-25.500002,,,x,,,
752521,6.447383,8.745448,-2.1736515,0.67073596,-0.777444,2.035074,33.9,-167.70001,-21.300001,,,x,,,
752541,6.2685385,9.673766,-2.262775,-0.327746,0.388722,1.783548,41.100002,-160.5,-21.900002,,,x,,,
752565,6.066366,9.728197,-2.4996395,-0.586894,1.493912,0.967994,43.5,-167.70001,-25.500002,,,x,,,
752585,5.487364,8.595913,-1.8016067,-1.29574,1.440558,0.083841994,31.500002,-174.90001,-18.900002,,,x,,,
752605,5.7314057,9.280189,-1.9977975,-0.67073596,2.568614,0.769822,33.9,-191.70001,-24.300001,,,x,,,
752625,5.0501213,9.099549,-1.9684886,-1.082324,2.6981878,0.41921,31.500002,-172.5,-25.500002,,,x,,,
752646,4.86051,8.866872,-1.7017168,-1.3719599,1.6158639,-0.068598,21.900002,-189.3,-24.900002,,,x,,,
752666,5.334239,9.031361,-1.5174887,-1.425314,1.1280559,0.274392,31.500002,-172.5,-21.900002,,,x,,,
752686,5.2911725,8.6647,-1.2184173,-1.6539739,1.204276,0.57164997,29.1,-177.3,-25.500002,,,x,,,
752710,5.3444076,9.175513,-1.4187951,-1.166166,1.196654,0.541162,24.300001,-167.70001,-22.5,,,x,,,
752731,5.626731,8.925489,-1.2955776,-0.792688,0.655492,-0.17530599,26.7,-177.3,-25.500002,,,x,,,
752751,5.5411963,9.194056,-1.183725,-0.434454,0.426832,-0.640248,29.1,-179.70001,-24.300001,,,x,,,
752771,5.7409763,8.792104,-1.305148,-0.586894,0.213416,-0.960372,24.300001,-179.70001,-20.1,,,x,,,
752791,6.0232997,9.506287,-1.6849687,0.160062,0.045732,-0.907018,45.9,-184.5,-23.7,,,x,,,
752811,5.727219,9.057679,-1.907478,0.213416,-0.632626,-1.9054999,29.1,-174.90001,-23.7,,,x,,,
752831,5.501121,8.737075,-1.7974197,0.594516,-1.501534,-2.903982,45.9,-179.70001,-26.7,,,x,,,
752851,6.0807214,9.200037,-2.1281927,0.861286,-1.94361,-3.589962,26.7,-177.3,-23.7,,,x,,,
752872,6.7422676,8.930275,-2.0576117,0.007622,-2.2103798,-3.330814,41.100002,-177.3,-14.1,,,x,,,
752892,6.8959904,9.343592,-1.6999223,-0.69360197,-2.01983,-2.317088,48.300003,-174.90001,-20.1,,,x,,,
752913,6.517366,8.978126,-1.5737141,-1.326228,-1.3414719,-3.643316,36.300003,-179.70001,-24.300001,,,x,,,
752933,6.529927,8.9141245,-1.0359837,-0.68597996,-1.48629,-5.0228977,55.500004,-172.5,-19.5,,,x,,,
752953,6.1351523,8.273514,-0.7668193,-1.089946,-1.082324,-5.5640597,65.100006,-165.3,-24.300001,,,x,,,
752973,5.9904017,8.129361,-0.91994387,-0.67073596,-0.358234,-5.929916,60.300003,-172.5,-20.7,,,x,,,
752993,5.447886,8.018704,-0.67889225,-0.358234,-0.312502,-7.1113257,67.5,-174.90001,-25.500002,,,x,,,
753033,3.4070225,6.225472,-0.68367743,0.769822,-0.830798,-7.134192,93.9,-170.1,-25.500002,,,x,,,
753053,1.4295617,6.5682077,-1.4845909,1.509156,-0.41921,-4.778994,96.3,-172.5,-23.7,,,x,,,
753073,0.677696,6.333138,-1.8763745,1.6158639,-0.53354,-4.61131,91.5,-174.90001,-26.7,,,x,,,
753094,-1.7399979,7.040741,-2.820244,2.2027578,-0.884152,-3.1859958,96.3,-170.1,-23.7,,,x,,,
753154,-3.020622,8.068949,-3.5170808,0.137196,-4.565578,-3.2927039,103.50001,-170.1,-25.500002,,,x,,,
753194,-3.2275794,8.458938,-3.0798383,-0.41921,-1.8673899,-2.469528,113.100006,-170.1,-19.5,,,x,,,
753217,-3.3119175,8.874647,-3.0361738,-0.46494198,-2.012208,-2.32471,105.9,-160.5,-24.300001,,,x,,,
753237,-3.7677026,10.085289,-2.9931073,-0.739334,-1.204276,-2.599102,129.90001,-160.5,-16.5,,,x,,,
753257,-4.0488296,10.6630945,-3.2473183,-0.49543,-0.373478,-3.864354,127.50001,-160.5,-20.7,,,x,,,
753277,-4.231263,9.940538,-3.083427,-0.68597996,-0.907018,-5.114362,125.100006,-155.70001,-24.300001,,,x,,,
753297,-4.280909,9.398023,-2.8842454,-0.449698,-0.830798,-4.519846,129.90001,-150.90001,-26.1,,,x,,,
753337,-4.0320816,9.616344,-3.1910927,0.3811,-0.091464,-2.957336,127.50001,-148.5,-24.300001,,,x,,,
753399,-2.8340013,9.682738,-2.3435242,-0.297258,0.655492,-1.478668,132.3,-153.3,-27.900002,,,,,,
753419,-2.5720148,9.203028,-3.0349774,-0.121952,1.699706,-1.692084,141.90001,-162.90001,-25.500002,,,,,,
753439,-2.262775,9.172523,-3.1282878,0.259148,-0.007622,-1.1356779,149.1,-153.3,-21.900002,,,,,,
753459,-2.0103586,9.503894,-2.6037164,0.07622,-0.94512796,-0.45731997,141.90001,-146.1,-18.300001,,,,,,
753479,-1.6532671,9.631896,-2.5445,-0.22865999,-0.030488,-0.274392,127.50001,-158.1,-24.900002,,,,,,
753499,-1.443319,9.776049,-2.7640188,-0.510674,0.28201398,-0.41921,139.5,-148.5,-23.7,,,,,,
753520,-1.2878019,9.319666,-2.8166552,-0.442076,0.083841994,-0.586894,146.70001,-158.1,-18.900002,,,,,,
753540,-1.0736667,9.207214,-2.7335134,-0.22865999,-0.503052,0.03811,149.1,-146.1,-21.300001,,,,,,
753560,-1.0132542,9.2443,-2.426666,-0.426832,-0.69360197,0.373478,132.3,-150.90001,-26.1,,,,,,
753582,-0.9492529,9.142615,-2.217316,-0.7622,0.091464,-0.137196,139.5,-150.90001,-24.300001,,,,,,
753645,-0.83560574,8.747243,-2.5116024,-0.137196,0.221038,-0.663114,134.70001,-155.70001,-24.300001,,,,,,
753774,-0.7309307,9.083998,-2.7394948,0.083841994,-0.015244,-0.541162,144.3,-148.5,-20.7,,,,,,
753933,-3.8801534,9.555334,-3.3860874,0.221038,1.539644,0.28201398,144.3,-146.1,-23.1,,,x,,,
753953,-4.34192,10.832968,-4.0320816,-0.11432999,1.661596,1.48629,139.5,-158.1,-24.900002,,,x,,,
753995,-5.643479,9.470996,-3.505118,-1.8750119,0.82317597,1.935988,134.70001,-148.5,-26.1,,,x,,,
754015,-6.0496182,9.684533,-3.7886376,-1.3490939,1.8369019,3.6966698,149.1,-158.1,-25.500002,,,x,,,
754035,-6.141732,10.71633,-4.1690564,-1.25763,1.554888,4.657042,129.90001,-155.70001,-18.300001,,,x,,,
754055,-5.819333,10.256956,-3.995595,-1.67684,-0.388722,3.940574,125.100006,-150.90001,-21.900002,,,x,,,
754075,-5.2313585,10.018895,-3.3663487,-1.745438,-2.2027578,4.375028,129.90001,-160.5,-14.1,,,x,,,
754095,-4.8856316,8.924891,-2.4117124,-1.8750119,-1.798792,3.8109999,122.700005,-167.70001,-25.500002,,,x,,,
754115,-4.040456,8.466714,-2.3034487,-1.3872039,-0.365856,4.131124,125.100006,-162.90001,-26.7,,,x,,,
754135,-3.154606,8.1365385,-1.999592,-1.265252,-0.49543,4.0015497,122.700005,-165.3,-26.7,,,x,,,
754155,-2.497247,7.8362713,-1.2937832,-1.3948259,-0.67835796,3.7881339,108.3,-160.5,-19.5,,,x,,,
754175,-1.6580523,7.196258,-1.0443577,-1.006104,0.861286,3.483254,101.100006,-162.90001,-22.5,,,x,,,
754198,-0.67291087,7.47918,-1.0126561,-0.518296,1.280496,4.53509,96.3,-165.3,-18.900002,,,x,,,
754218,-0.12022674,7.573686,-0.9953099,-0.655492,2.012208,4.0320377,98.700005,-165.3,-26.1,,,x,,,
754238,0.62745196,7.0754333,-0.90558845,-0.87653,1.669218,3.338436,91.5,-174.90001,-20.1,,,x,,,
754258,1.2728482,6.7081733,-0.9396826,-0.746956,1.44818,3.993928,89.100006,-170.1,-28.500002,,,x,,,
754278,1.8817577,6.3989334,-1.0306003,-0.434454,1.98172,4.702774,101.100006,-167.70001,-23.1,,,x,,,
754301,2.9171433,6.84455,-1.5808918,0.26677,1.6387299,6.02138,77.100006,-172.5,-23.1,,,x,,,
754322,3.4871736,7.5539474,-1.5635457,0.47256398,1.1204339,6.775958,77.100006,-170.1,-25.500002,,,x,,,
754342,3.7168605,7.628117,-1.501937,0.487808,1.4024479,6.128088,65.100006,-179.70001,-28.500002,,,x,,,
754363,4.664319,8.398525,-2.0522285,0.891774,1.1204339,5.9985137,72.3,-162.90001,-23.1,,,x,,,
754384,4.9592032,7.792607,-1.5198812,0.777444,1.25763,5.228692,53.100002,-172.5,-21.300001,,,x,,,
754404,5.342015,7.2686334,-1.594051,0.83842,1.310984,5.228692,43.5,-182.1,-22.5,,,x,,,
754424,7.2261653,9.250281,-2.4703305,2.332332,1.8826339,8.132674,55.500004,-182.1,-22.5,,,x,,,
754444,7.275811,9.5661,-2.4242735,0.967994,0.49543,7.58389,31.500002,-179.70001,-21.900002,,,x,,,
754464,7.35656,9.122876,-2.8435717,0.632626,1.021348,7.103704,29.1,-174.90001,-21.300001,,,x,,,
754484,7.5162644,9.188074,-3.2532997,0.434454,-0.35061198,6.0747337,26.7,-174.90001,-20.7,,,x,,,
754504,8.053397,9.565502,-2.7819629,0.33536798,-1.516778,5.358266,19.5,-174.90001,-26.1,,,x,,,
754524,7.710063,9.269422,-2.4966488,-0.121952,-0.34298998,3.528986,12.3,-179.70001,-18.900002,,,x,,,
754547,6.4808793,8.370413,-2.4254696,-0.160062,-0.007622,0.67835796,9.900001,-182.1,-17.7,,,x,,,
754567,6.887018,9.39563,-2.6408012,0.426832,0.160062,0.602138,19.5,-177.3,-25.500002,,,x,,,
754588,6.4653273,9.115101,-2.217316,-0.861286,0.221038,-0.137196,2.7,-172.5,-25.500002,,,x,,,
754608,6.0980678,8.762197,-2.2932801,-0.87653,0.449698,-0.442076,14.700001,-179.70001,-17.1,,,x,,,
754631,5.753537,8.644362,-2.1072576,-0.442076,0.099086,-1.3490939,9.900001,-182.1,-19.5,,,x,,,
754651,5.911447,9.126466,-2.1275945,-0.56402797,-0.525918,-1.935988,12.3,-174.90001,-26.7,,,x,,,
754671,6.0227017,8.814833,-1.7746902,-1.189032,-0.777444,-1.669218,9.900001,-172.5,-20.1,,,x,,,
754691,5.8342867,8.264542,-1.53962,-1.280496,-0.55640596,-1.783548,17.1,-172.5,-20.1,,,x,,,
754711,6.020309,8.627614,-1.5001426,-0.35061198,-0.55640596,-2.32471,21.900002,-174.90001,-27.900002,,,x,,,
754731,5.953317,8.75143,-1.7268387,-0.11432999,-0.327746,-3.033556,17.1,-179.70001,-30.300001,,,x,,,
754751,6.656135,9.094764,-1.8889354,0.16768399,-0.198172,-2.6677,29.1,-179.70001,-23.7,,,x,,,
754771,6.479683,8.561818,-1.7226517,-0.144818,-0.198172,-3.08691,19.5,-174.90001,-29.1,,,x,,,
754791,6.550264,8.790907,-2.167072,0.320124,0.487808,-3.338436,31.500002,-174.90001,-21.900002,,,x,,,
754812,7.1783137,9.298133,-2.5791924,0.007622,0.121952,-4.085392,29.1,-167.70001,-19.5,,,x,,,
754832,7.0796204,8.692812,-1.982844,-0.449698,-0.358234,-4.489358,36.300003,-182.1,-24.300001,,,x,,,
754852,6.4994216,8.421255,-1.9242259,-0.975616,0.289636,-4.30643,41.100002,-174.90001,-27.300001,,,x,,,
754872,6.352278,7.9870033,-1.9702829,-1.471046,0.47256398,-5.045764,41.100002,-170.1,-28.500002,,,x,,,
754892,6.162069,7.7423625,-1.8249342,-1.288118,0.26677,-5.724122,50.7,-182.1,-21.900002,,,x,,,
754912,5.5029154,7.0090394,-1.5414144,-1.760682,0.060976,-5.4573517,62.7,-162.90001,-23.1,,,x,,,
754932,4.5931396,6.642976,-1.3045498,-1.951232,0.091464,-4.359784,45.9,-167.70001,-20.7,,,x,,,
754956,3.5553617,6.296651,-1.305148,-1.996964,0.121952,-4.969544,69.9,-165.3,-26.1,,,x,,,
754976,2.443414,5.435923,-0.8457742,-1.6006199,0.007622,-5.343022,65.100006,-174.90001,-24.300001,,,x,,,
754998,0.2865105,6.050814,-0.96899164,-1.02897,1.1432999,-4.893324,81.9,-174.90001,-27.300001,,,x,,,
755018,-1.7304276,7.297942,-1.8482618,-0.221038,2.7286758,-5.5335717,77.100006,-182.1,-27.900002,,,x,,,
755038,-2.5504816,8.788515,-2.5211725,0.7622,2.987824,-6.737848,77.100006,-165.3,-23.1,,,x,,,
755062,-2.7574391,8.806459,-2.7562428,0.503052,1.737816,-8.498529,91.5,-165.3,-24.900002,,,x,,,
755082,-3.4584627,7.5742846,-2.1664739,0.69360197,0.434454,-8.742434,103.50001,-170.1,-24.900002,,,x,,,
755102,-4.191188,8.018704,-2.1784368,1.158544,1.56251,-6.5396757,98.700005,-162.90001,-26.7,,,x,,,
755122,-4.413697,8.62582,-2.7287283,1.94361,3.445144,-5.228692,113.100006,-162.90001,-22.5,,,x,,,
755142,-4.0320816,9.65642,-3.4734163,1.806414,2.8048959,-4.199722,113.100006,-160.5,-22.5,,,x,,,
755162,-4.1564956,9.737767,-3.3543859,1.158544,0.41921,-4.5884438,125.100006,-155.70001,-19.5,,,x,,,
755182,-4.1397476,9.560119,-2.9374802,0.57164997,-0.3811,-4.4360037,132.3,-155.70001,-23.1,,,x,,,
755202,-4.301844,9.924986,-3.107951,0.663114,1.059458,-3.589962,122.700005,-165.3,-18.900002,,,,,,
755222,-4.1708508,10.162449,-3.73959,0.320124,0.251526,-2.85825,151.5,-162.90001,-20.1,,,,,,
755242,-3.9674823,9.860985,-3.4405184,-0.11432999,-1.1356779,-2.080806,132.3,-158.1,-21.300001,,,,,,
755322,-2.3782165,9.613952,-2.8501513,-0.81555396,-1.150922,-0.716468,144.3,-153.3,-22.5,,,,,,
755493,-1.1789398,9.180298,-2.9596114,0.358234,-0.49543,0.07622,141.90001,-153.3,-24.900002,,,,,,
755513,-0.89542,8.973341,-2.5612483,-0.17530599,-1.1128119,-0.045732,132.3,-155.70001,-21.900002,,,,,,
755555,-0.4827014,9.067847,-2.5678277,-0.46494198,-0.40396598,0.099086,129.90001,-146.1,-22.5,,,,,,
755575,-0.27514577,9.189869,-2.5439022,0.03811,-0.373478,0.213416,132.3,-160.5,-18.300001,,,,,,
755597,-0.3259879,9.231739,-2.342926,-0.20579399,-0.274392,-0.099086,146.70001,-150.90001,-18.300001,,,,,,
755617,-0.4007558,8.776552,-2.3710387,-0.16768399,0.541162,-0.297258,141.90001,-160.5,-17.1,,,,,,
755732,-1.6131916,9.412976,-2.874077,0.030488,0.53354,0.830798,129.90001,-160.5,-20.7,,,x,,,
755772,-2.9853315,9.969847,-3.350797,-0.625004,0.663114,0.655492,144.3,-162.90001,-26.1,,,x,,,
755812,-4.803088,10.755807,-3.8556297,0.23628199,3.079288,1.539644,137.1,-150.90001,-21.900002,,,x,,,
755852,-5.54658,10.140318,-4.9304924,-0.23628199,1.425314,2.027452,132.3,-143.70001,-24.900002,,,x,,,
755873,-5.525047,10.517148,-4.556653,-1.303362,-1.417692,4.679908,137.1,-153.3,-26.1,,,x,,,
755915,-3.9513326,10.266526,-4.1858044,-2.7362978,-0.03811,4.923812,120.3,-162.90001,-23.7,,,x,,,
755935,-3.071464,9.206616,-4.0147357,-2.7896519,-1.425314,3.7576458,120.3,-155.70001,-23.7,,,x,,,
755955,-1.9559275,8.150894,-3.3484044,-2.843006,-3.35368,2.614346,108.3,-158.1,-24.300001,,,x,,,
755975,-1.2178191,7.262054,-2.6174736,-2.17227,-3.993928,2.2637339,117.9,-174.90001,-19.5,,,x,,,
756040,-0.72734183,7.669987,-1.3745326,-2.157026,-3.323192,3.079288,105.9,-165.3,-27.900002,,,x,,,
756060,-0.29608077,8.025284,-0.9259253,-1.806414,-2.614346,3.650938,98.700005,-174.90001,-30.900002,,,x,,,
756080,0.25779963,8.1688385,-0.62446123,-1.8750119,-1.8902559,3.871976,96.3,-160.5,-24.900002,,,x,,,
756103,0.45638308,7.3362236,-0.4079335,-1.730194,-0.655492,3.7652678,93.9,-172.5,-30.300001,,,x,,,
756123,0.8589333,7.4157767,-0.46714967,-0.480186,0.503052,4.352162,86.700005,-170.1,-24.900002,,,x,,,
756145,1.1029756,7.4313283,-0.6310408,0.358234,1.18141,4.23021,72.3,-170.1,-23.7,,,x,,,
756165,1.5569662,6.8606997,-0.74947315,1.02897,1.79117,4.1921,84.3,-179.70001,-24.900002,,,x,,,
756185,2.0629952,6.6130686,-0.69982725,1.173788,1.8826339,4.550334,79.5,-172.5,-27.300001,,,x,,,
756205,3.4004428,8.069547,-1.3446254,1.6387299,2.408552,5.929916,72.3,-165.3,-16.5,,,x,,,
756225,4.1403456,8.564809,-1.4068322,0.92988396,2.2865999,5.510706,72.3,-165.3,-26.7,,,x,,,
756245,4.506409,8.204727,-1.6640338,0.388722,2.035074,5.152472,57.9,-179.70001,-25.500002,,,x,,,
756265,4.93767,8.119193,-1.7453812,0.625004,1.8292799,4.8857017,57.9,-182.1,-31.500002,,,x,,,
756285,5.4113994,9.448865,-2.0767524,1.303362,0.998482,5.0076537,41.100002,-189.3,-22.5,,,x,,,
756308,4.914941,9.033155,-2.2232974,0.99086,0.259148,2.545748,53.100002,-162.90001,-32.7,,,x,,,
756328,4.9980826,8.526528,-1.7752883,0.967994,-0.891774,1.547266,53.100002,-177.3,-26.1,,,x,,,
756349,5.194872,8.798085,-1.4606651,0.92226195,-0.754578,1.768304,53.100002,-184.5,-23.7,,,x,,,
756369,4.6068974,8.740664,-1.8991039,0.64787,0.030488,1.768304,29.1,-167.70001,-27.900002,,,x,,,
756389,4.627234,8.616249,-2.3321595,1.3567159,-0.045732,1.539644,43.5,-172.5,-20.1,,,x,,,
756450,5.0764394,8.597109,-2.2765322,0.45731997,-0.030488,2.05794,26.7,-177.3,-25.500002,,,x,,,
756470,5.358165,8.780739,-2.5522761,0.746956,0.541162,2.2637339,24.300001,-179.70001,-23.1,,,x,,,
756491,5.4993267,8.763392,-2.6713066,0.891774,0.70122397,2.050318,31.500002,-179.70001,-30.900002,,,x,,,
756512,6.2434163,9.509875,-2.8351977,0.40396598,0.548784,2.7134318,14.700001,-177.3,-20.7,,,x,,,
756532,6.351082,9.468005,-2.472723,-0.47256398,0.358234,2.332332,17.1,-174.90001,-18.300001,,,x,,,
756553,6.29366,8.873451,-2.5319393,-1.074702,0.388722,1.166166,17.1,-177.3,-25.500002,,,x,,,
756573,7.1932673,8.570192,-2.4374325,-0.449698,0.487808,0.868908,12.3,-179.70001,-15.900001,,,x,,,
756593,7.8883095,9.880126,-2.47691,-0.510674,0.388722,1.5929979,19.5,-165.3,-26.1,,,x,,,
756617,7.9499183,10.112803,-3.3490026,-1.5244,0.182928,-2.85825,14.700001,-186.90001,-21.300001,,,x,,,
756637,8.953602,8.187381,-2.4338439,-0.45731997,-2.500016,-6.112844,24.300001,-177.3,-23.7,,,x,,,
756657,8.982313,8.311196,-1.4624596,-1.310984,-2.7134318,-4.68753,29.1,-174.90001,-27.900002,,,x,,,
756679,8.267532,10.256956,-2.8226366,-1.196654,0.449698,-4.23021,36.300003,-174.90001,-23.7,,,x,,,
756699,6.6112742,9.794591,-2.902788,-1.303362,-0.30488,-7.461938,41.100002,-170.1,-21.300001,,,x,,,
756721,6.2284627,7.7202315,-2.1784368,-1.1051899,-1.41007,-9.37506,45.9,-174.90001,-20.7,,,x,,,
756741,6.2787066,6.9665713,-1.196884,-1.5244,-0.853664,-7.027484,53.100002,-179.70001,-23.1,,,x,,,
756763,5.100963,7.604192,-1.3488123,-1.951232,1.783548,-4.9466777,60.300003,-179.70001,-27.900002,,,x,,,
756783,4.2408338,8.14611,-1.9308056,-1.280496,1.98172,-6.21193,65.100006,-177.3,-23.7,,,x,,,
756823,3.054118,6.308016,-0.78835243,0.15244,-0.792688,-7.3171196,74.700005,-167.70001,-20.1,,,x,,,
756885,-1.8949169,7.9762363,-2.7113822,1.3643379,2.7972739,-3.8262439,96.3,-160.5,-23.1,,,x,,,
756935,-2.4571714,7.0186095,-1.6149861,0.617382,-1.737816,-1.227142,96.3,-150.90001,-26.7,,,x,,,
756955,-2.756841,8.304019,-2.363263,0.41158798,2.126538,-0.92988396,105.9,-179.70001,-24.900002,,,x,,,
756975,-2.3363464,8.822011,-3.3035436,0.716468,1.8902559,-1.768304,96.3,-177.3,-23.1,,,x,,,
756995,-2.9237227,8.475686,-2.5343318,0.022866,-1.661596,-2.614346,115.50001,-160.5,-32.100002,,,x,,,
757015,-3.095988,9.042128,-2.4206846,0.510674,-0.015244,-3.056422,110.700005,-160.5,-24.900002,,,x,,,
757039,-3.2873938,9.497912,-3.109147,0.769822,0.602138,-3.7424018,117.9,-162.90001,-19.5,,,x,,,
757059,-3.7389917,10.082896,-3.6426907,0.83842,0.022866,-3.475632,105.9,-167.70001,-18.900002,,,x,,,
757079,-3.1306803,10.172019,-3.4130037,0.503052,-2.461906,-3.513742,120.3,-160.5,-20.1,,,x,,,
757099,-2.72813,9.956688,-2.3309631,-0.426832,-3.39179,-3.064044,105.9,-158.1,-17.7,,,x,,,
757119,-3.0935955,9.969847,-2.3201966,-0.785066,0.487808,-2.888738,120.3,-160.5,-21.900002,,,x,,,
757143,-3.0894084,10.005137,-3.6839626,0.099086,1.204276,-2.949714,122.700005,-162.90001,-28.500002,,,x,,,
757163,-2.9757612,9.843638,-2.999687,0.182928,-0.93750596,-2.6677,132.3,-155.70001,-18.900002,,,x,,,
757224,-2.8932176,9.3346195,-3.4112093,0.868908,0.121952,-2.347576,120.3,-165.3,-25.500002,,,,,,
757244,-2.5558648,9.750329,-3.1522136,0.716468,-0.503052,-1.6463519,134.70001,-158.1,-14.1,,,,,,
757264,-2.2872987,9.859191,-3.0140424,0.198172,-0.221038,-1.440558,144.3,-150.90001,-16.5,,,,,,
757284,-2.112043,9.680346,-3.0971844,-0.045732,0.23628199,-1.532022,132.3,-155.70001,-24.900002,,,,,,
757304,-2.0701728,9.118092,-3.028996,-0.015244,0.487808,-1.3643379,127.50001,-150.90001,-23.7,,,,,,
757368,-1.2531096,9.198841,-2.6043146,0.137196,0.121952,0.67835796,141.90001,-148.5,-23.7,,,,,,
757434,-0.55328226,8.866273,-2.7562428,0.358234,-0.72409,0.22865999,144.3,-153.3,-16.5,,,,,,
757531,-0.27993092,9.051698,-2.765215,-1.082324,-0.33536798,-0.846042,139.5,-158.1,-23.1,,,,,,
757551,-0.3505118,8.785524,-2.7957203,-0.586894,-0.160062,-0.518296,134.70001,-155.70001,-21.900002,,,,,,
757591,-0.5885727,8.813637,-2.6569512,-0.426832,0.320124,-0.83842,141.90001,-150.90001,-17.7,,,,,,
757631,-1.598238,8.590529,-2.5552669,1.082324,-0.068598,0.137196,132.3,-155.70001,-19.5,,,,,,
757729,-4.422669,10.112803,-4.196571,-0.015244,1.4024479,0.030488,146.70001,-160.5,-32.100002,,,x,,,
757834,-4.5572515,9.104334,-3.0104535,-2.82014,-0.53354,4.855214,132.3,-165.3,-24.300001,,,x,,,
757856,-3.8927145,8.83517,-2.865105,-2.370442,0.967994,5.14485,120.3,-158.1,-17.1,,,x,,,
757876,-2.8854418,8.780141,-2.8501513,-1.760682,0.586894,4.123502,101.100006,-153.3,-21.300001,,,x,,,
757897,-2.6252494,8.442788,-2.6629324,-1.455802,0.091464,3.490876,117.9,-165.3,-25.500002,,,x,,,
757918,-1.5133017,8.180801,-2.0420601,-1.211898,-0.426832,3.58234,105.9,-165.3,-24.900002,,,x,,,
757938,-0.8487649,7.8087564,-1.795027,-1.280496,0.716468,3.361302,105.9,-162.90001,-18.900002,,,x,,,
757961,-0.09151588,7.631108,-1.9212352,-0.975616,1.463424,3.536608,101.100006,-160.5,-24.900002,,,x,,,
757981,0.38101706,7.73997,-1.8901318,-0.373478,1.4024479,3.8033779,86.700005,-174.90001,-24.300001,,,x,,,
758001,0.62027425,7.7214274,-1.9553294,0.045732,1.501534,3.376546,89.100006,-174.90001,-23.7,,,x,,,
758021,0.9277198,7.3272514,-2.0049753,1.089946,1.326228,2.865872,79.5,-170.1,-20.1,,,x,,,
758042,1.4451134,7.278802,-1.8117751,1.166166,0.449698,3.2241058,72.3,-174.90001,-20.7,,,x,,,
758063,2.2364566,8.05579,-1.6287433,0.525918,0.67835796,3.064044,69.9,-170.1,-23.7,,,x,,,
758083,2.3028505,7.726213,-1.6759967,-0.33536798,1.6082419,1.8902559,74.700005,-162.90001,-21.300001,,,x,,,
758125,3.3795078,7.149603,-2.22569,0.213416,1.56251,2.446662,65.100006,-167.70001,-22.5,,,x,,,
758145,3.9920063,7.5282273,-2.1258001,-0.16768399,1.1356779,3.6585598,65.100006,-170.1,-22.5,,,x,,,
758165,4.945446,8.7950945,-2.6473808,0.19055,1.29574,4.565578,69.9,-179.70001,-18.300001,,,x,,,
758185,4.71217,8.887806,-2.6156793,-0.251526,1.1051899,3.7424018,53.100002,-167.70001,-18.900002,,,x,,,
758205,4.9699697,8.321365,-2.8555346,-0.060976,0.45731997,2.660078,38.7,-170.1,-17.7,,,x,,,
758247,5.4987283,9.063063,-2.4224792,-0.602138,0.602138,2.812518,45.9,-172.5,-21.300001,,,x,,,
758269,5.007055,8.518154,-2.485284,-0.7622,0.41921,1.8750119,50.7,-179.70001,-21.300001,,,x,,,
758289,5.3910627,8.430227,-2.2597842,-0.213416,-0.045732,1.775926,38.7,-177.3,-17.1,,,x,,,
758311,5.8719697,8.759804,-1.9290111,-0.373478,0.365856,2.423796,31.500002,-172.5,-24.900002,,,x,,,
758331,5.5035133,8.945827,-2.0797431,-0.861286,1.082324,2.7972739,45.9,-172.5,-21.300001,,,x,,,
758351,5.702097,9.323853,-2.3943663,-0.289636,1.1432999,2.7744079,38.7,-165.3,-24.900002,,,x,,,
758371,5.400633,8.811842,-2.3201966,-0.3811,0.55640596,1.463424,36.300003,-165.3,-20.7,,,x,,,
758391,5.8426604,9.005641,-2.4003477,0.121952,0.099086,1.577754,29.1,-189.3,-18.900002,,,x,,,
758411,6.020907,9.220972,-2.2585878,-0.11432999,0.358234,1.25763,29.1,-186.90001,-14.700001,,,x,,,
758433,5.9479337,9.774853,-2.6880546,0.0,0.510674,0.548784,41.100002,-177.3,-21.900002,,,x,,,
758453,5.732602,8.939845,-2.4111142,-0.030488,-0.525918,-0.967994,21.900002,-182.1,-15.3,,,x,,,
758473,6.5729933,9.309497,-1.9134594,0.26677,-0.67835796,-1.06708,26.7,-170.1,-24.300001,,,x,,,
758494,6.3283525,9.585241,-2.0342844,-0.434454,0.655492,-1.509156,33.9,-179.70001,-13.500001,,,x,,,
758514,6.2069297,9.69829,-2.0336862,-0.160062,0.434454,-1.56251,38.7,-177.3,-18.900002,,,x,,,
758534,5.973654,9.579858,-1.4439172,-0.091464,0.16768399,-2.97258,38.7,-182.1,-23.7,,,x,,,
758558,7.1053405,9.076221,-1.3715419,0.45731997,0.251526,-3.589962,53.100002,-177.3,-17.7,,,x,,,
758579,6.399532,9.107923,-1.225595,0.007622,1.417692,-2.408552,26.7,-177.3,-18.900002,,,x,,,
758599,6.0466275,9.557727,-2.3650572,0.41921,2.042696,-2.7744079,50.7,-174.90001,-21.300001,,,x,,,
758619,5.609385,8.476284,-2.1927922,0.82317597,0.11432999,-5.0533857,53.100002,-170.1,-17.7,,,x,,,
758639,5.744565,7.967264,-2.2699525,1.547266,-0.64787,-5.076252,60.300003,-182.1,-20.1,,,x,,,
758659,5.560337,8.041434,-2.2585878,1.158544,-1.158544,-3.986306,67.5,-167.70001,-12.900001,,,x,,,
758681,5.673984,9.23473,-2.7251394,0.510674,-1.074702,-3.498498,65.100006,-184.5,-23.1,,,x,,,
758701,5.048925,7.995975,-2.1395574,-1.18141,-1.684462,-5.152472,67.5,-165.3,-20.1,,,x,,,
758721,4.6170654,7.0066466,-1.6628375,-1.463424,-1.1128119,-5.205826,74.700005,-174.90001,-12.900001,,,x,,,
758741,3.7330103,6.552058,-1.6430987,-1.3414719,-0.099086,-4.5731997,65.100006,-170.1,-21.300001,,,x,,,
758782,1.150229,6.3774004,-1.6143879,-1.051836,0.739334,-2.599102,72.3,-167.70001,-22.5,,,x,,,
758802,-0.4982531,6.664509,-2.3495057,-0.663114,1.3948259,-2.7058098,89.100006,-167.70001,-20.7,,,x,,,
758822,-1.4821982,6.9288883,-3.095988,0.0,0.49543,-2.652456,89.100006,-167.70001,-21.900002,,,x,,,
758842,-2.096491,7.472002,-3.116923,0.327746,-1.56251,-2.2561119,81.9,-160.5,-18.300001,,,x,,,
758862,-2.3489075,8.325552,-3.3005528,0.15244,-2.080806,-1.94361,84.3,-167.70001,-25.500002,,,x,,,
758882,-2.6085014,7.7746625,-3.054118,-0.541162,-2.843006,-2.576236,91.5,-165.3,-17.1,,,x,,,
758902,-2.7783742,8.812441,-2.7574391,-0.81555396,-3.452766,-1.478668,101.100006,-162.90001,-21.900002,,,x,,,
758922,-3.3418248,9.820312,-2.999687,-1.21952,0.708846,-3.2850819,103.50001,-165.3,-23.7,,,x,,,
758942,-3.8305075,9.13125,-3.7060938,-0.83842,1.1128119,-4.809482,103.50001,-153.3,-16.5,,,x,,,
758966,-3.9800434,9.632494,-3.5087066,-0.327746,-1.204276,-4.245454,105.9,-158.1,-20.1,,,x,,,
758986,-3.965688,9.816723,-2.9099655,-0.49543,-1.082324,-4.596066,115.50001,-162.90001,-21.900002,,,x,,,
759006,-4.01653,10.091868,-3.3310583,0.11432999,0.617382,-4.26832,113.100006,-160.5,-26.1,,,x,,,
759026,-3.7467675,10.098448,-3.6337185,-0.007622,0.541162,-4.26832,110.700005,-162.90001,-27.300001,,,x,,,
759046,-3.4752107,9.5661,-3.3358433,0.33536798,-0.7622,-3.635694,125.100006,-160.5,-28.500002,,,x,,,
759066,-2.9673872,9.606774,-2.86989,0.045732,-0.57164997,-2.812518,108.3,-155.70001,-23.7,,,x,,,
759086,-2.827422,9.603784,-3.2192054,0.3811,1.29574,-2.32471,127.50001,-162.90001,-23.7,,,x,,,
759106,-2.7018118,9.728197,-3.9112568,0.846042,0.746956,-2.042696,117.9,-153.3,-18.900002,,,x,,,
759126,-2.3441224,9.589428,-3.5505767,0.967994,-1.1280559,-1.798792,125.100006,-150.90001,-15.900001,,,x,,,
759146,-1.9050853,9.559521,-3.0194256,0.26677,-1.798792,-1.082324,132.3,-148.5,-17.7,,,x,,,
759166,-1.7334183,9.287964,-2.8052905,-0.46494198,-0.320124,-0.983238,139.5,-153.3,-23.1,,,x,,,
759186,-1.7435868,8.749037,-3.1659708,-0.45731997,1.1128119,-0.754578,132.3,-148.5,-20.1,,,,,,
759206,-1.4588706,9.334021,-3.4494905,-0.15244,0.129574,0.259148,129.90001,-138.90001,-14.700001,,,,,,
759228,-1.4498986,9.055286,-2.836394,-0.853664,-0.579272,-0.099086,141.90001,-162.90001,-23.7,,,,,,
759248,-1.0850314,9.208411,-2.8896286,-0.632626,0.106708,0.388722,132.3,-155.70001,-23.7,,,,,,
759269,-0.86611104,9.585241,-2.9273117,-0.830798,0.49543,0.213416,120.3,-141.3,-20.7,,,,,,
759289,-0.8021097,9.200037,-3.0846233,-0.60976,0.617382,-0.068598,125.100006,-148.5,-22.5,,,,,,
759312,-0.42946666,9.156373,-2.902788,-0.259148,-0.541162,0.22865999,120.3,-150.90001,-26.1,,,,,,
759332,-0.23327576,9.292151,-2.6826713,-0.144818,-0.586894,0.320124,129.90001,-153.3,-23.7,,,,,,
759352,-0.3295768,9.280189,-2.731719,-0.297258,-0.144818,-0.33536798,127.50001,-148.5,-22.5,,,,,,
759372,-0.22490175,9.109119,-2.9279099,-0.07622,-0.182928,-0.739334,129.90001,-160.5,-21.300001,,,,,,
759394,-0.17705032,9.085194,-2.832207,-0.11432999,-0.663114,-0.586894,122.700005,-153.3,-21.300001,,,,,,
759414,-0.3881948,8.831581,-2.5995293,-0.251526,-0.49543,-0.487808,132.3,-158.1,-18.300001,,,,,,
759434,-0.55986184,9.439893,-2.7885425,-0.23628199,-0.091464,-0.015244,137.1,-162.90001,-21.300001,,,,,,
759455,-0.61190027,9.394434,-2.6569512,-0.68597996,-0.60976,-0.03811,134.70001,-153.3,-23.1,,,,,,
759475,-1.501937,8.8579,-2.4111142,-1.3948259,-0.55640596,0.510674,129.90001,-155.70001,-17.1,,,,,,
759495,-2.7580373,9.51466,-2.8896286,-1.036592,1.41007,1.6006199,132.3,-153.3,-21.300001,,,x,,,
759515,-4.3365364,11.318061,-3.9040792,-0.396344,3.864354,1.920744,137.1,-148.5,-15.3,,,x,,,
759535,-5.4706154,12.47487,-5.193077,-0.67073596,3.8033779,0.487808,125.100006,-160.5,-21.900002,,,x,,,
759555,-5.664414,9.6307,-5.4125957,-0.434454,0.007622,0.57164997,129.90001,-158.1,-23.7,,,x,,,
759575,-5.586057,9.973436,-4.898193,-1.318606,-1.760682,2.050318,120.3,-153.3,-21.900002,,,x,,,
759635,-4.8706784,9.425537,-4.322181,-2.012208,-0.510674,2.7515419,132.3,-160.5,-18.900002,,,x,,,
759657,-4.094887,9.011622,-3.1067545,-2.8048959,-3.338436,1.692084,125.100006,-155.70001,-21.300001,,,x,,,
759677,-3.438724,7.764494,-1.8596265,-1.242386,-3.498498,0.35061198,115.50001,-165.3,-22.5,,,x,,,
759697,-2.652166,7.7698774,-1.2309783,-0.708846,-2.355198,0.23628199,115.50001,-158.1,-22.5,,,x,,,
759717,-2.1569035,7.253082,-0.87089616,-0.525918,-0.16768399,-0.46494198,113.100006,-158.1,-26.1,,,x,,,
759737,-1.5246664,6.8768497,-0.96121573,-0.03811,0.81555396,-0.579272,110.700005,-162.90001,-24.300001,,,x,,,
759757,-1.2572966,6.385774,-0.6764997,-0.030488,0.731712,-0.41158798,127.50001,-158.1,-25.500002,,,x,,,
759780,-0.36845607,7.0796204,-0.66274244,0.30488,0.69360197,0.830798,113.100006,-162.90001,-24.300001,,,x,,,
759800,0.76083785,7.884721,-0.7171734,0.22865999,1.150922,1.272874,110.700005,-165.3,-23.7,,,x,,,
759822,1.4481041,8.360245,-1.0198338,-0.365856,1.471046,1.250008,117.9,-162.90001,-23.1,,,x,,,
759842,1.3697474,7.638884,-1.2961758,-1.6463519,2.317088,0.853664,122.700005,-165.3,-23.7,,,x,,,
759862,1.5994343,7.668791,-1.7968215,-2.111294,3.384168,0.868908,105.9,-167.70001,-16.5,,,x,,,
759882,2.5738091,8.797487,-3.0188277,-1.33385,3.650938,1.173788,115.50001,-153.3,-20.1,,,x,,,
759906,2.761626,7.910441,-2.6348197,-0.983238,-1.516778,0.34298998,113.100006,-170.1,-21.300001,,,x,,,
759926,3.4423127,7.7375774,-1.3757288,-0.144818,-2.980202,1.8445239,105.9,-160.5,-23.1,,,x,,,
759947,3.8095727,9.763488,-1.7250444,0.251526,0.861286,3.635694,108.3,-165.3,-24.300001,,,x,,,
759967,3.899892,10.147495,-2.0091622,0.007622,0.899396,2.675322,105.9,-162.90001,-21.900002,,,x,,,
759987,4.0859146,9.07024,-1.7477738,0.259148,0.541162,2.027452,96.3,-182.1,-23.1,,,x,,,
760007,4.1517105,9.469201,-1.7244462,0.274392,0.853664,3.2622159,84.3,-160.5,-17.1,,,x,,,
760027,4.4154916,10.4148655,-2.4248717,0.525918,2.126538,3.6966698,81.9,-174.90001,-26.7,,,x,,,
760047,4.4956427,10.344883,-2.2286806,0.3811,0.754578,2.652456,84.3,-170.1,-28.500002,,,x,,,
