time,sensor_accX,sensor_accY,sensor_accZ,sensor_gyroX,sensor_gyroY,sensor_gyroZ,sensor_magX,sensor_magY,sensor_magZ,label_Boxing_slip_left,label_Boxing_slip_right,label_Boxing_pullback,label_Boxing_roll_left,label_Boxing_roll_right,label_Boxing_recording_cut
581754,3.0768476,8.217288,-3.0056684,1.6082419,-1.516778,-3.117398,67.5,-172.5,-25.500002,,,,,,
581774,3.0343792,7.9840126,-2.8429735,1.509156,-1.722572,-2.088428,57.9,-172.5,-17.1,,,,,,
581794,2.9566207,7.9684606,-2.6144829,0.30488,-1.1432999,-2.13416,74.700005,-174.90001,-16.5,,,,,,
581814,2.7251394,7.6801558,-2.7622242,0.586894,-0.3811,-2.89636,67.5,-162.90001,-18.900002,,,,,,
581834,3.024211,7.866178,-2.857329,0.358234,-0.64787,-2.309466,79.5,-165.3,-24.300001,,,,,,
581854,3.2323647,8.1365385,-2.6892507,-0.030488,-0.632626,-1.8597679,77.100006,-170.1,-19.5,,,,,,
581874,2.987724,7.6119676,-2.7197561,-0.060976,-0.388722,-2.157026,67.5,-165.3,-18.300001,,,,,,
581894,3.0858195,7.8625894,-3.0517254,0.83842,0.0,-1.1051899,65.100006,-174.90001,-21.300001,,,,,,
581918,3.1581948,8.964369,-3.1898966,0.41158798,-0.68597996,-0.640248,74.700005,-172.5,-20.7,,,,,,
581938,3.1145306,8.868068,-3.5122955,0.60976,-0.221038,-0.594516,72.3,-177.3,-26.1,,,,,,
581958,3.0744548,8.858498,-3.547586,0.777444,-0.746956,-0.846042,77.100006,-165.3,-18.900002,,,,,,
581979,2.707195,9.046912,-3.4153965,0.56402797,-1.1356779,-0.480186,101.100006,-162.90001,-22.5,,,,,,
581999,2.363263,8.814235,-3.3807042,0.137196,-1.21952,-0.975616,81.9,-174.90001,-18.300001,,,,,,
582019,1.4205896,8.415274,-3.1019695,0.213416,-1.493912,-1.3948259,81.9,-162.90001,-19.5,,,,,,
582041,0.9953099,10.005137,-3.410013,0.72409,-1.18141,-0.548784,89.100006,-165.3,-19.5,,,,,,
582062,0.99710435,11.298323,-3.463846,-0.35061198,-1.6311079,-1.234764,79.5,-174.90001,-23.1,,,,,,
582082,0.8559426,10.268919,-2.6958303,-1.3567159,-2.416174,-3.4299,77.100006,-170.1,-18.900002,,,,,,
582104,0.15372275,8.798085,-1.9170482,-1.318606,-1.227142,-3.856732,98.700005,-174.90001,-29.7,,,,,,
582124,0.25660333,10.261143,-2.2226992,-1.570132,0.182928,-1.6006199,77.100006,-162.90001,-18.300001,,,,,,
582144,-0.32060462,9.600793,-2.012153,-2.2637339,1.478668,-2.7972739,89.100006,-172.5,-18.300001,,,,,,
582164,-0.8936256,8.839356,-2.0647895,-1.265252,1.471046,-2.850628,98.700005,-170.1,-23.1,,,,,,
582184,-1.1430513,8.879433,-2.0342844,-0.80793196,1.432936,-1.6311079,89.100006,-167.70001,-26.7,,,,,,
582204,-1.0347873,8.682643,-2.0187325,-0.792688,1.280496,-1.250008,101.100006,-165.3,-12.900001,,,,,,
582224,-0.9271216,8.417068,-1.8841504,0.099086,0.67073596,-0.45731997,110.700005,-174.90001,-18.300001,,,,,,
582244,-0.78416544,8.565408,-1.7764846,-0.137196,0.3811,0.388722,98.700005,-172.5,-25.500002,,,,,,
582264,-0.6669294,8.275907,-1.7585404,-0.053354,0.480186,0.16768399,105.9,-158.1,-17.1,,,,,,
582284,-0.1782466,8.621035,-1.8865429,-0.160062,0.503052,0.64787,105.9,-170.1,-24.900002,,,,,,
582304,0.2266962,8.680849,-2.1945865,-0.17530599,0.33536798,0.289636,93.9,-167.70001,-16.5,,,,,,
582328,0.5706284,9.034351,-2.3501036,0.525918,0.243904,0.327746,98.700005,-158.1,-14.700001,,,,,,
582348,0.70760316,9.292749,-2.3453186,0.426832,0.083841994,-0.16768399,96.3,-179.70001,-21.900002,,,,,,
582368,0.67291087,9.250281,-2.3291688,0.289636,0.33536798,-0.92226195,98.700005,-162.90001,-23.1,,,,,,
582388,0.28770676,9.777245,-3.0182295,0.708846,1.280496,-1.1051899,91.5,-167.70001,-18.900002,,,,,,
582408,0.03409415,9.3998165,-3.4441073,0.67835796,0.91463995,-2.065562,101.100006,-167.70001,-26.1,,,,,,
582428,0.27215505,9.797582,-3.49794,1.18141,-0.487808,-1.6006199,96.3,-158.1,-20.1,,,,,,
582449,0.11424531,9.890892,-3.343619,0.777444,-0.40396598,-2.042696,96.3,-162.90001,-17.1,,,,,,
582469,-0.10646945,9.154578,-3.6068022,0.83842,-0.068598,-2.416174,101.100006,-155.70001,-26.1,,,,,,
582490,-0.3295768,8.640774,-3.6115873,1.196654,-0.28201398,-2.187514,113.100006,-167.70001,-20.1,,,,,,
582511,-0.3259879,8.66111,-3.6385038,1.166166,-0.510674,-1.074702,105.9,-158.1,-24.300001,,,,,,
582531,-0.026318291,9.252673,-3.5541656,0.830798,-0.41921,0.083841994,113.100006,-160.5,-13.500001,,,,,,
582551,0.6657331,10.16544,-3.7132716,0.487808,0.19055,1.3643379,98.700005,-172.5,-24.900002,,,,,,
582572,0.84039086,9.844835,-3.74916,-0.846042,-0.426832,0.365856,101.100006,-160.5,-14.700001,,,,,,
582592,0.6178817,7.952909,-2.8435717,-0.442076,-0.92226195,0.655492,108.3,-148.5,-16.5,,,,,,
582612,1.1059663,8.847731,-2.7819629,-0.64787,-0.777444,1.806414,110.700005,-170.1,-24.300001,,,,,,
582632,1.2058562,9.855601,-2.5367243,-1.699706,-0.41158798,1.013726,115.50001,-162.90001,-17.1,,,,,,
582652,0.80749303,8.627614,-2.6497734,-1.463424,0.67073596,-0.83842,103.50001,-165.3,-17.1,,,,,,
582675,0.6083114,8.900966,-2.5762017,-0.64787,0.23628199,-0.17530599,110.700005,-162.90001,-18.900002,,,,,,
582695,0.31701577,8.8256,-2.4153013,-0.899396,0.3811,-0.708846,103.50001,-167.70001,-26.1,,,,,,
582715,0.20815375,8.5678,-2.5116024,-0.769822,0.746956,-0.617382,113.100006,-160.5,-14.700001,,,,,,
582735,0.2254999,8.945827,-2.6545584,-0.449698,1.006104,-0.099086,101.100006,-162.90001,-15.3,,,,,,
582756,0.18602246,9.011622,-2.8064868,-0.35061198,1.3567159,-0.251526,98.700005,-160.5,-20.7,,,,,,
582776,0.26557547,8.919508,-3.015837,0.19055,1.097568,-0.137196,110.700005,-160.5,-28.500002,,,,,,
582796,0.3283805,8.831581,-2.8543382,0.221038,0.510674,0.213416,113.100006,-158.1,-21.900002,,,,,,
582816,0.24822934,8.930873,-2.8046925,0.434454,0.907018,0.46494198,101.100006,-167.70001,-21.300001,,,,,,
582836,0.38520408,9.30531,-3.0200238,0.785066,1.303362,0.617382,101.100006,-160.5,-24.900002,,,,,,
582876,0.7548564,9.44707,-3.2012613,0.251526,0.106708,0.510674,105.9,-165.3,-15.900001,,,,,,
582896,0.2560052,9.227551,-2.9889205,-0.198172,-0.289636,0.312502,103.50001,-167.70001,-21.300001,,,,,,
582938,0.43484995,9.33761,-3.040959,-0.442076,-0.106708,-0.40396598,103.50001,-174.90001,-15.900001,,,,,,
582958,0.5473008,8.905152,-3.0200238,-0.57164997,-0.160062,-0.754578,96.3,-165.3,-18.300001,,,,,,
582979,0.3271842,8.778346,-2.819646,-0.64787,-0.53354,-0.388722,103.50001,-150.90001,-15.3,,,,,,
583002,0.47971067,9.412976,-2.8214405,-1.051836,0.19055,-0.49543,108.3,-162.90001,-11.700001,,,,,,
583043,0.48688838,8.795692,-2.6132867,-0.83842,0.221038,-0.480186,103.50001,-165.3,-20.1,,,,,,
583065,0.5335435,9.169532,-2.7030082,-0.625004,0.92988396,0.099086,101.100006,-167.70001,-17.1,,,,,,
583105,0.5496934,9.258655,-2.8519456,-0.274392,0.388722,-0.358234,98.700005,-170.1,-23.1,,,,,,
583125,0.6292464,9.043921,-2.7849536,-0.35061198,0.34298998,-0.67835796,101.100006,-162.90001,-23.1,,,,,,
583145,0.53892684,8.732289,-2.777776,-0.23628199,0.3811,-0.55640596,98.700005,-155.70001,-17.1,,,,,,
583168,0.4384388,9.061866,-2.8214405,-0.297258,0.41921,-0.327746,91.5,-165.3,-14.700001,,,,,,
583189,0.061010584,9.081007,-3.0505292,-0.632626,0.23628199,-0.907018,110.700005,-160.5,-21.900002,,,,,,
583209,0.037683006,8.871058,-3.083427,-0.518296,-0.007622,-1.280496,101.100006,-174.90001,-14.700001,,,,,,
583230,0.5544785,9.166541,-2.902788,-0.884152,-1.082324,-0.83842,113.100006,-165.3,-20.1,,,,,,
583291,0.43066293,8.949415,-2.8920212,-0.708846,0.625004,0.182928,113.100006,-162.90001,-21.900002,,,,,,
583311,0.43784064,9.341199,-2.874675,-0.632626,0.045732,-0.426832,108.3,-158.1,-20.1,,,,,,
583331,0.54371196,9.0977545,-2.677886,-0.518296,-0.015244,-1.3643379,105.9,-170.1,-20.1,,,,,,
583351,0.7476787,8.871058,-2.6593437,-0.07622,-0.144818,-0.853664,103.50001,-162.90001,-23.7,,,,,,
583411,0.5790024,9.326843,-2.2938783,-0.640248,0.525918,-0.45731997,117.9,-172.5,-19.5,,,,,,
583431,0.24882747,9.064857,-2.0558174,-0.144818,0.442076,-0.99086,110.700005,-167.70001,-24.300001,,,,,,
583452,0.21473333,9.408789,-1.7495682,0.41921,0.221038,-0.579272,110.700005,-162.90001,-27.300001,,,,,,
583472,0.047253296,9.682738,-1.510311,0.33536798,-0.091464,-0.594516,105.9,-170.1,-25.500002,,,,,,
583492,0.05203844,9.473987,-1.0772555,0.07622,-0.663114,-0.40396598,108.3,-160.5,-21.300001,,,,,,
583512,-0.21951847,8.992481,-0.36247465,-0.586894,-1.3719599,0.022866,117.9,-160.5,-22.5,,,,,x,
583532,-0.32359535,8.729897,-0.29189378,0.091464,-1.196654,0.602138,110.700005,-165.3,-21.900002,,,,,x,
583552,-0.15850788,8.866872,-0.073571585,0.861286,-1.974098,1.318606,103.50001,-158.1,-15.3,,,,,x,
583572,-0.23207948,8.728701,0.12202117,0.998482,-3.650938,1.158544,115.50001,-160.5,-16.5,,,,,x,
583592,-0.59694666,7.8135414,0.11424531,1.250008,-5.282046,0.899396,103.50001,-167.70001,-18.300001,,,,,x,
583612,-0.62326497,7.133453,0.18602246,1.250008,-8.11743,1.089946,101.100006,-158.1,-20.1,,,,,x,
583632,-0.008374002,6.824213,0.3409415,1.783548,-11.128119,1.1128119,98.700005,-158.1,-22.5,,,,,x,
583652,0.020935005,5.6016088,0.52457136,1.6387299,-13.521428,0.213416,115.50001,-167.70001,-21.300001,,,,,x,
583672,0.5161974,4.195375,0.57601166,2.187514,-15.808027,-0.19055,113.100006,-162.90001,-21.900002,,,,,x,
583692,1.3183072,3.2861974,0.93190676,2.888738,-16.65407,-0.388722,105.9,-150.90001,-20.7,,,,,x,
583712,1.7633255,3.0732586,0.1794429,3.92533,-15.54888,-0.358234,110.700005,-170.1,-22.5,,,,,x,
583732,2.205353,3.4153965,-0.59275967,3.7652678,-14.474177,-1.288118,122.700005,-170.1,-21.300001,,,,,x,
583752,2.2197087,3.3705356,-0.95942134,3.407034,-13.170815,-1.8978779,115.50001,-158.1,-22.5,,,,,x,
583772,1.7836623,3.2628698,-1.7734939,2.97258,-10.472628,-3.589962,120.3,-160.5,-24.300001,,,,,x,
583814,1.5761068,3.0511272,-3.5422027,1.6311079,-4.733262,-6.920776,120.3,-165.3,-15.3,,,,,x,
583834,1.2596891,2.3590758,-5.338426,3.4299,0.49543,-7.2409,122.700005,-162.90001,-23.1,,,,,x,
583894,-0.3714468,6.9851136,-7.7232223,1.02897,2.492394,-10.807996,132.3,-141.3,-21.900002,,,,,x,
583914,-1.3380458,6.639985,-9.110913,2.888738,6.532054,-11.798856,163.5,-150.90001,-18.900002,,,,,x,
583934,-0.9444677,7.182501,-10.39393,0.899396,5.510706,-11.608306,156.3,-124.50001,-23.7,,,,,x,
583954,-1.2441374,6.9294863,-9.734179,-1.41007,1.211898,-11.966539,161.1,-138.90001,-19.5,,,,,x,
583974,-1.8051955,8.705971,-8.8381605,-0.746956,1.585376,-9.763782,175.5,-129.3,-18.900002,,,,,x,
583994,-3.5703154,9.137232,-8.737075,-1.570132,12.256176,-12.515324,197.1,-126.9,-17.7,,,,,x,
584014,-4.169655,7.9726477,-9.531408,0.487808,17.286695,-13.03362,209.1,-110.100006,-11.700001,,,,,x,
584035,-4.5524664,7.827897,-13.370888,3.1859958,21.981848,-7.865904,206.70001,-105.3,-11.1,,,,,x,
584055,-2.0761542,11.258247,-13.693885,0.16768399,10.617446,-4.4360037,216.3,-105.3,-15.3,,,,,x,
584077,-5.136254,12.229033,-11.292939,-2.903982,7.294254,-6.082356,209.1,-93.3,-15.900001,,,,,x,
584098,-6.0729456,12.746427,-11.432306,-1.532022,16.326324,-7.187546,206.70001,-100.50001,-8.1,,,,,x,
584138,-8.013321,9.855003,-12.711735,-2.492394,17.789747,-9.1159115,225.90001,-95.700005,-2.7,,,,,x,
584158,-8.068351,12.24937,-13.070621,-3.399412,14.641862,-5.5793037,209.1,-66.9,-6.9,,,,,x,
584178,-7.388262,12.839139,-11.904242,-5.37351,8.0945635,-7.118948,206.70001,-74.100006,-6.9,,,,,x,
584198,-9.540978,11.458027,-9.213196,-6.66925,4.176856,-8.208894,228.3,-81.3,-3.3000002,,,,,x,
584240,-7.67238,14.746018,-10.878427,-4.618932,14.611374,-1.204276,221.1,-69.3,0.3,,,,,x,
584260,-9.6049795,13.076003,-8.673073,-9.847624,2.827762,-4.9009457,223.50002,-76.5,0.90000004,,,,,x,
584280,-9.646252,12.736856,-7.0066466,-7.339986,6.5549197,1.173788,211.50002,-86.100006,-3.3000002,,,,,x,
584300,-8.166446,13.32184,-5.7337985,-10.472628,-1.1432999,1.6463519,218.70001,-83.700005,-2.1000001,,,,,x,
584320,-9.310096,12.226641,-3.7090845,-11.829344,-4.733262,0.739334,228.3,-83.700005,0.3,,,,,x,
584340,-12.155461,10.984298,-0.9378882,-8.925362,1.8369019,3.0488,218.70001,-98.100006,-5.7000003,,,,,x,
584380,-7.0640683,13.501882,-3.1193156,-9.786648,2.042696,7.751574,192.3,-110.100006,-17.1,,,,,x,
584400,-6.9384584,12.751212,-0.6495833,-9.847624,-2.675322,8.750056,180.3,-110.100006,-15.3,,,,,x,
584422,-6.5353103,12.322344,0.3481192,-8.247004,1.3795819,8.529017,180.3,-119.700005,-9.3,,,,,x,
584443,-7.1896787,9.352564,-0.8840553,-6.806446,2.027452,6.791202,189.90001,-131.70001,-12.900001,,,,,x,
584463,-7.7459517,8.363833,-0.7877543,-6.684494,-1.48629,9.9086,180.3,-126.9,-14.700001,,,,,x,
584483,-6.453963,10.321555,-1.501937,-6.920776,-3.7500238,13.856795,170.70001,-146.1,-20.1,,,,,x,
584503,-5.702695,9.570886,-1.4241784,-7.43145,-7.400962,12.7668495,153.90001,-143.70001,-19.5,,,,,x,
584523,-4.6535525,7.6364913,-1.2166228,-7.187546,-10.480249,10.815618,141.90001,-141.3,-23.1,,,,,x,
584543,-2.9428635,5.6590304,-1.2249968,-5.586926,-13.437586,9.016826,132.3,-162.90001,-20.1,,,,,x,
584563,-1.7328202,3.8257225,-0.41451308,-3.346058,-17.751638,8.551884,125.100006,-155.70001,-18.900002,,,,,x,
584583,-1.5629476,3.3232822,0.5736191,-1.8826339,-16.12815,8.788166,125.100006,-162.90001,-25.500002,,,,,x,
584605,-0.34991363,3.9854267,-1.0210301,0.594516,-12.797338,9.093046,127.50001,-155.70001,-23.7,,,,,x,
584627,0.6585554,3.890322,-0.5191881,1.265252,-14.771436,8.018344,110.700005,-172.5,-30.900002,,,,,x,
584647,1.3900843,3.326273,0.38998923,1.425314,-11.875075,6.93602,103.50001,-167.70001,-24.900002,,,,,x,
584667,1.8111769,3.915444,-0.73810846,2.09605,-6.829312,6.196686,101.100006,-160.5,-25.500002,,,,,x,
584749,3.9148457,4.237843,-2.3746276,1.8673899,-3.422278,5.990892,84.3,-174.90001,-21.300001,,,,,x,
584795,4.317396,5.965878,-2.36745,-0.320124,-0.525918,1.150922,72.3,-167.70001,-12.900001,,,,,x,
584815,4.4842777,6.626228,-2.5415094,-0.11432999,0.17530599,0.40396598,81.9,-186.90001,-25.500002,,,,,x,
584855,4.2276745,7.64666,-2.548089,0.899396,1.3414719,-0.030488,72.3,-174.90001,-21.300001,,,,,x,
584895,3.5386138,7.7046795,-3.4997346,1.8750119,2.6981878,-1.25763,84.3,-167.70001,-29.7,,,,,x,
585034,1.6161823,8.388955,-3.0738568,-0.81555396,1.051836,-1.737816,74.700005,-172.5,-21.900002,,,,,,
585054,1.7423905,9.181495,-3.2323647,0.312502,0.442076,-0.579272,77.100006,-160.5,-20.7,,,,,,
585074,1.5994343,9.22157,-2.8058887,-0.625004,-0.16768399,-1.1356779,72.3,-158.1,-18.300001,,,,,,
585094,1.5677327,8.618044,-2.5827813,-0.7622,0.213416,-1.41007,93.9,-165.3,-20.1,,,,,,
585114,1.8159621,9.2484865,-2.61867,-0.35061198,0.632626,-0.87653,81.9,-165.3,-24.900002,,,,,,
585134,1.3398403,9.240711,-2.5002377,-0.487808,1.006104,-1.3795819,91.5,-167.70001,-20.1,,,,,,
585154,1.0276096,9.591821,-2.7592335,-0.053354,1.006104,-1.699706,81.9,-172.5,-21.300001,,,,,,
585214,0.63702226,9.510473,-2.7580373,-0.20579399,1.166166,-0.487808,91.5,-165.3,-25.500002,,,,,,
585234,0.39357808,8.838758,-2.6294365,-0.320124,0.274392,-0.55640596,96.3,-155.70001,-22.5,,,,,,
585254,0.4970568,8.957191,-2.4864802,-0.26677,0.083841994,-0.373478,86.700005,-167.70001,-22.5,,,,,,
585274,0.9648046,9.303515,-2.4787045,-0.259148,0.274392,0.015244,91.5,-162.90001,-12.900001,,,,,,
585294,0.6543684,9.700085,-2.5744073,-0.7622,0.754578,0.41158798,93.9,-155.70001,-20.1,,,,,,
585318,0.2841179,9.426733,-2.5235653,-1.326228,0.213416,-0.15244,103.50001,-158.1,-21.300001,,,,,,
585338,-0.19918162,8.908143,-1.940974,-0.983238,-0.93750596,-0.121952,84.3,-162.90001,-23.7,,,,,,
585362,0.37264308,9.643261,-1.4816002,-0.26677,-1.8292799,0.861286,103.50001,-165.3,-17.7,,,,,x,
585382,0.4258778,10.044017,0.41451308,-0.830798,-4.5274677,0.40396598,93.9,-167.70001,-20.1,,,,,x,
585405,0.24164976,8.735878,2.1814275,-1.9054999,-3.475632,-1.173788,84.3,-162.90001,-27.900002,,,,,x,
585426,-0.28710863,6.9845157,2.008564,-1.02897,-3.2317278,-1.775926,89.100006,-170.1,-21.300001,,,,,x,
585446,-0.57122654,6.7237253,2.046247,1.318606,-4.771372,-1.044214,98.700005,-167.70001,-21.300001,,,,,x,
585466,-0.9396826,5.982626,1.5360311,2.6677,-6.760714,-0.91463995,103.50001,-174.90001,-12.900001,,,,,x,
585486,-0.4175038,5.6626196,1.159201,4.4969797,-10.968058,1.1280559,96.3,-165.3,-18.900002,,,,,x,
585506,-0.36367092,5.5806737,0.9677953,4.489358,-12.126602,1.478668,96.3,-174.90001,-21.300001,,,,,x,
585526,-0.26378104,4.7175536,0.8978126,3.871976,-13.98637,1.318606,101.100006,-172.5,-18.300001,,,,,x,
585570,0.12022674,2.6946342,0.024523862,1.463424,-15.251621,0.975616,91.5,-170.1,-21.900002,,,,,x,
585590,0.5484971,2.5959406,-0.10108616,0.92988396,-15.731808,0.861286,98.700005,-165.3,-27.300001,,,,,x,
585634,1.7358109,3.3501987,-3.2479162,1.8673899,-5.556438,-1.509156,89.100006,-162.90001,-28.500002,,,,,x,
585654,1.6969316,4.489063,-5.630918,4.359784,-4.4207597,-3.01069,96.3,-160.5,-17.1,,,,,x,
585674,1.8267286,4.6170654,-6.2691364,2.55337,-9.054935,-4.740884,120.3,-165.3,-23.1,,,,,x,
585694,0.8475686,3.9722674,-5.143431,0.045732,-9.161644,-6.654006,108.3,-165.3,-22.5,,,,,x,
585754,1.1382661,9.267627,-10.699581,2.2865999,6.8674216,-10.823239,122.700005,-148.5,-18.900002,,,,,x,
585774,0.2380609,6.2816973,-11.709247,4.1921,4.679908,-15.541258,137.1,-138.90001,-23.1,,,,,x,
585814,-0.3439322,7.123883,-10.3825655,-1.288118,-1.1051899,-10.762263,151.5,-138.90001,-24.900002,,,,,x,
585834,-0.06280501,11.499299,-10.128355,-1.1280559,4.443626,-8.025966,165.90001,-134.1,-18.900002,,,,,x,
585854,-0.75904346,12.212285,-10.683432,-0.442076,12.721118,-14.009235,165.90001,-119.700005,-13.500001,,,,,x,
585874,-2.1287909,9.560718,-12.263127,2.903982,17.477245,-18.856827,170.70001,-112.50001,-15.3,,,,,x,
585894,-4.4489875,8.208914,-13.666968,1.8597679,18.338531,-17.11139,189.90001,-112.50001,-17.1,,,,,x,
585914,-4.9891105,9.138429,-14.423619,0.586894,17.75926,-11.669282,201.90001,-110.100006,-10.5,,,,,x,
585934,-4.6260376,11.806745,-14.682017,-1.303362,13.445208,-8.696702,206.70001,-100.50001,-11.700001,,,,,x,
585954,-6.010739,12.312175,-13.376869,-3.92533,9.923843,-11.082388,204.3,-107.700005,-7.5000005,,,,,x,
585974,-7.7118573,10.685824,-12.470683,-3.376546,13.68149,-13.140327,218.70001,-98.100006,-12.3,,,,,x,
585994,-9.8562,9.664196,-13.432497,-1.471046,16.997059,-10.777508,209.1,-86.100006,-9.3,,,,,x,
586016,-9.123475,13.891273,-12.863065,-7.804928,7.0351057,-5.37351,230.70001,-86.100006,-4.5,,,,,x,
586036,-12.8337555,11.976617,-9.901061,-8.948228,5.0838737,-9.710428,228.3,-78.9,-8.700001,,,,,x,
586058,-11.241499,11.739154,-9.266431,-6.394858,3.01069,-4.359784,228.3,-78.9,-3.3000002,,,,,x,
586078,-11.491523,15.036716,-6.78653,-12.27142,-0.731712,-0.487808,230.70001,-88.5,-3.3000002,,,,,x,
586138,-10.865267,12.278081,-3.075053,-14.451312,-4.626554,-1.707328,230.70001,-98.100006,-10.5,,,,,x,
586288,-7.003656,7.776457,1.7184647,-5.929916,-6.082356,10.472628,204.3,-122.100006,-27.900002,,,,,x,
586350,-4.191786,6.663313,1.6634356,-2.7744079,-5.9375377,12.118979,182.70001,-143.70001,-25.500002,,,,,x,
586550,2.1174262,4.1804214,-2.1012762,4.740884,-0.708846,2.111294,110.700005,-148.5,-18.900002,,,,,x,
586587,2.5540705,4.35807,-2.4308531,3.2393498,-0.640248,3.437522,108.3,-165.3,-21.300001,,,,,x,
586607,3.1246989,5.296556,-3.150419,3.170752,-0.358234,4.984788,108.3,-162.90001,-20.7,,,,,x,
586690,4.195973,8.765187,-3.786245,1.768304,1.326228,2.36282,91.5,-172.5,-15.900001,,,,,,
586733,2.6707084,7.391851,-4.627234,2.568614,0.23628199,-1.783548,96.3,-165.3,-18.900002,,,,,,
586828,2.2478213,9.235328,-3.6420925,0.07622,0.007622,-1.730194,103.50001,-162.90001,-16.5,,,,,,
586871,1.0509372,8.744252,-3.3615634,0.503052,0.20579399,-0.655492,96.3,-160.5,-21.300001,,,,,,
586970,-0.0681883,8.555837,-2.9937055,-0.64787,0.785066,-1.509156,93.9,-170.1,-27.300001,,,,,,
587130,-0.055627298,9.420154,-2.8878343,0.28201398,0.82317597,-0.70122397,105.9,-155.70001,-21.900002,,,,,,
587150,0.08433816,8.893189,-2.7574391,0.15244,0.33536798,-1.021348,108.3,-160.5,-20.1,,,,,,
587193,0.023925718,9.27301,-3.2903845,0.19055,0.754578,-0.3811,96.3,-165.3,-18.300001,,,,,,
587213,0.16030231,9.4428835,-3.421378,0.045732,0.243904,-0.22865999,93.9,-174.90001,-21.300001,,,,,,
587233,0.28830492,9.292749,-3.116325,-0.434454,-0.091464,-0.28201398,101.100006,-165.3,-21.300001,,,,,,
587256,0.51978624,9.237122,-3.1241007,-0.7622,0.160062,-0.41921,110.700005,-165.3,-21.300001,,,,,,
587317,1.321896,8.530117,-2.4583676,-1.71495,0.625004,-1.8902559,115.50001,-167.70001,-23.1,,,,,,
587337,1.5426108,8.211905,-2.393768,-1.204276,1.044214,-1.501534,110.700005,-158.1,-25.500002,,,,,,
587357,1.4355432,8.478677,-2.3824034,-1.234764,1.3948259,-1.242386,98.700005,-170.1,-12.900001,,,,,,
587377,1.0611056,9.025977,-2.761626,-0.274392,1.8673899,-1.493912,115.50001,-172.5,-20.1,,,,,,
587397,0.31701577,9.557128,-3.3089268,0.274392,1.94361,-2.004586,101.100006,-162.90001,-25.500002,,,,,,
587417,-0.08314187,9.146204,-3.5176787,0.40396598,1.3414719,-2.339954,110.700005,-160.5,-29.1,,,,,,
587437,0.2171259,9.4644165,-3.2162147,0.82317597,0.49543,-1.768304,110.700005,-160.5,-19.5,,,,,,
587457,0.10048802,9.069044,-3.0846233,0.106708,1.310984,-1.6234859,117.9,-153.3,-23.1,,,,,,
587477,0.03229972,9.484155,-3.0523236,-0.03811,1.3948259,-0.92226195,108.3,-155.70001,-20.1,,,,,,
587499,-0.07775859,9.225159,-3.0068648,-0.625004,1.94361,-1.3872039,134.70001,-158.1,-24.900002,,,,,,
587520,-0.1447506,8.814833,-2.9972944,-0.541162,2.065562,-1.280496,134.70001,-155.70001,-18.300001,,,,,,
587580,-0.6041244,9.13125,-2.7981129,-0.16768399,1.6234859,-0.975616,132.3,-153.3,-21.900002,,,,,,
587607,-0.56285256,9.142017,-2.7921314,-0.068598,1.6234859,-0.731712,125.100006,-162.90001,-19.5,,,,,,
587627,-0.62745196,9.269422,-2.9817426,-0.091464,1.501534,-0.754578,127.50001,-162.90001,-19.5,,,,,,
587667,-0.4635608,8.984107,-2.91176,-0.091464,1.310984,-0.34298998,129.90001,-155.70001,-21.300001,,,,,,
587730,-0.7333233,8.908741,-2.7592335,-0.015244,1.5929979,-0.81555396,122.700005,-158.1,-21.900002,,,,,x,
587750,-0.66453683,9.148597,-2.5367243,0.510674,0.967994,-0.434454,127.50001,-158.1,-9.900001,,,,,x,
587771,-0.8726906,9.161756,-2.0025826,0.22865999,0.34298998,-0.320124,127.50001,-162.90001,-14.1,,,,,x,
587791,-1.3236904,8.930275,-1.3858973,-0.320124,-0.137196,-0.792688,127.50001,-153.3,-22.5,,,,,x,
587851,-1.4648521,7.7824383,0.46236452,-0.33536798,-4.214966,-0.64787,122.700005,-162.90001,-22.5,,,,,x,
587873,-1.828523,6.527534,0.7010236,-0.35061198,-5.388754,-0.67835796,132.3,-158.1,-18.900002,,,,,x,
587893,-1.3452235,6.602302,0.45578495,0.739334,-7.27901,0.365856,125.100006,-167.70001,-14.700001,,,,,x,
587913,-1.5761068,5.3940535,0.6830793,0.34298998,-10.21348,-0.92226195,120.3,-155.70001,-20.1,,,,,x,
587934,-0.2865105,4.6236453,0.7201641,1.501534,-12.035138,0.129574,139.5,-162.90001,-17.7,,,,,x,
587954,0.008972145,4.8300047,0.7123883,1.06708,-12.972644,-0.022866,132.3,-153.3,-20.1,,,,,x,
587974,0.27394947,3.6432889,0.44860724,0.121952,-12.743983,-1.6463519,144.3,-158.1,-25.500002,,,,,x,
587994,-0.18961132,2.5002377,-0.26138848,1.280496,-11.867454,-2.01983,132.3,-155.70001,-27.300001,,,,,x,
588014,0.4874865,3.999782,-0.7040143,2.7134318,-12.835447,-0.068598,129.90001,-158.1,-22.5,,,,,x,
588037,0.60352623,4.502222,-0.7668193,1.75306,-11.257693,-1.051836,127.50001,-158.1,-26.7,,,,,x,
588057,0.4456165,4.466932,-2.0773506,1.1432999,-8.132674,-1.242386,139.5,-150.90001,-24.300001,,,,,x,
588097,-0.2380609,5.0692616,-4.5165777,1.1432999,-2.027452,-1.1356779,129.90001,-158.1,-20.1,,,,,x,
588118,-0.34632477,5.8384733,-6.6417794,3.460388,1.4024479,-0.17530599,132.3,-146.1,-26.7,,,,,x,
588138,1.3081387,7.655632,-7.7250166,1.974098,-3.7500238,0.93750596,139.5,-155.70001,-18.900002,,,,,x,
588180,-1.3619715,6.538899,-6.378597,0.320124,4.61131,-6.951264,141.90001,-150.90001,-26.7,,,,,x,
588205,-0.49526238,7.815336,-8.8058605,4.275942,9.824758,-4.054904,146.70001,-150.90001,-21.900002,,,,,x,
588225,0.36725977,11.329426,-10.369407,3.170752,7.0046177,-1.71495,151.5,-150.90001,-26.1,,,,,x,
588265,-0.21832219,12.024468,-9.261645,0.34298998,1.6158639,-10.335432,170.70001,-141.3,-18.900002,,,,,x,
588286,-2.0534248,10.0697365,-8.402114,0.30488,6.196686,-12.218065,168.3,-124.50001,-20.1,,,,,x,
588306,-2.4428158,11.692499,-9.869957,2.05794,12.911668,-8.757678,187.5,-131.70001,-18.900002,,,,,x,
588327,-2.121015,12.850504,-11.21518,2.004586,14.2531395,-9.5275,177.90001,-129.3,-15.3,,,,,x,
588347,-2.7018118,11.8833065,-11.929961,2.332332,12.340017,-11.09001,187.5,-117.3,-18.900002,,,,,x,
588367,-3.861013,11.061458,-12.154265,0.967994,9.611341,-9.977198,197.1,-114.9,-10.5,,,,,x,
588387,-3.773684,11.684723,-11.441278,-0.525918,8.239382,-8.833898,192.3,-112.50001,-11.700001,,,,,x,
588407,-4.0261,12.994058,-11.439485,-0.56402797,11.676904,-8.010722,199.50002,-95.700005,-9.900001,,,,,x,
588427,-4.88623,13.073012,-12.456925,-0.312502,13.940638,-9.100668,209.1,-110.100006,-11.700001,,,,,x,
588447,-6.1847982,11.072225,-12.278081,-1.463424,9.832379,-11.455866,209.1,-105.3,-11.1,,,,,x,
588467,-8.105435,10.990279,-10.92867,-4.9314337,6.638762,-8.53664,218.70001,-86.100006,-15.900001,,,,,x,
588490,-9.53081,11.567487,-9.774853,-4.9771657,7.751574,-5.800342,209.1,-86.100006,-8.1,,,,,x,
588510,-8.282486,11.986785,-9.057081,-4.4664917,2.461906,-5.228692,228.3,-83.700005,-9.900001,,,,,x,
588532,-12.850504,10.332322,-4.04225,-5.18296,0.81555396,-5.94516,233.1,-83.700005,-15.3,,,,,x,
588552,-10.88022,12.436588,-4.556653,0.030488,7.9649897,0.92226195,221.1,-76.5,-7.5000005,,,,,x,
588572,-8.644362,16.401081,-4.157692,-4.72564,8.04121,4.53509,233.1,-98.100006,-5.1000004,,,,,x,
588592,-10.267124,17.101505,-4.0721574,-5.0533857,16.402544,1.432936,225.90001,-95.700005,-5.7000003,,,,,x,
588612,-9.951902,13.977405,-7.046124,-1.775926,18.742498,-0.182928,225.90001,-102.9,-11.1,,,,,x,
588632,-9.872948,11.718817,-7.031171,-6.844556,5.061008,2.035074,216.3,-90.9,-4.5,,,,,x,
588654,-9.655822,10.536288,-3.0140424,-10.381164,-5.86894,4.794238,206.70001,-117.3,-9.3,,,,,x,
588674,-7.774064,10.194749,-0.2045649,-6.5854077,-3.856732,7.446694,213.90001,-112.50001,-6.3,,,,,x,
588694,-6.5939283,10.179197,-0.019140575,-6.5549197,3.1859958,8.1555395,201.90001,-114.9,-2.7,,,,,x,
588714,-5.794211,8.86089,-1.447506,-6.8979096,5.6097918,7.134192,192.3,-119.700005,-6.9,,,,,x,
588734,-5.3689313,7.576079,-1.6425006,-5.9985137,1.204276,7.149436,204.3,-117.3,-11.700001,,,,,x,
588754,-5.0925894,6.8463445,-0.65795726,-6.3872356,-1.272874,7.797306,180.3,-126.9,-20.7,,,,,x,
588774,-4.9298944,5.7032933,-0.40554094,-6.699738,-1.5244,6.8674216,180.3,-131.70001,-13.500001,,,,,x,
588796,-4.1875987,4.4035287,-0.60173184,-4.847592,-2.2713559,7.522914,170.70001,-131.70001,-15.3,,,,,x,
588816,-3.2413368,4.7935176,-0.26916432,-4.893324,-4.03966,10.083906,165.90001,-138.90001,-17.7,,,,,x,
588838,-2.7963183,4.941259,-0.5263658,-4.054904,-3.589962,9.60372,163.5,-150.90001,-17.7,,,,,x,
588858,-2.3991516,3.7659082,-0.42408335,-2.82014,-5.160094,7.43145,158.70001,-153.3,-20.7,,,,,x,
588880,-1.1412568,3.317301,-0.27394947,-2.012208,-6.768336,8.3842,146.70001,-160.5,-21.300001,,,,,x,
588900,-0.83799833,3.7389917,-0.19320019,-2.301844,-6.455834,7.50767,141.90001,-162.90001,-22.5,,,,,x,
588920,-0.2769402,3.5565581,-0.49047723,-1.211898,-7.027484,6.219552,125.100006,-146.1,-18.900002,,,,,x,
588943,0.60472256,3.736001,-0.13996546,-0.53354,-7.9649897,6.234796,117.9,-160.5,-22.5,,,,,x,
588963,1.5336386,4.7091794,-0.047253296,-0.35061198,-7.8887696,6.760714,122.700005,-160.5,-24.300001,,,,,x,
588983,1.9373851,5.0124383,-0.08254373,-0.198172,-6.8369336,6.051868,117.9,-148.5,-24.900002,,,,,x,
589003,2.045649,5.266649,0.1321896,0.083841994,-6.59303,5.9527817,125.100006,-160.5,-23.1,,,,,x,
589023,2.3441224,5.9969816,0.10826388,0.099086,-5.838452,5.94516,108.3,-160.5,-21.900002,,,,,x,
589045,3.0929973,6.6106763,-0.36367092,0.099086,-4.862836,5.5793037,98.700005,-162.90001,-15.900001,,,,,x,
589065,3.5661285,6.741071,-0.8852516,0.426832,-4.146368,4.5122237,108.3,-165.3,-23.7,,,,,x,
589085,3.1904945,6.6621165,-1.4337487,1.6387299,-2.873494,3.513742,103.50001,-158.1,-24.300001,,,,,x,
589109,3.9597065,7.8960853,-2.3662536,2.355198,-2.500016,3.346058,96.3,-167.70001,-26.7,,,,,x,
589129,4.003371,8.298038,-2.8381884,1.044214,-0.82317597,2.05794,74.700005,-165.3,-16.5,,,,,,
589149,3.2712438,7.9020667,-3.836489,2.2637339,1.722572,-0.106708,72.3,-177.3,-20.1,,,,,,
589171,3.4793978,8.281289,-5.228368,4.024416,1.71495,0.30488,93.9,-170.1,-18.900002,,,,,,
589191,3.4883697,9.718627,-5.193077,2.13416,-1.532022,1.516778,74.700005,-160.5,-21.300001,,,,,,
589211,2.7670095,9.017005,-4.4376225,0.846042,-1.166166,-0.30488,89.100006,-170.1,-23.1,,,,,,
589233,2.5534723,8.597109,-4.414893,0.92226195,-0.70122397,-1.013726,86.700005,-162.90001,-17.1,,,,,,
589253,2.2783265,8.68384,-4.5973268,0.297258,0.967994,-0.57164997,86.700005,-160.5,-23.7,,,,,,
589275,1.9349926,9.2054205,-4.5829716,-0.449698,0.94512796,-0.655492,74.700005,-165.3,-18.900002,,,,,,
589295,1.7549515,8.697597,-3.844265,-0.792688,0.899396,-1.1432999,79.5,-167.70001,-28.500002,,,,,,
589355,1.4953574,8.91891,-2.8525438,-1.3567159,1.6234859,-1.1051899,81.9,-167.70001,-20.1,,,,,,
589375,1.3183072,9.095961,-2.848955,-1.173788,1.920744,-1.288118,81.9,-160.5,-26.1,,,,,,
589395,1.0006932,8.981116,-2.5594537,-1.1128119,1.760682,-1.951232,86.700005,-167.70001,-19.5,,,,,,
589415,1.1227144,8.729299,-2.5259578,-0.754578,1.8597679,-1.661596,89.100006,-162.90001,-23.7,,,,,,
589435,0.69564027,8.805263,-2.584576,-0.373478,2.17227,-0.93750596,81.9,-172.5,-13.500001,,,,,,
589455,0.5885727,8.857301,-2.6970267,-0.312502,2.080806,-0.67073596,101.100006,-158.1,-17.7,,,,,,
589475,0.753062,8.957191,-2.5558648,-0.091464,1.6006199,-0.40396598,93.9,-160.5,-22.5,,,,,,
589495,0.912168,9.015211,-2.6037164,0.030488,1.806414,-0.442076,96.3,-158.1,-24.300001,,,,,,
589519,0.7805766,9.049903,-2.7921314,-0.144818,1.8826339,-0.868908,93.9,-155.70001,-20.7,,,,,,
589539,0.69085515,9.251477,-3.0636883,0.030488,1.958854,-0.67835796,86.700005,-170.1,-16.5,,,,,,
589559,0.7428936,9.210205,-3.049931,-0.19055,1.539644,-0.7622,84.3,-170.1,-17.7,,,,,,
589580,0.8762795,9.061866,-2.903984,-0.11432999,1.166166,-0.55640596,96.3,-162.90001,-16.5,,,,,,
589600,0.83799833,9.17013,-2.9099655,-0.099086,1.196654,-0.312502,91.5,-170.1,-12.3,,,,,,
589624,0.7805766,9.169532,-2.8088794,-0.365856,0.99086,-0.510674,79.5,-165.3,-18.900002,,,,,,
589644,0.9241309,9.195251,-2.7347097,-0.67073596,0.93750596,-0.739334,81.9,-170.1,-25.500002,,,,,,
589668,0.9767675,9.073231,-2.3106263,-0.49543,0.80030996,-0.49543,93.9,-167.70001,-16.5,,,,,,
589688,0.723753,9.0188,-2.280121,-1.06708,0.967994,-0.663114,98.700005,-177.3,-17.7,,,,,,
589708,0.5748154,8.826198,-1.8680005,-0.396344,0.365856,-0.64787,96.3,-172.5,-22.5,,,,,,
589731,0.7201641,9.855003,-1.5677327,0.3811,-0.07622,0.320124,108.3,-170.1,-15.900001,,,,,x,
589751,0.07177716,9.299927,-0.83799833,-0.56402797,-0.72409,-0.289636,84.3,-153.3,-21.300001,,,,,x,
589773,0.28591233,9.176709,-0.03409415,0.45731997,-1.814036,0.35061198,89.100006,-177.3,-21.900002,,,,,x,
589793,0.4898791,8.808253,1.150229,-0.70122397,-2.378064,0.312502,79.5,-153.3,-22.5,,,,,x,
589813,-0.50602895,6.547273,1.5892658,-0.861286,-2.2865999,-1.036592,96.3,-162.90001,-25.500002,,,,,x,
589833,-0.55986184,6.4282427,1.7076982,1.3490939,-3.1936178,1.310984,89.100006,-165.3,-15.3,,,,,x,
589856,-0.799119,6.5167675,0.95463616,2.385686,-6.661628,0.716468,101.100006,-167.70001,-20.7,,,,,x,
589877,-0.5305528,5.995187,0.71657526,3.132642,-10.655556,0.20579399,96.3,-174.90001,-18.900002,,,,,x,
589897,-0.3074455,4.6242433,0.77997845,3.1859958,-14.17692,-0.40396598,108.3,-170.1,-18.300001,,,,,x,
589917,0.54789895,4.1858044,0.8864479,3.8262439,-16.692179,0.602138,93.9,-170.1,-15.900001,,,,,x,
589937,1.3452235,3.93279,1.0395725,3.033556,-17.408648,0.754578,101.100006,-153.3,-20.1,,,,,x,
589959,1.0539279,2.994902,0.67171454,2.644834,-17.172365,-0.16768399,103.50001,-162.90001,-20.1,,,,,x,
589979,1.1723602,2.1174262,0.15073203,2.408552,-16.341568,-1.18141,93.9,-165.3,-21.900002,,,,,x,
590001,1.8022047,2.0169382,-1.1310884,3.132642,-14.016858,-1.6158639,105.9,-174.90001,-15.3,,,,,x,
590021,2.5050228,2.4930599,-2.72813,3.7119138,-11.105254,-2.500016,98.700005,-155.70001,-21.300001,,,,,x,
590083,1.2913907,3.72344,-7.6640058,3.2698379,-1.8597679,-8.147918,113.100006,-158.1,-12.3,,,,,x,
590153,-0.3271842,8.505593,-10.640366,2.065562,6.8598,-12.911668,139.5,-141.3,-14.700001,,,,,x,
590211,-0.9654028,10.620626,-10.203123,-2.522882,2.157026,-8.010722,158.70001,-129.3,-12.900001,,,,,x,
590247,-4.6996093,9.276599,-10.847921,3.094532,14.001614,-14.97723,175.5,-122.100006,-17.1,,,,,x,
590267,-5.0357656,9.536792,-13.329617,3.62045,18.651033,-12.058003,194.70001,-105.3,-9.900001,,,,,x,
590310,-3.769497,12.619022,-14.701158,-2.2713559,3.2545938,-8.986338,187.5,-98.100006,-9.900001,,,,,x,
590330,-5.737387,11.964654,-10.880818,-7.1418138,-3.871976,-10.053418,187.5,-107.700005,-11.1,,,,,x,
590350,-9.811937,12.331315,-9.53739,-4.4360037,10.190614,-8.841519,199.50002,-98.100006,-11.1,,,,,x,
590374,-5.589048,14.729271,-13.2871475,-2.599102,16.593094,-8.170784,206.70001,-78.9,-9.900001,,,,,x,
590394,-9.115101,14.146081,-12.364812,-6.455834,11.440621,-10.1677475,223.50002,-81.3,-5.7000003,,,,,x,
590414,-9.340002,12.752408,-11.831866,-5.75461,9.03207,-9.611341,221.1,-81.3,-8.700001,,,,,x,
590434,-10.1014385,11.715228,-9.755712,-9.237864,3.483254,-7.3171196,228.3,-81.3,-6.9,,,,,x,
590457,-12.12376,12.5526285,-7.512078,-9.984819,5.632658,-2.949714,233.1,-90.9,-6.3,,,,,x,
590497,-10.286264,14.298608,-7.486357,-10.625068,4.809482,0.769822,209.1,-81.3,-14.700001,,,,,x,
590610,-7.2016416,11.2570505,-0.6806867,-8.666214,0.35061198,9.885734,187.5,-124.50001,-12.900001,,,,,x,
590630,-6.5867505,9.457238,-0.30445477,-6.74547,4.352162,6.661628,194.70001,-122.100006,-11.1,,,,,x,
590673,-4.8946037,5.8929048,0.39896137,-4.5731997,-1.8978779,5.175338,177.90001,-110.100006,-19.5,,,,,x,
590693,-3.8251243,7.9588904,0.70042545,-5.4878397,-0.373478,7.69822,175.5,-131.70001,-14.700001,,,,,x,
590735,-3.016435,3.1767373,1.472628,-4.4512477,-5.625036,1.189032,168.3,-136.5,-17.1,,,,,x,
590850,1.1077608,3.0128462,-0.67470527,-0.510674,-9.580853,7.9192576,120.3,-167.70001,-27.900002,,,,,x,
590870,0.1309933,1.8117751,0.2266962,-0.899396,-10.2897,9.809514,105.9,-165.3,-23.1,,,,,x,
590913,3.7126734,5.2181993,-0.21592961,-1.440558,-6.4786997,7.271388,93.9,-170.1,-24.900002,,,,,x,
590933,3.7365992,3.978847,-1.3242885,-0.312502,-3.7957559,2.964958,84.3,-165.3,-26.1,,,,,x,
590955,4.999877,4.57699,-1.1340791,0.907018,-6.257662,2.36282,91.5,-160.5,-20.1,,,,,x,
590975,5.841464,5.945541,-0.6830793,0.602138,-4.847592,1.5244,84.3,-165.3,-21.900002,,,,,x,
590995,5.505906,5.9790373,-1.4152063,0.891774,-2.179892,-0.548784,77.100006,-170.1,-28.500002,,,,,x,
591015,4.4872684,5.827109,-1.9906198,2.903982,-0.49543,-1.044214,77.100006,-162.90001,-31.500002,,,,,x,
591035,4.1235976,7.321868,-2.301056,3.147886,-0.548784,0.373478,86.700005,-177.3,-27.900002,,,,,,
591055,2.9769576,8.034855,-2.6096978,2.43904,0.746956,0.083841994,81.9,-172.5,-24.900002,,,,,,
591095,2.103669,8.833974,-3.710281,2.614346,0.259148,-0.442076,86.700005,-174.90001,-26.7,,,,,,
591115,2.3501036,9.220374,-3.853237,2.469528,0.068598,-0.053354,84.3,-170.1,-24.300001,,,,,,
591135,2.321991,9.271814,-4.0601945,2.2408679,0.23628199,-0.099086,81.9,-172.5,-26.7,,,,,,
591155,2.334552,8.856105,-3.8735738,1.585376,-0.503052,-0.56402797,89.100006,-174.90001,-19.5,,,,,,
591179,2.5086117,9.487743,-3.5326324,1.082324,0.739334,-0.49543,89.100006,-170.1,-23.1,,,,,,
591199,1.9619089,9.52124,-4.084718,0.297258,2.065562,-1.196654,81.9,-177.3,-22.5,,,,,,
591221,1.7160722,9.253272,-3.898696,0.137196,1.3567159,-1.684462,98.700005,-162.90001,-21.900002,,,,,,
591241,1.4247766,9.033753,-3.4046297,-0.45731997,1.425314,-1.6006199,86.700005,-165.3,-18.900002,,,,,,
591263,1.0658908,8.80287,-3.1851113,-1.1051899,2.050318,-1.211898,89.100006,-172.5,-19.5,,,,,,
591283,1.0198338,9.216785,-3.0110517,-1.242386,1.996964,-0.785066,93.9,-158.1,-20.7,,,,,,
591306,0.76083785,8.806459,-2.7855518,-1.471046,2.560992,-1.41007,91.5,-179.70001,-18.900002,,,,,,
591326,0.6382185,8.590529,-2.5576594,-1.051836,2.13416,-0.884152,91.5,-172.5,-26.1,,,,,,
591409,0.70461243,9.240711,-2.5319393,-0.060976,1.9054999,-0.81555396,103.50001,-162.90001,-25.500002,,,,,,
591450,0.7692119,9.082203,-2.4416196,0.045732,0.983238,-0.68597996,105.9,-170.1,-16.5,,,,,,
591470,0.7877543,9.197046,-2.4194884,-0.129574,0.72409,-0.68597996,101.100006,-170.1,-20.1,,,,,,
591510,0.8864479,9.076221,-2.6539605,-0.480186,0.26677,-0.586894,96.3,-162.90001,-23.1,,,,,,
591554,0.87089616,9.177308,-2.2286806,-1.417692,-0.80793196,-0.312502,96.3,-167.70001,-15.3,,,,,,
591574,0.6585554,9.307703,-2.1299872,-0.853664,-1.051836,-0.518296,105.9,-170.1,-28.500002,,,,,,
591594,0.50423455,9.7455435,-1.6724077,-0.510674,-1.29574,-0.541162,91.5,-162.90001,-21.300001,,,,,x,
591614,0.1752559,10.221665,-1.1717621,-0.792688,-1.745438,-0.83842,98.700005,-155.70001,-18.900002,,,,,x,
591637,0.032897864,9.866368,-0.62027425,-0.91463995,-1.3490939,-1.06708,103.50001,-165.3,-24.900002,,,,,x,
591657,-0.736314,8.613258,-0.023925718,-0.92988396,-2.583858,-0.94512796,103.50001,-165.3,-26.1,,,,,x,
591679,-1.7435868,7.132855,0.778184,0.0,-3.6738038,0.022866,93.9,-179.70001,-26.7,,,,,x,
591699,-0.98514146,8.0498085,0.8798683,1.989342,-4.824726,2.2637339,101.100006,-170.1,-14.700001,,,,,x,
591719,-0.9576269,8.420657,0.61429286,2.2942219,-7.179924,1.71495,96.3,-170.1,-29.7,,,,,x,
591742,-0.69504213,7.4821706,0.35948393,2.32471,-10.7241535,1.173788,86.700005,-160.5,-23.1,,,,,x,
591762,-0.36725977,6.1393394,0.5987411,2.89636,-14.184542,0.861286,98.700005,-165.3,-23.1,,,,,x,
591804,0.8086893,4.6966186,0.6519758,2.530504,-17.995543,1.6158639,91.5,-165.3,-20.7,,,,,x,
591824,0.73511773,3.5595489,0.5030382,2.6981878,-18.59768,0.47256398,103.50001,-162.90001,-23.1,,,,,x,
591844,0.52277696,2.573211,0.10288059,2.454284,-18.666277,-0.060976,91.5,-170.1,-21.900002,,,,,x,
591864,0.5484971,1.9445628,-0.5682358,2.93447,-17.774504,-0.47256398,105.9,-162.90001,-24.900002,,,,,x,
591886,1.4923667,1.7370071,-1.5408163,3.856732,-16.46352,-0.739334,86.700005,-167.70001,-30.900002,,,,,x,
591906,2.4410214,2.0976875,-2.6515677,6.36437,-12.118979,-0.60976,101.100006,-167.70001,-24.900002,,,,,x,
591926,3.6839626,4.749255,-4.732507,7.9345016,-9.657074,0.358234,89.100006,-162.90001,-24.900002,,,,,x,
591946,1.8955151,3.8227317,-4.627832,5.510706,-6.8598,-5.236314,115.50001,-167.70001,-18.300001,,,,,x,
591966,1.7465775,4.056606,-6.2685385,6.532054,-1.532022,-5.701256,105.9,-160.5,-24.300001,,,,,x,
591989,1.0533298,4.6051025,-7.061676,2.987824,-0.967994,-6.951264,91.5,-167.70001,-19.5,,,,,x,
592009,0.3002678,5.965878,-7.7369795,3.589962,1.8369019,-7.179924,110.700005,-158.1,-19.5,,,,,x,
592030,0.2978752,6.9641786,-9.219177,3.6890478,5.914672,-8.87963,120.3,-150.90001,-19.5,,,,,x,
592050,0.3409415,6.3038287,-10.172019,1.692084,3.2469718,-11.250072,137.1,-148.5,-18.300001,,,,,x,
592111,-1.9308056,9.465014,-9.040333,0.92226195,12.324774,-13.239413,149.1,-134.1,-20.7,,,,,x,
592131,-2.4954524,8.016312,-12.257744,3.940574,13.308012,-17.065659,173.1,-117.3,-15.900001,,,,,x,
592152,-3.2712438,7.602397,-11.626703,-0.106708,7.01224,-16.15864,187.5,-124.50001,-16.5,,,,,x,
592172,-4.6080933,9.220374,-10.957979,0.69360197,7.4848037,-13.91015,197.1,-102.9,-12.900001,,,,,x,
592192,-4.995092,10.907735,-11.749921,1.6387299,10.884215,-13.551916,201.90001,-105.3,-6.9,,,,,x,
592212,-5.626731,11.774445,-12.178789,-0.853664,10.960436,-15.045828,213.90001,-102.9,-12.3,,,,,x,
592273,-7.4911427,12.208098,-13.6107435,-5.121984,8.338468,-9.100668,228.3,-69.3,-5.7000003,,,,,x,
592293,-8.716738,12.674051,-11.919195,-7.8277936,6.608274,-10.17537,245.1,-62.100002,-1.5,,,,,x,
592313,-9.481762,10.602084,-11.1380205,-6.143332,8.7653,-11.768368,235.50002,-74.100006,-2.7,,,,,x,
592356,-9.562511,12.575357,-11.27978,-8.818654,10.190614,-4.237832,240.3,-62.100002,-9.900001,,,,,x,
592397,-11.679339,9.532006,-7.7722697,-10.411652,5.4268637,-5.495462,237.90001,-64.5,-2.1000001,,,,,x,
592440,-10.503988,11.891681,-6.5466747,-13.368988,2.507638,-0.731712,252.3,-71.700005,-8.700001,,,,,x,
592549,-8.501406,9.916014,-1.2566984,-10.868972,-0.60976,7.782062,237.90001,-100.50001,-17.7,,,,,x,
592653,-5.103356,5.513682,0.99710435,-6.4634557,-4.679908,6.78358,199.50002,-134.1,-25.500002,,,,,x,
592674,-4.042848,4.9717646,1.2566984,-4.100636,-6.0290017,9.885734,194.70001,-129.3,-23.1,,,,,x,
592694,-2.9362838,6.5185623,1.4786094,-3.910086,-6.13571,11.562573,165.90001,-143.70001,-24.900002,,,,,x,
592758,-1.3500087,3.656448,0.4438221,-0.137196,-8.086942,6.814068,149.1,-146.1,-21.300001,,,,,x,
592833,-0.016748004,3.2909827,-0.7171734,2.652456,-5.4116197,4.474114,132.3,-158.1,-24.300001,,,,,x,
592875,1.7734939,4.801294,-0.32778236,3.132642,-8.346089,7.16468,117.9,-155.70001,-26.7,,,,,x,
592895,2.970976,5.429942,-0.9390845,3.7042918,-4.862836,6.280528,115.50001,-167.70001,-29.7,,,,,x,
592915,3.8873312,5.9880095,-1.4720298,3.513742,-4.161612,4.72564,89.100006,-160.5,-30.300001,,,,,x,
592955,4.042848,6.255379,-2.0271065,3.7728899,-1.25763,3.856732,93.9,-172.5,-26.7,,,,,x,
593031,3.5553617,7.733989,-3.363956,2.080806,1.44818,-0.182928,91.5,-160.5,-28.500002,,,,,x,
593065,3.0188277,8.053995,-3.564932,1.9054999,0.144818,-0.3811,89.100006,-167.70001,-28.500002,,,,,x,
593085,2.4799008,8.915321,-3.5972319,1.6158639,1.234764,-0.16768399,79.5,-172.5,-23.1,,,,,x,
593125,1.6323322,8.847731,-3.5284455,-0.11432999,0.274392,-1.8978779,86.700005,-167.70001,-26.1,,,,,,
593145,1.3984582,8.762197,-3.188102,-0.198172,0.41921,-1.722572,84.3,-167.70001,-24.900002,,,,,,
593165,1.2010711,9.19585,-3.4578645,0.28201398,1.6463519,-1.250008,86.700005,-165.3,-20.7,,,,,,
593185,0.9019996,8.884816,-3.1444376,0.07622,0.289636,-1.006104,84.3,-158.1,-19.5,,,,,,
593205,0.9061866,8.909938,-2.912358,-0.060976,0.030488,-0.487808,101.100006,-172.5,-23.1,,,,,,
593225,1.0850314,9.1294565,-2.794524,-0.35061198,0.739334,0.091464,98.700005,-167.70001,-15.900001,,,,,,
593245,1.1340791,8.927882,-3.017033,-0.510674,1.089946,-0.15244,89.100006,-158.1,-23.7,,,,,,
593269,1.2937832,8.7089615,-3.0098555,-0.426832,0.70122397,-0.091464,98.700005,-170.1,-27.300001,,,,,,
593289,1.3296719,8.635988,-2.7119803,-0.46494198,0.632626,-0.160062,89.100006,-162.90001,-20.7,,,,,,
593309,1.7675124,9.280189,-2.9063766,-0.41158798,0.769822,-0.19055,93.9,-167.70001,-20.1,,,,,,
593329,1.8273268,8.95121,-2.865105,-1.044214,1.33385,-0.92226195,110.700005,-162.90001,-24.900002,,,,,,
593349,1.6490802,8.7520275,-2.7622242,-1.1280559,1.471046,-1.089946,91.5,-167.70001,-25.500002,,,,,,
593371,1.5509847,8.820216,-2.7406912,-1.06708,1.8292799,-1.021348,91.5,-165.3,-20.1,,,,,,
593391,1.4217858,8.930873,-2.522369,-0.975616,2.09605,-1.150922,77.100006,-172.5,-16.5,,,,,,
593411,1.4421227,9.46322,-2.580987,-0.846042,2.530504,-1.760682,93.9,-160.5,-21.300001,,,,,,
593431,1.1867156,8.793898,-2.4930599,-1.21952,2.7972739,-2.606724,98.700005,-162.90001,-24.300001,,,,,,
593451,0.8296243,8.820814,-2.5833795,-0.640248,2.850628,-2.416174,103.50001,-174.90001,-24.300001,,,,,,
593471,0.89900887,8.841151,-2.3812072,-0.57164997,2.469528,-2.2561119,98.700005,-167.70001,-26.7,,,,,,
593491,1.0509372,9.252673,-2.074958,-0.594516,2.7286758,-2.088428,113.100006,-158.1,-23.1,,,,,,
593511,0.65377027,9.446472,-2.4924617,-0.46494198,3.650938,-2.55337,110.700005,-162.90001,-20.1,,,,,x,
593531,0.05203844,9.015809,-2.4787045,-0.327746,3.2317278,-2.576236,115.50001,-165.3,-24.900002,,,,,x,
593551,-0.073571585,8.917713,-2.280121,-0.15244,2.47715,-2.118916,101.100006,-179.70001,-26.1,,,,,x,
593575,-1.075461,9.881322,-2.0336862,0.72409,2.080806,-0.64787,113.100006,-158.1,-23.1,,,,,x,
593595,-1.9583201,11.21518,-2.300458,0.0,1.082324,0.243904,110.700005,-170.1,-20.1,,,,,x,
593617,-1.91645,9.931566,-1.5928547,-0.525918,-0.60976,-0.93750596,120.3,-170.1,-18.300001,,,,,x,
593658,-1.1065645,9.612158,-0.10108616,0.34298998,-1.8597679,2.85825,115.50001,-153.3,-22.5,,,,,x,
593680,-1.4170007,9.362134,0.2601922,0.22865999,-2.614346,2.85825,110.700005,-167.70001,-20.7,,,,,x,
593701,-1.1867156,8.744252,0.4731311,1.02897,-4.5579557,2.606724,113.100006,-158.1,-24.300001,,,,,x,
593721,-1.1245087,8.005546,1.070676,1.440558,-7.248522,2.454284,113.100006,-165.3,-15.3,,,,,x,
593741,-0.8726906,7.1771173,1.0545261,2.111294,-8.719568,2.111294,108.3,-162.90001,-21.900002,,,,,x,
593761,-0.21114446,6.485066,0.94566405,2.7362978,-11.372024,1.8597679,96.3,-174.90001,-25.500002,,,,,x,
593781,0.34273592,6.154891,0.9558325,3.346058,-13.513805,1.79117,103.50001,-170.1,-27.900002,,,,,x,
593801,0.29009935,5.4526715,0.8397927,3.7728899,-15.122047,0.792688,96.3,-162.90001,-23.1,,,,,x,
593821,0.66214424,4.4633427,0.7458843,4.03966,-16.737911,-0.289636,96.3,-167.70001,-18.300001,,,,,x,
593841,0.54072124,3.0086591,0.8840553,4.68753,-18.048895,-1.5244,103.50001,-162.90001,-15.3,,,,,x,
593862,0.2781365,1.8650098,0.38460594,4.756128,-15.861382,-1.8597679,110.700005,-165.3,-18.300001,,,,,x,
593903,1.2375578,4.7037964,-2.2938783,4.4207597,-11.600684,-2.55337,108.3,-165.3,-20.7,,,,,x,
593923,1.560555,4.367042,-3.30474,3.132642,-8.1555395,-4.9466777,105.9,-155.70001,-20.7,,,,,x,
593943,0.17705032,1.2441374,-5.146422,6.311016,0.579272,-8.551884,110.700005,-150.90001,-21.300001,,,,,x,
593963,2.5881646,3.401639,-8.378188,7.728708,-3.7042918,-2.13416,120.3,-153.3,-17.7,,,,,x,
594023,1.276437,7.5072923,-9.029567,6.577786,6.74547,-8.04121,132.3,-153.3,-17.1,,,,,x,
594085,-0.6914533,6.3738117,-10.300022,0.579272,-1.75306,-8.872007,158.70001,-146.1,-14.700001,,,,,x,
594235,-5.405418,8.92848,-11.775043,-1.768304,7.835416,-10.625068,197.1,-90.9,-8.1,,,,,x,
594268,-7.010236,9.330432,-10.56799,-5.3354,9.67994,-8.711946,209.1,-93.3,-7.5000005,,,,,x,
594331,-7.802177,10.963961,-10.274302,-4.9543,12.782094,-7.599134,218.70001,-81.3,-5.1000004,,,,,x,
594387,-8.616249,13.84701,-8.994276,-7.705842,9.474146,-4.855214,221.1,-76.5,1.5,,,,,x,
594407,-9.130652,12.054376,-8.5791645,-6.730226,7.0198617,-7.0808377,233.1,-83.700005,-5.1000004,,,,,x,
594447,-9.957286,13.545546,-6.062777,-8.910118,8.003099,-1.4024479,218.70001,-83.700005,-0.90000004,,,,,x,
594467,-8.929078,13.786597,-7.187286,-5.807964,10.282078,-2.621968,211.50002,-88.5,-4.5,,,,,x,
594490,-9.950109,11.249275,-6.0143275,-8.704324,2.7439198,-0.30488,218.70001,-93.3,-5.1000004,,,,,x,
594510,-9.765282,11.336604,-5.23734,-8.025966,5.5335717,3.833866,230.70001,-90.9,-4.5,,,,,x,
594530,-8.622829,11.601581,-5.840268,-6.166198,6.349126,5.045764,218.70001,-86.100006,-8.1,,,,,x,
594550,-8.557034,11.020784,-5.71406,-7.256144,1.577754,4.870458,216.3,-98.100006,-7.5000005,,,,,x,
594570,-7.672978,10.491427,-4.108644,-8.750056,-3.7881339,5.693634,211.50002,-100.50001,-8.1,,,,,x,
594592,-6.2499957,10.559616,-2.2914858,-8.894874,-5.94516,6.303394,199.50002,-100.50001,-2.1000001,,,,,x,
594613,-6.333736,8.811244,-0.43664438,-9.291218,-5.9527817,4.862836,213.90001,-114.9,-15.3,,,,,x,
594633,-6.764997,7.5060964,0.6238631,-7.8582816,-1.44818,7.218034,201.90001,-124.50001,-9.900001,,,,,x,
594654,-5.73978,8.21669,-0.52457136,-7.8582816,1.951232,9.939088,185.1,-119.700005,-11.700001,,,,,x,
594674,-5.1703477,8.137735,-0.9767675,-7.309498,-1.56251,8.993959,185.1,-141.3,-11.700001,,,,,x,
594694,-4.117616,7.26325,-0.2715569,-6.128088,-6.036624,7.0503497,177.90001,-129.3,-18.300001,,,,,x,
594714,-2.6431937,5.6016088,0.60651696,-5.327778,-8.186028,5.838452,175.5,-134.1,-19.5,,,,,x,
594734,-1.9672922,4.6834593,1.0784518,-4.5579557,-8.208894,6.5091877,175.5,-146.1,-17.1,,,,,x,
594756,-1.631734,4.582373,0.56883395,-2.926848,-6.455834,6.699738,173.1,-141.3,-15.900001,,,,,x,
594776,-0.9994969,5.266051,0.14833945,-1.3567159,-7.43145,6.78358,153.90001,-148.5,-20.7,,,,,x,
594797,-0.7751933,4.6445804,0.5347398,-1.211898,-7.3171196,4.5884438,146.70001,-136.5,-23.7,,,,,x,
594817,-0.43066293,3.7551415,-0.21652776,0.69360197,-6.28815,3.833866,139.5,-150.90001,-22.5,,,,,x,
594878,0.51559925,4.911352,-0.7129864,2.13416,-6.4634557,4.908568,137.1,-153.3,-24.300001,,,,,x,
594929,2.6742973,6.4324293,-0.8972145,2.82014,-5.251558,5.5488157,125.100006,-167.70001,-20.1,,,,,x,
594949,3.0200238,7.2447076,-1.2375578,1.6387299,-2.393308,3.574718,117.9,-158.1,-19.5,,,,,x,
594995,2.6085014,5.309117,-3.095988,3.346058,1.783548,1.234764,122.700005,-167.70001,-26.1,,,,,x,
595037,2.9009933,8.94463,-3.6151762,2.599102,0.358234,3.7195358,110.700005,-162.90001,-25.500002,,,,,,
595057,2.7036061,8.4816675,-4.1648693,2.408552,1.798792,1.326228,103.50001,-160.5,-20.1,,,,,,
595077,2.3357482,7.8978796,-4.8240232,3.056422,1.8369019,-0.030488,108.3,-170.1,-27.300001,,,,,,
595117,2.2855043,9.06067,-4.344312,0.87653,-0.82317597,0.480186,93.9,-165.3,-15.900001,,,,,,
595137,2.263971,9.09297,-4.208534,0.060976,-0.022866,-0.426832,96.3,-167.70001,-17.7,,,,,,
595198,1.3811121,9.107923,-3.6301296,-1.585376,1.1280559,-0.503052,105.9,-160.5,-20.7,,,,,,
595348,0.9049903,8.682643,-2.8519456,-0.92226195,2.035074,-0.198172,113.100006,-165.3,-20.1,,,,,,
595368,0.9426733,8.563613,-2.5779963,-0.655492,1.974098,-0.327746,113.100006,-167.70001,-14.1,,,,,,
595411,0.92472905,8.847133,-2.6258476,-0.289636,2.911604,-0.53354,98.700005,-170.1,-24.900002,,,,,,
595431,0.9283179,9.063063,-2.6192682,-0.137196,2.873494,-0.739334,101.100006,-165.3,-20.1,,,,,,
595453,0.6555647,9.089979,-2.6264458,-0.091464,3.041178,-0.907018,108.3,-160.5,-24.300001,,,,,,
595473,0.39477435,8.9894905,-2.5492854,-0.022866,2.660078,-1.272874,113.100006,-165.3,-21.900002,,,,,x,
595589,-1.3039516,9.482959,-0.50363636,-1.3567159,-3.407034,-0.358234,120.3,-167.70001,-14.700001,,,,,x,
595629,-1.6771929,6.4156814,0.7973246,-0.891774,-5.625036,1.6311079,105.9,-150.90001,-15.900001,,,,,x,
595669,-0.36068022,7.634697,0.74648243,1.6539739,-8.292736,3.414656,105.9,-162.90001,-17.7,,,,,x,
595709,0.58976895,5.9383636,0.8589333,2.073184,-13.117462,1.669218,115.50001,-162.90001,-19.5,,,,,x,
595730,1.3410366,5.108141,1.234567,1.9131219,-13.849174,1.5244,98.700005,-165.3,-23.7,,,,,x,
595770,1.0521334,3.8568258,0.7997171,1.768304,-14.458934,-0.243904,96.3,-170.1,-27.900002,,,,,x,
595810,1.0228245,1.5509847,-0.49944937,2.97258,-12.5763,-2.073184,110.700005,-172.5,-29.1,,,,,x,
595832,2.2352602,2.9506392,-0.58259124,1.821658,-14.626617,-2.118916,96.3,-162.90001,-23.7,,,,,x,
595852,2.1156316,1.8973095,-1.5444051,2.195136,-9.22262,-4.809482,108.3,-167.70001,-25.500002,,,,,x,
595893,0.36247465,1.799214,-5.5405984,6.51681,-1.1356779,-7.339986,132.3,-160.5,-20.7,,,,,x,
595915,2.2669618,6.2547812,-7.8410563,7.92688,-2.09605,-1.935988,122.700005,-148.5,-24.300001,,,,,x,
595935,1.23038,7.982218,-7.4325247,2.888738,-3.132642,-6.722604,117.9,-158.1,-14.1,,,,,x,
595955,-1.2118376,6.3193803,-8.539089,6.8369336,3.62045,-12.263798,127.50001,-141.3,-24.900002,,,,,x,
595975,-0.4509998,6.434822,-10.9514,7.5000477,6.265284,-10.975679,146.70001,-146.1,-11.1,,,,,x,
596018,-0.50602895,9.484155,-9.986595,1.089946,1.699706,-9.725672,165.90001,-129.3,-5.1000004,,,,,x,
596038,-0.5682358,10.459128,-10.459726,3.033556,7.896392,-11.01379,177.90001,-136.5,-26.1,,,,,x,
596059,-0.9618139,9.554137,-11.495709,2.89636,13.7881975,-13.208925,175.5,-129.3,-13.500001,,,,,x,
596079,-2.3824034,8.96078,-12.968936,4.603688,15.914736,-13.132706,194.70001,-114.9,-6.9,,,,,x,
596099,-1.4319543,11.481953,-14.293822,2.576236,13.18606,-9.291218,177.90001,-122.100006,-10.5,,,,,x,
596119,-1.6825762,11.881512,-12.952188,-1.3795819,9.344572,-12.454348,201.90001,-107.700005,-12.3,,,,,x,
596143,-5.0226064,8.903358,-13.239895,2.339954,15.922358,-14.268384,213.90001,-93.3,2.1000001,,,,,x,
596163,-4.0643816,10.353855,-14.592296,-0.312502,17.11901,-9.359816,211.50002,-88.5,3.3000002,,,,,x,
596183,-3.8813498,11.614142,-14.149671,-3.955818,11.402512,-9.79427,209.1,-69.3,-3.3000002,,,,,x,
596203,-7.2267632,9.2592535,-12.680631,-4.146368,10.93757,-13.109839,211.50002,-81.3,2.1000001,,,,,x,
596243,-6.7871284,9.852013,-11.532196,-8.6509695,6.844556,-10.114394,228.3,-71.700005,6.9,,,,,x,
596263,-9.523632,8.990088,-10.396323,-7.8125496,8.932983,-9.161644,216.3,-57.300003,6.3,,,,,x,
596287,-8.1688385,10.549448,-10.8359585,-7.225656,7.766818,-5.708878,216.3,-69.3,0.90000004,,,,,x,
596307,-9.158765,10.303013,-8.4714985,-10.602201,1.6158639,-6.814068,237.90001,-66.9,6.3,,,,,x,
596329,-10.8144245,10.876034,-7.238128,-8.003099,8.003099,-2.43904,242.70001,-76.5,-0.3,,,,,x,
596349,-9.540978,12.528105,-7.3577566,-9.618964,6.798824,-1.577754,230.70001,-71.700005,2.1000001,,,,,x,
596369,-10.184581,12.077105,-6.0011683,-9.992442,5.129606,-2.644834,235.50002,-66.9,-3.9,,,,,x,
596434,-11.517243,12.508366,-3.4195833,-12.164712,3.361302,0.960372,237.90001,-71.700005,-5.1000004,,,,,x,
596495,-9.651037,10.514157,-2.4153013,-12.416238,-6.9131536,5.9985137,218.70001,-90.9,-3.9,,,,,x,
596518,-8.059379,8.792702,-1.1777436,-8.750056,-4.76375,8.940606,211.50002,-98.100006,-11.700001,,,,,x,
596538,-6.7446604,8.44219,-0.8511574,-8.132674,-5.045764,9.893355,216.3,-110.100006,-14.1,,,,,x,
596558,-5.836679,7.840458,-0.5359361,-6.4024796,-7.271388,9.1463995,197.1,-122.100006,-15.3,,,,,x,
596578,-4.8168454,6.7823434,0.111254595,-5.304912,-8.788166,7.4390717,197.1,-117.3,-18.300001,,,,,x,
596598,-4.1445327,5.011242,0.5072252,-4.100636,-9.291218,6.51681,197.1,-131.70001,-17.1,,,,,x,
596618,-4.027895,4.371827,0.64240557,-2.416174,-8.887252,8.849142,187.5,-150.90001,-15.3,,,,,x,
596641,-2.9925094,5.3749127,0.45638308,-2.088428,-8.61286,10.007686,173.1,-141.3,-23.7,,,,,x,
596662,-2.6473808,4.987316,0.50064564,-0.99086,-8.818654,7.987856,170.70001,-138.90001,-17.7,,,,,x,
596683,-1.644295,4.965783,-0.05801987,0.518296,-9.093046,6.981752,158.70001,-146.1,-24.900002,,,,,x,
596723,-1.0634983,3.580484,-0.32060462,2.644834,-9.085423,5.320156,144.3,-160.5,-25.500002,,,,,x,
596783,0.49586052,4.506409,-0.45040166,1.692084,-6.3719916,4.565578,139.5,-153.3,-33.9,,,,,x,
596827,1.5198812,5.5836644,-1.5432088,2.012208,-5.236314,3.955818,127.50001,-160.5,-26.7,,,,,x,
596932,3.5834746,7.962479,-3.1300821,1.455802,-4.519846,4.8857017,127.50001,-158.1,-19.5,,,,,x,
597031,1.9672922,8.326748,-3.6456814,1.44818,0.358234,0.03811,110.700005,-174.90001,-26.7,,,,,x,
597094,1.3990564,8.826796,-3.7754784,0.716468,1.021348,-0.26677,127.50001,-170.1,-18.900002,,,,,,
597114,1.3147182,8.615651,-3.7790673,0.53354,1.25763,-0.327746,101.100006,-150.90001,-20.1,,,,,,
597134,1.4122156,8.890797,-3.8017967,0.358234,0.41921,0.07622,113.100006,-160.5,-25.500002,,,,,,
597154,1.4271691,9.00923,-3.2790198,-0.259148,0.3811,0.20579399,108.3,-162.90001,-20.1,,,,,,
597174,1.1538178,9.06067,-3.359769,-0.716468,2.149404,-0.289636,98.700005,-162.90001,-20.7,,,,,,
597198,1.196286,9.0977545,-3.65585,-0.480186,2.423796,-0.663114,113.100006,-160.5,-25.500002,,,,,,
597218,0.9636083,8.753822,-3.1611855,-0.69360197,1.6311079,-0.708846,113.100006,-165.3,-30.300001,,,,,,
597238,0.97078604,9.036146,-3.145634,-0.548784,2.500016,0.053354,108.3,-153.3,-14.700001,,,,,,
597258,0.73810846,8.784925,-3.0678754,-0.884152,2.446662,-0.182928,117.9,-160.5,-18.300001,,,,,,
597278,0.8421853,8.912929,-2.8555346,-0.480186,2.2256238,-0.160062,98.700005,-167.70001,-18.300001,,,,,,
597298,0.73691213,8.955995,-2.6324272,-0.655492,2.408552,-0.640248,108.3,-167.70001,-23.1,,,,,,
597318,0.690257,9.072633,-2.6874564,-0.56402797,2.7972739,-0.72409,103.50001,-167.70001,-21.900002,,,,,,
597338,0.4928698,9.265833,-2.6689138,-0.602138,2.7744079,-0.87653,113.100006,-160.5,-22.5,,,,,,
597358,0.5138048,9.057081,-2.4565732,-0.579272,2.492394,-1.303362,105.9,-162.90001,-14.1,,,,,,
597378,0.44202766,8.823805,-2.1563053,-0.67835796,2.332332,-1.4024479,108.3,-167.70001,-20.1,,,,,,
597398,0.20935003,8.706569,-1.999592,-0.739334,2.89636,-1.6158639,117.9,-162.90001,-19.5,,,,,,
597418,0.16748004,9.757506,-2.0139475,0.548784,2.2256238,-1.8978779,101.100006,-162.90001,-17.7,,,,,,
597439,0.030505292,9.395032,-1.7974197,0.46494198,2.141782,-2.027452,108.3,-162.90001,-21.300001,,,,,,
597459,-0.49107537,9.106727,-1.4498986,0.30488,1.806414,-0.983238,110.700005,-158.1,-18.300001,,,,,x,
597479,-0.71358454,9.286768,-1.1155367,0.632626,0.975616,-0.068598,115.50001,-155.70001,-17.7,,,,,x,
597503,-1.0168431,8.385366,-0.30445477,1.06708,-0.503052,0.525918,120.3,-153.3,-20.7,,,,,x,
597523,-0.72076225,9.369311,-0.31641763,1.440558,-2.2865999,1.56251,125.100006,-162.90001,-15.3,,,,,x,
597543,-0.92472905,8.421853,0.6453963,0.449698,-4.199722,0.998482,108.3,-167.70001,-8.700001,,,,,x,
597563,-0.79852086,7.396038,0.6890607,0.55640596,-5.64028,1.013726,115.50001,-162.90001,-14.1,,,,,x,
597583,-1.032993,6.016122,0.8756813,1.082324,-7.972612,0.82317597,115.50001,-160.5,-20.7,,,,,x,
597603,-1.1065645,4.7809567,0.93190676,2.7134318,-9.786648,1.21952,103.50001,-160.5,-20.7,,,,,x,
597627,-0.47073853,4.799499,0.56703955,4.64942,-11.85221,2.568614,103.50001,-167.70001,-24.900002,,,,,x,
597648,-0.10347874,4.8497434,0.26079035,5.670768,-13.704355,2.7134318,103.50001,-162.90001,-16.5,,,,,x,
597689,0.3714468,3.4441073,0.004785144,7.1418138,-17.385782,1.6387299,113.100006,-158.1,-19.5,,,,,x,
597752,0.5126085,0.832615,-1.4714317,6.920776,-16.067175,-2.431418,115.50001,-162.90001,-16.5,,,,,x,
597772,1.0150486,3.2323647,-4.212123,9.443658,-9.5275,-2.149404,120.3,-155.70001,-13.500001,,,,,x,
597793,0.753062,3.903481,-6.9617863,9.60372,-7.743952,-5.167716,120.3,-158.1,-15.900001,,,,,x,
597813,0.37802637,3.1731484,-8.333328,7.8582816,-7.751574,-6.333882,137.1,-146.1,-16.5,,,,,x,
597833,2.103669,5.41439,-8.720924,5.686012,-8.368956,-2.980202,132.3,-153.3,-6.3,,,,,x,
597855,3.305936,9.851415,-8.932069,3.7728899,-8.887252,-3.094532,122.700005,-141.3,-12.900001,,,,,x,
597875,-1.786653,6.9091496,-8.360843,3.2850819,0.99086,-13.048863,139.5,-138.90001,-11.700001,,,,,x,
597937,-1.1161348,6.4097,-10.297031,0.41158798,0.70122397,-10.465006,175.5,-138.90001,-5.7000003,,,,,x,
598011,-2.6306329,6.5664134,-14.549828,-0.94512796,10.7241535,-15.045828,182.70001,-110.100006,-2.1000001,,,,,x,
598050,-4.2019544,7.6759686,-12.332512,-5.480218,10.6631775,-13.780576,199.50002,-93.3,-7.5000005,,,,,x,
598070,-4.9059687,7.6430707,-13.305092,-4.085392,15.259244,-12.202822,218.70001,-81.3,0.90000004,,,,,x,
598113,-6.8260074,8.476284,-13.339187,-7.149436,12.583921,-12.218065,218.70001,-78.9,-6.3,,,,,x,
598155,-8.537294,8.95121,-11.983196,-9.009204,9.07018,-8.643348,209.1,-74.100006,0.90000004,,,,,x,
598175,-8.496621,10.386154,-10.963363,-9.458901,6.684494,-7.5610237,225.90001,-52.500004,-2.7,,,,,x,
598195,-9.415967,11.103328,-9.409986,-10.952814,6.0747337,-7.782062,233.1,-59.7,-0.3,,,,,x,
598238,-10.674459,10.323948,-7.549761,-8.5899935,14.961986,-5.3658876,225.90001,-62.100002,-0.3,,,,,x,
598258,-8.940443,12.80325,-8.349478,-9.41317,13.018375,-4.45887,233.1,-62.100002,-0.90000004,,,,,x,
598278,-10.325144,10.869454,-7.3069143,-9.41317,11.387268,-6.6158957,242.70001,-64.5,4.5,,,,,x,
598298,-10.612851,11.218171,-7.844047,-7.522914,12.00465,-3.2774599,235.50002,-59.7,6.3,,,,,x,
598320,-9.490136,13.012002,-7.898478,-9.138778,6.501566,-1.1280559,237.90001,-71.700005,-1.5,,,,,x,
598340,-9.779039,12.587919,-5.6291237,-12.111358,1.722572,-1.6463519,233.1,-62.100002,-2.1000001,,,,,x,
598360,-10.590121,11.273799,-4.928698,-10.571713,6.791202,0.030488,245.1,-69.3,-3.3000002,,,,,x,
598380,-10.21688,11.169124,-6.3181844,-8.788166,9.893355,2.614346,225.90001,-66.9,-0.3,,,,,x,
598403,-10.017698,11.587824,-6.9474306,-8.788166,2.6677,4.5884438,218.70001,-78.9,-5.7000003,,,,,x,
598423,-8.9894905,11.216377,-4.941259,-10.1372595,-7.233278,5.5793037,204.3,-86.100006,-2.1000001,,,,,x,
598445,-8.466714,9.899266,-2.07436,-11.463488,-11.943674,6.6006517,211.50002,-100.50001,-3.3000002,,,,,x,
598465,-7.837467,8.507986,-0.6304427,-9.588476,-7.0351057,8.437553,209.1,-95.700005,-12.900001,,,,,x,
598485,-6.529927,8.286673,-1.3416346,-8.201272,-3.147886,10.122016,209.1,-126.9,-14.1,,,,,x,
598505,-5.739182,7.964872,-1.3039516,-8.42231,-6.9893737,9.931466,187.5,-112.50001,-12.3,,,,,x,
598525,-4.9209223,6.907355,-0.117834166,-7.92688,-10.449761,8.338468,187.5,-122.100006,-12.3,,,,,x,
598545,-4.1050553,4.5082035,0.88046646,-5.137228,-10.815618,8.330846,189.90001,-131.70001,-18.300001,,,,,x,
598565,-3.8394797,4.209132,1.0975924,-4.695152,-10.21348,9.26073,182.70001,-138.90001,-23.7,,,,,x,
598585,-3.20485,4.356275,0.49765494,-3.368924,-7.92688,10.335432,168.3,-131.70001,-21.300001,,,,,x,
598647,-0.12202117,3.2449257,-0.31701577,0.198172,-10.846106,8.750056,156.3,-146.1,-27.900002,,,,,x,
598667,0.4246815,2.970378,-0.46834594,0.861286,-10.55647,8.1555395,129.90001,-155.70001,-30.900002,,,,,x,
598690,1.6706133,4.2557874,-0.29608077,1.265252,-11.753123,9.596098,134.70001,-158.1,-26.7,,,,,x,
598711,2.234064,5.4233623,0.4761218,-0.396344,-10.426896,8.750056,134.70001,-162.90001,-27.900002,,,,,x,
598731,2.0444527,4.2952647,-0.5126085,0.525918,-5.64028,5.693634,127.50001,-162.90001,-23.7,,,,,x,
598751,2.3058412,4.66073,-0.7805766,1.189032,-6.501566,5.86894,108.3,-155.70001,-30.900002,,,,,x,
598771,2.2101383,4.7337036,0.09151588,1.150922,-6.3872356,4.984788,115.50001,-158.1,-27.300001,,,,,x,
598792,2.7837574,5.694919,-0.48808467,2.149404,-4.291186,4.893324,108.3,-160.5,-24.300001,,,,,x,
598812,3.7174585,7.5156665,-1.0850314,2.926848,-2.980202,5.228692,110.700005,-167.70001,-27.900002,,,,,x,
598832,3.8412743,8.453554,-1.2662686,2.2484899,-1.8445239,3.2088618,101.100006,-167.70001,-27.900002,,,,,x,
598853,3.0971844,7.338018,-1.6102009,1.974098,-0.33536798,0.56402797,101.100006,-167.70001,-23.1,,,,,x,
598873,2.7711964,6.2428184,-1.9744699,2.157026,0.57164997,-0.34298998,96.3,-177.3,-31.500002,,,,,x,
598893,2.97935,7.7836347,-2.7496634,2.7058098,1.493912,0.7622,91.5,-165.3,-18.300001,,,,,x,
598913,2.6509697,8.324954,-3.3723302,3.2774599,3.0488,-0.518296,86.700005,-165.3,-29.1,,,,,x,
598933,2.5636408,8.161661,-4.3335457,3.7271578,3.940574,-1.310984,96.3,-170.1,-17.7,,,,,x,
598953,2.1760442,7.7327924,-5.1105337,3.7652678,2.59148,-1.013726,101.100006,-170.1,-20.7,,,,,x,
598973,2.046247,7.774064,-4.7456665,3.346058,-0.144818,0.358234,93.9,-167.70001,-23.7,,,,,,
599013,2.6408012,9.692906,-3.4363313,0.81555396,0.846042,0.373478,96.3,-167.70001,-23.1,,,,,,
599033,2.4793026,9.516455,-4.306629,0.41921,2.827762,-0.510674,101.100006,-162.90001,-27.300001,,,,,,
599053,1.9983957,9.359741,-3.8646019,-0.22865999,1.501534,-0.830798,96.3,-153.3,-18.900002,,,,,,
599077,1.4062341,8.815431,-3.3041418,-0.80793196,1.8445239,-1.082324,98.700005,-165.3,-19.5,,,,,,
599097,1.367953,9.20243,-3.2168128,-0.967994,1.554888,-1.097568,96.3,-158.1,-24.900002,,,,,,
599137,0.8475686,9.021193,-2.9422653,-1.06708,1.227142,-0.983238,96.3,-162.90001,-20.7,,,,,,
599157,0.8625222,8.854909,-2.8172534,-1.463424,1.1204339,-0.68597996,93.9,-179.70001,-23.1,,,,,,
599177,1.0443577,8.955397,-2.698821,-0.99086,1.150922,-0.053354,89.100006,-174.90001,-25.500002,,,,,,
599197,1.1191255,9.15099,-2.5361261,-1.02897,1.3948259,-0.015244,96.3,-174.90001,-24.300001,,,,,,
599217,1.2907926,9.107325,-2.476312,-0.92988396,1.6311079,-0.251526,105.9,-165.3,-24.900002,,,,,,
599239,1.2447355,9.152185,-2.3716369,-0.868908,1.539644,-0.579272,103.50001,-177.3,-21.300001,,,,,,
599259,1.2537076,8.929078,-2.2561953,-0.754578,1.935988,-0.830798,101.100006,-167.70001,-21.300001,,,,,,
599280,1.1274995,9.10254,-2.2155216,-0.60976,1.75306,-0.625004,101.100006,-158.1,-24.900002,,,,,,
599300,0.97138417,9.267029,-2.1951847,-0.69360197,1.6311079,-0.7622,89.100006,-167.70001,-20.7,,,,,,
599320,0.9941136,9.235926,-2.1078558,-0.739334,1.318606,-1.272874,98.700005,-167.70001,-21.300001,,,,,,
599362,0.24583676,9.465014,-2.1096504,0.03811,0.899396,-1.265252,108.3,-172.5,-23.7,,,,,x,
599382,0.16927446,9.467407,-2.087519,-0.106708,0.28201398,-1.501534,110.700005,-167.70001,-21.900002,,,,,x,
599422,-0.9390845,10.114597,-1.4816002,0.602138,-1.951232,0.083841994,108.3,-160.5,-23.7,,,,,x,
599442,-1.9218334,10.786312,-0.8302224,0.099086,-3.361302,0.137196,101.100006,-172.5,-17.7,,,,,x,
599462,-1.9008983,9.8424425,-1.0946016,0.55640596,-3.2698379,-0.388722,110.700005,-172.5,-17.1,,,,,x,
599486,-1.5755086,9.503894,-0.8559426,0.373478,-6.4482117,1.211898,122.700005,-165.3,-18.300001,,,,,x,
599506,-1.5276572,8.393142,0.1698726,-0.442076,-8.04121,1.79117,105.9,-167.70001,-30.300001,,,,,x,
599526,-1.1669769,7.950516,0.10706759,-0.320124,-8.856764,2.8048959,98.700005,-167.70001,-14.1,,,,,x,
599547,-0.88226086,7.522246,0.08194559,-0.594516,-10.533604,2.919226,98.700005,-162.90001,-27.300001,,,,,x,
599567,-0.27454764,6.283492,0.3869985,-0.17530599,-12.7668495,2.6905658,93.9,-174.90001,-26.7,,,,,x,
599609,1.6688188,5.2642565,0.8505593,1.18141,-15.586989,3.7576458,98.700005,-165.3,-25.500002,,,,,x,
599629,2.4715269,4.0584,1.192099,1.974098,-15.762296,3.12502,101.100006,-155.70001,-27.900002,,,,,x,
599650,2.819048,3.3842928,1.0527316,2.865872,-14.573264,2.843006,103.50001,-165.3,-25.500002,,,,,x,
599671,2.941667,3.212626,0.2936882,3.7042918,-12.942156,1.1280559,74.700005,-162.90001,-30.300001,,,,,x,
599691,3.204252,3.041557,-0.48688838,4.093014,-10.968058,-0.655492,81.9,-179.70001,-24.900002,,,,,x,
599711,2.8250291,2.5797906,-1.568929,4.237832,-8.818654,-3.079288,93.9,-170.1,-22.5,,,,,x,
599731,2.2532046,1.7059038,-2.9279099,4.862836,-5.632658,-5.64028,84.3,-165.3,-20.7,,,,,x,
599754,1.9475535,1.7100908,-4.8383784,6.9131536,-0.975616,-6.59303,89.100006,-174.90001,-18.900002,,,,,x,
599774,2.6802785,4.320387,-7.192071,6.471078,-1.585376,-4.5579557,96.3,-158.1,-20.1,,,,,x,
599794,0.80749303,3.4632478,-7.257867,3.58234,-4.108258,-8.102186,101.100006,-155.70001,-18.900002,,,,,x,
599816,0.39776507,3.5918486,-8.225662,6.4634557,-2.187514,-6.5396757,93.9,-162.90001,-15.3,,,,,x,
599836,0.55328226,6.6088815,-9.549353,2.903982,-4.4817357,-4.565578,117.9,-148.5,-22.5,,,,,x,
599856,-0.92233646,5.455064,-8.478677,-1.158544,-5.83083,-9.801891,125.100006,-148.5,-23.1,,,,,x,
599876,-0.22250919,5.4108014,-8.601295,-0.67073596,-3.437522,-9.359816,125.100006,-138.90001,-22.5,,,,,x,
599920,-2.2705507,11.212789,-8.200541,-2.2256238,8.506152,-11.364402,156.3,-141.3,-19.5,,,,,x,
599940,-4.096681,9.338208,-9.743749,-0.868908,13.879662,-16.402544,149.1,-136.5,-23.1,,,,,x,
599960,-6.727912,7.4115896,-10.856894,-0.67073596,14.984852,-16.554983,177.90001,-124.50001,-25.500002,,,,,x,
599980,-4.8712764,10.028465,-12.180583,-0.045732,12.637276,-9.809514,192.3,-136.5,-14.700001,,,,,x,
600000,-4.2910776,13.939124,-11.587226,-3.856732,5.495462,-8.57475,189.90001,-114.9,-14.1,,,,,x,
600020,-5.258275,14.067724,-9.841247,-4.131124,5.3354,-11.455866,187.5,-122.100006,-17.1,,,,,x,
600040,-5.8917084,12.752408,-9.256861,-4.87808,8.086942,-13.048863,209.1,-119.700005,-21.300001,,,,,x,
600060,-8.103641,11.311481,-8.920704,-5.541194,14.916254,-12.317152,216.3,-110.100006,-12.900001,,,,,x,
600081,-8.930873,11.225349,-10.588326,-2.507638,20.625132,-10.282078,209.1,-86.100006,-12.900001,,,,,x,
600101,-7.403814,12.792483,-12.054974,-3.6738038,13.285146,-7.797306,209.1,-88.5,-14.1,,,,,x,
600121,-9.1294565,12.712931,-9.389648,-7.4238276,5.343022,-7.3628516,230.70001,-98.100006,-14.1,,,,,x,
600141,-10.465708,12.346868,-8.159866,-6.0442457,7.218034,-6.44059,228.3,-88.5,-14.1,,,,,x,
600221,-8.723317,14.235803,-7.8978796,-5.152472,4.108258,2.55337,230.70001,-83.700005,-9.3,,,,,x,
600293,-7.2536798,12.571171,-3.4171908,-5.121984,11.24245,2.97258,213.90001,-110.100006,-18.300001,,,,,x,
600327,-7.811747,11.951495,-1.7770828,-4.794238,5.762232,5.617414,211.50002,-107.700005,-18.900002,,,,,x,
600347,-6.1812096,13.187258,-0.89422375,-6.654006,4.260698,5.243936,206.70001,-117.3,-11.700001,,,,,x,
600387,-7.643669,8.554641,-1.0389743,-4.53509,10.548848,6.0899777,206.70001,-122.100006,-19.5,,,,,x,
600407,-5.857614,10.917904,-2.7323172,-4.11588,6.93602,10.038174,206.70001,-131.70001,-9.900001,,,,,x,
600427,-5.1727405,10.837752,-1.2489225,-5.617414,-1.760682,8.666214,187.5,-126.9,-17.1,,,,,x,
600447,-4.7372923,8.130557,0.91515875,-6.143332,-3.407034,6.4024796,163.5,-126.9,-23.1,,,,,x,
600467,-4.245021,7.774064,0.0017944289,-5.3658876,-0.47256398,7.9649897,177.90001,-148.5,-15.3,,,,,x,
600487,-3.572708,7.927787,-0.7925394,-5.198204,-2.088428,7.6219997,168.3,-129.3,-20.1,,,,,x,
600507,-3.1438394,6.442,-0.09031959,-3.879598,-7.294254,6.547298,165.90001,-138.90001,-17.1,,,,,x,
600527,-2.8268237,5.2409286,1.2273893,-2.93447,-8.711946,7.92688,149.1,-146.1,-20.7,,,,,x,
600568,-1.9140575,6.8134465,-0.13458216,-2.09605,-5.091496,8.95585,161.1,-146.1,-24.300001,,,,,x,
600588,-1.4953574,6.135751,-0.92951417,-1.051836,-5.510706,7.286632,129.90001,-143.70001,-29.1,,,,,x,
600608,-1.0874239,4.9861197,-0.5473008,-1.242386,-8.7653,5.647902,137.1,-158.1,-31.500002,,,,,x,
600631,-0.3911855,4.6116824,-0.29727706,-1.1280559,-8.734812,5.4268637,120.3,-162.90001,-33.9,,,,,x,
600652,0.2266962,4.547681,-0.38460594,-0.792688,-7.8887696,4.4360037,117.9,-160.5,-22.5,,,,,x,
600672,0.84697044,4.920324,-0.7506694,0.022866,-7.6067557,4.0015497,129.90001,-158.1,-33.9,,,,,x,
600692,0.954038,4.1648693,-0.4815051,0.16768399,-6.547298,2.111294,122.700005,-155.70001,-27.300001,,,,,x,
600712,1.1705658,4.0362687,-0.7542583,0.72409,-5.777476,2.035074,115.50001,-165.3,-30.300001,,,,,x,
600733,1.4857872,4.35149,-1.0629001,1.303362,-5.9222937,2.560992,103.50001,-174.90001,-24.900002,,,,,x,
600753,1.8632153,5.251695,-0.92891604,1.8445239,-5.64028,3.0488,110.700005,-162.90001,-29.7,,,,,x,
600814,3.2335608,6.8959904,-1.3691492,2.545748,-1.958854,1.814036,103.50001,-162.90001,-25.500002,,,,,x,
600834,3.154008,7.8631873,-2.2789247,2.47715,2.09605,0.434454,101.100006,-177.3,-28.500002,,,,,x,
600854,2.677288,8.361441,-3.58168,4.0320377,4.131124,0.221038,81.9,-170.1,-21.300001,,,,,x,
600874,2.0474434,8.336917,-4.275526,3.605206,3.056422,-0.297258,98.700005,-167.70001,-29.1,,,,,x,
600894,2.2573917,8.438003,-4.3760138,3.399412,1.074702,-0.16768399,108.3,-165.3,-23.1,,,,,,
600914,2.2017643,8.857301,-3.9423604,2.8048959,-0.144818,0.007622,91.5,-160.5,-27.900002,,,,,,
600934,2.1862125,8.832777,-4.061989,2.088428,0.868908,-0.33536798,105.9,-158.1,-21.900002,,,,,,
600955,1.9690866,8.378787,-3.9920063,1.974098,0.708846,-0.41158798,98.700005,-162.90001,-27.900002,,,,,,
600975,1.9595164,8.505593,-3.8974996,1.6539739,1.234764,-0.274392,91.5,-155.70001,-21.900002,,,,,,
600995,1.9098705,8.45176,-3.953725,1.585376,1.821658,-0.33536798,98.700005,-165.3,-20.7,,,,,,
601015,1.7812698,8.582753,-3.7365992,1.196654,1.547266,-0.022866,103.50001,-162.90001,-20.7,,,,,,
601035,1.5485922,8.688624,-3.4997346,0.579272,2.309466,0.091464,91.5,-158.1,-21.900002,,,,,,
601058,1.1041719,9.154578,-3.8753684,0.41158798,2.7972739,-0.16768399,103.50001,-167.70001,-17.1,,,,,,
601078,0.9091773,8.755617,-3.8334982,0.068598,2.431418,-0.967994,91.5,-158.1,-27.300001,,,,,,
601098,1.1831268,8.777748,-3.6618314,0.053354,1.6539739,-0.55640596,93.9,-158.1,-20.7,,,,,,
601118,1.0874239,9.017604,-3.275431,-0.632626,2.111294,-0.144818,103.50001,-160.5,-9.3,,,,,,
601138,1.1580048,9.462024,-3.6211576,-0.480186,2.964958,-0.289636,103.50001,-177.3,-17.1,,,,,,
601178,1.0306003,9.096559,-2.856731,-1.288118,1.4024479,-0.80793196,105.9,-160.5,-19.5,,,,,,
601239,0.83859646,9.150392,-2.727532,-1.707328,2.6981878,-1.6234859,110.700005,-165.3,-24.300001,,,,,,
601259,0.5909653,8.656923,-2.4912655,-1.478668,2.393308,-1.775926,101.100006,-162.90001,-23.7,,,,,,
601280,0.62326497,8.794497,-2.2454288,-1.234764,2.2027578,-1.06708,103.50001,-160.5,-22.5,,,,,,
601300,0.6794904,9.0654545,-2.1281927,-1.234764,2.2865999,-0.884152,98.700005,-160.5,-24.300001,,,,,,
601320,0.26916432,9.287366,-2.414105,-0.983238,2.416174,-1.3795819,103.50001,-162.90001,-19.5,,,,,,
601340,0.31402507,9.218579,-2.4828916,-0.769822,2.149404,-1.539644,113.100006,-165.3,-21.900002,,,,,,
601360,0.4151112,8.993678,-2.2143252,-0.548784,1.41007,-1.585376,105.9,-160.5,-21.300001,,,,,,
601380,0.5933578,9.077417,-2.2819154,-0.81555396,1.56251,-1.234764,117.9,-155.70001,-23.7,,,,,,
601402,0.33795077,8.857301,-2.7006154,-0.792688,1.509156,-1.074702,120.3,-150.90001,-18.900002,,,,,,
601423,0.13159145,8.714345,-2.8052905,-0.792688,1.425314,-0.091464,113.100006,-160.5,-18.300001,,,,,x,
601444,0.0807493,9.774254,-2.890825,-1.006104,1.25763,0.81555396,115.50001,-167.70001,-20.7,,,,,x,
601464,-0.15850788,9.692308,-2.6497734,-1.692084,0.80030996,-0.099086,96.3,-155.70001,-20.7,,,,,x,
601484,-0.58797455,9.096559,-2.5044246,-1.1432999,0.33536798,-0.388722,108.3,-172.5,-24.300001,,,,,x,
601504,-0.958225,9.771263,-2.205353,-0.884152,-0.861286,0.625004,108.3,-167.70001,-15.900001,,,,,x,
601528,-0.6753034,10.04641,-1.7513626,-1.021348,-1.920744,1.006104,113.100006,-167.70001,-22.5,,,,,x,
601548,-0.99471176,9.9848,-0.75844526,-1.211898,-3.7424018,1.471046,108.3,-155.70001,-24.300001,,,,,x,
601569,-0.9085792,9.846031,-0.21473333,-1.173788,-3.7805119,1.8521459,101.100006,-172.5,-24.900002,,,,,x,
601589,-1.0078709,9.265833,0.001196286,-0.663114,-4.679908,2.13416,93.9,-167.70001,-22.5,,,,,x,
601609,-0.72614557,8.7304945,0.22071476,0.07622,-6.150954,2.637212,103.50001,-162.90001,-22.5,,,,,x,
601653,0.2924919,7.7955976,0.21234076,1.94361,-9.6418295,2.835384,98.700005,-174.90001,-24.300001,,,,,x,
601673,0.8230447,6.793708,0.18602246,2.2561119,-10.952814,2.103672,81.9,-165.3,-18.300001,,,,,x,
601715,1.79084,5.2176013,-0.1363766,2.111294,-10.853727,2.01983,91.5,-165.3,-21.300001,,,,,x,
601735,1.6448932,4.672095,-0.45458865,1.242386,-11.1586075,1.425314,86.700005,-172.5,-26.7,,,,,x,
601755,1.0246189,3.1181192,-1.0156468,0.602138,-10.93757,0.022866,96.3,-160.5,-17.7,,,,,x,
601775,0.91695315,2.05821,-1.5162925,0.07622,-11.814099,0.007622,91.5,-165.3,-21.300001,,,,,x,
601815,2.0396676,3.3902743,-2.0157418,-0.17530599,-14.733326,-0.19055,101.100006,-170.1,-18.300001,,,,,x,
601878,2.7030082,4.2629647,-2.5289485,0.510674,-10.564092,-4.832348,89.100006,-162.90001,-28.500002,,,,,x,
601973,-0.8248392,6.920514,-5.6201515,2.2332458,4.283564,-9.961954,132.3,-165.3,-25.500002,,,,,x,
602012,-2.7951221,7.4833665,-8.984706,4.817104,13.445208,-11.913186,149.1,-146.1,-20.7,,,,,x,
602032,-0.7183697,9.255066,-9.751525,2.416174,7.599134,-10.152504,165.90001,-126.9,-24.900002,,,,,x,
602072,-4.0643816,10.786312,-8.707766,2.2103798,13.216548,-14.207408,180.3,-129.3,-21.900002,,,,,x,
602096,-4.6828613,8.425442,-10.521933,3.879598,18.490973,-15.442172,187.5,-124.50001,-20.1,,,,,x,
602116,-4.7169557,9.276001,-12.118377,3.6661818,16.173883,-10.868972,187.5,-124.50001,-11.700001,,,,,x,
602136,-3.6157742,12.745231,-12.366008,1.417692,9.809514,-7.4695597,192.3,-107.700005,-11.1,,,,,x,
602156,-3.9309957,13.318252,-10.887399,-0.41921,7.690598,-9.573232,206.70001,-117.3,-13.500001,,,,,x,
602176,-5.4161844,12.329521,-10.818014,0.121952,12.355262,-9.611341,216.3,-105.3,-17.1,,,,,x,
602196,-5.77507,12.238006,-12.007122,1.082324,16.42541,-7.721086,223.50002,-95.700005,-4.5,,,,,x,
602216,-5.7643037,13.232119,-12.28466,-1.71495,13.536672,-7.5305357,199.50002,-93.3,-12.900001,,,,,x,
602236,-7.0401425,12.693192,-11.7971735,-1.8521459,13.559538,-7.568646,213.90001,-88.5,-1.5,,,,,x,
602279,-7.4684134,13.789588,-9.4052,-6.608274,5.914672,-8.132674,211.50002,-76.5,-2.1000001,,,,,x,
602367,-8.380581,12.146489,-8.472097,-6.3567476,10.381164,-2.530504,221.1,-78.9,-0.3,,,,,x,
602387,-8.029471,11.860577,-7.631108,-8.186028,6.5854077,-0.967994,216.3,-81.3,-0.90000004,,,,,x,
602427,-7.8512244,11.079402,-5.6087866,-8.696702,5.663146,1.585376,221.1,-90.9,-8.1,,,,,x,
602447,-7.5671067,10.922091,-5.2768173,-9.268352,4.519846,2.888738,228.3,-83.700005,-1.5,,,,,x,
602467,-8.637783,10.693002,-4.669104,-9.26073,4.824726,3.536608,206.70001,-83.700005,-1.5,,,,,x,
602487,-8.133548,10.87723,-5.086608,-8.826276,3.6661818,4.5731997,192.3,-95.700005,-4.5,,,,,x,
602507,-7.660417,9.73059,-3.9949968,-10.548848,-3.056422,4.26832,201.90001,-102.9,-14.1,,,,,x,
602527,-7.4875536,7.9642735,-1.9966012,-10.754642,-8.506152,5.731744,199.50002,-117.3,-5.7000003,,,,,x,
602547,-6.908551,7.9804235,-0.30086592,-9.397925,-8.025966,9.56561,192.3,-117.3,-8.700001,,,,,x,
602567,-6.145919,7.9558997,0.16389118,-9.237864,-4.413138,9.733294,182.70001,-129.3,-17.1,,,,,x,
602590,-5.2343493,5.7314057,-0.66513497,-7.743952,-3.368924,7.92688,173.1,-136.5,-7.5000005,,,,,x,
602610,-4.5381107,4.6918335,-0.16927446,-5.739366,-8.5899935,10.007686,175.5,-131.70001,-21.300001,,,,,x,
602633,-3.3998446,6.212911,0.88285905,-5.167716,-9.542744,12.362884,158.70001,-136.5,-20.1,,,,,x,
602697,-1.2267913,3.276029,0.45040166,-1.196654,-9.832379,9.954331,144.3,-155.70001,-26.7,,,,,x,
602727,-0.4815051,5.6793675,-0.08972145,-0.868908,-7.865904,9.382682,137.1,-158.1,-21.300001,,,,,x,
602790,0.761436,5.126683,-0.36426908,0.93750596,-9.458901,5.846074,108.3,-167.70001,-23.7,,,,,x,
602810,1.1783416,5.0812244,-0.4163075,1.425314,-8.033587,4.474114,96.3,-162.90001,-28.500002,,,,,x,
602830,1.5659384,4.9436517,-0.37802637,1.471046,-7.66011,3.88722,96.3,-182.1,-27.300001,,,,,x,
602850,1.987629,5.2911725,-0.41092423,1.417692,-6.425346,3.841488,84.3,-160.5,-23.7,,,,,x,
602870,2.1150336,5.354576,-0.5933578,1.501534,-5.0381417,2.8048959,101.100006,-162.90001,-22.5,,,,,x,
602890,2.698821,5.267247,-0.9510473,1.920744,-3.856732,2.2942219,98.700005,-165.3,-30.900002,,,,,x,
602913,3.7294214,6.7751656,-1.5725179,2.560992,-1.150922,3.2622159,89.100006,-170.1,-27.900002,,,,,x,
602973,3.7467675,7.2183895,-3.4022372,2.7286758,1.8826339,-2.560992,93.9,-167.70001,-23.1,,,,,,
602993,3.6079984,6.8301945,-3.9949968,1.798792,0.312502,-0.49543,86.700005,-170.1,-29.1,,,,,,
603013,3.7348046,8.497219,-4.2372446,2.027452,0.41921,0.891774,81.9,-174.90001,-21.300001,,,,,,
603033,3.7282252,9.04751,-4.542298,2.7744079,-0.426832,-0.602138,84.3,-170.1,-20.7,,,,,,
603093,2.7000175,8.96078,-3.6085966,0.41921,0.213416,-2.2561119,89.100006,-160.5,-14.1,,,,,,
603113,2.0390694,8.868068,-3.305936,-0.68597996,1.3948259,-2.454284,89.100006,-170.1,-20.1,,,,,,
603133,1.5527792,8.408694,-3.672598,-0.64787,2.393308,-1.8521459,91.5,-160.5,-25.500002,,,,,,
603156,1.4068322,8.964369,-3.4817903,-0.03811,1.173788,-0.70122397,79.5,-177.3,-16.5,,,,,,
603177,1.4905723,8.804067,-2.7095876,-0.868908,0.785066,-0.69360197,86.700005,-174.90001,-20.1,,,,,,
603197,1.3960657,9.0217905,-2.4493954,-0.891774,2.2332458,-0.586894,93.9,-162.90001,-24.900002,,,,,,
603217,1.1903045,9.281982,-2.8788621,-0.846042,3.170752,-0.92226195,91.5,-165.3,-20.7,,,,,,
603237,0.8439797,8.921901,-3.0266035,-0.41921,3.01069,-1.29574,93.9,-158.1,-17.1,,,,,,
603257,0.47073853,8.568398,-2.8938158,0.015244,2.2103798,-1.265252,86.700005,-170.1,-26.1,,,,,,
603281,0.60890955,9.117494,-2.9267135,0.480186,1.455802,-0.434454,91.5,-165.3,-21.900002,,,,,,
603301,0.652574,8.889003,-2.7526538,0.099086,1.272874,-0.731712,103.50001,-155.70001,-18.300001,,,,,,
603323,0.84697044,9.09297,-2.8160572,0.320124,1.3948259,-0.426832,91.5,-170.1,-18.900002,,,,,,
603343,0.8631203,9.347778,-2.7801685,0.198172,1.455802,-0.388722,84.3,-167.70001,-15.900001,,,,,,
603363,0.7805766,9.083399,-2.7622242,-0.068598,1.661596,-0.449698,101.100006,-174.90001,-13.500001,,,,,,
603383,0.83859646,8.879433,-2.7257376,-0.121952,1.745438,-0.16768399,98.700005,-162.90001,-21.900002,,,,,,
603403,0.8559426,8.991883,-2.7723927,0.022866,1.814036,0.129574,96.3,-158.1,-20.7,,,,,,
603423,0.8852516,9.444677,-2.7221487,0.182928,1.6539739,0.0,91.5,-162.90001,-20.1,,,,,,
603443,1.0605075,9.780235,-2.8513474,-0.045732,1.509156,-0.35061198,105.9,-172.5,-18.300001,,,,,,
603467,0.8726906,8.90276,-2.7759814,-0.602138,1.25763,-1.1204339,101.100006,-165.3,-15.3,,,,,,
603487,0.91994387,8.425442,-2.4822934,-0.35061198,0.69360197,-0.53354,101.100006,-155.70001,-21.300001,,,,,,
603507,0.82424104,8.67427,-2.2185123,-0.40396598,0.67073596,-0.106708,91.5,-167.70001,-15.900001,,,,,,
603529,0.6124984,8.622829,-2.1443427,-0.769822,0.907018,-0.34298998,101.100006,-162.90001,-20.7,,,,,,
603549,0.3481192,7.7118573,-1.5904622,-1.5929979,0.617382,-1.234764,101.100006,-162.90001,-20.1,,,,,,
603569,0.9677953,9.0540905,-1.823738,-1.1280559,1.570132,-0.41158798,96.3,-172.5,-18.300001,,,,,,
603631,0.14774132,8.436807,-2.6240532,1.044214,-0.213416,-0.94512796,98.700005,-165.3,-17.1,,,,,,
603651,0.6268538,9.408191,-2.7065969,1.18141,-0.510674,0.365856,105.9,-155.70001,-24.900002,,,,,,
603671,0.88704604,9.873546,-2.9590132,0.45731997,-0.30488,0.884152,101.100006,-162.90001,-18.300001,,,,,,
603692,1.4905723,10.89338,-3.1892984,0.40396598,-0.365856,1.1128119,115.50001,-165.3,-26.7,,,,,,
603712,1.3027554,10.904146,-3.4136019,-0.007622,-0.60976,-0.16768399,101.100006,-160.5,-20.7,,,,,,
603732,0.56165624,9.629503,-3.560147,-0.327746,-0.548784,-1.29574,93.9,-177.3,-21.900002,,,,,,
603752,0.31761393,8.772963,-3.7623193,0.274392,-1.3948259,-1.074702,101.100006,-158.1,-24.300001,,,,,,
603772,0.50064564,9.386658,-3.381302,-0.030488,-2.332332,-0.137196,110.700005,-155.70001,-19.5,,,,,,
603793,0.4791125,9.525427,-3.4925568,-0.632626,-1.150922,-1.021348,91.5,-167.70001,-22.5,,,,,,
603813,0.34153965,9.2054205,-3.7922266,-0.434454,-0.586894,-1.775926,110.700005,-165.3,-21.900002,,,,,,
603833,0.27873462,9.288562,-3.3998446,-0.365856,-1.02897,-1.8445239,93.9,-165.3,-22.5,,,,,,
603855,0.2171259,9.271216,-3.0852215,-0.7622,-0.091464,-1.539644,101.100006,-167.70001,-20.7,,,,,,
603875,0.18183546,9.499108,-3.0469403,-0.998482,0.769822,-1.173788,105.9,-174.90001,-18.900002,,,,,,
603937,-0.0891233,8.351273,-2.4661434,-0.87653,0.663114,-0.663114,117.9,-153.3,-19.5,,,,,,
603957,0.16329303,8.769972,-2.3471131,-0.442076,0.33536798,0.0,105.9,-155.70001,-25.500002,,,,,,
603980,0.5592637,9.13125,-2.3166077,-0.41158798,0.099086,0.053354,108.3,-170.1,-23.1,,,,,,
604000,0.68427557,8.969153,-2.4039366,-0.617382,0.26677,-0.23628199,96.3,-155.70001,-18.900002,,,,,,
604020,0.6591536,9.11211,-2.748467,-0.35061198,0.22865999,-0.22865999,122.700005,-155.70001,-21.900002,,,,,,
604040,0.68666816,8.94762,-2.7514577,-0.137196,0.083841994,-0.480186,110.700005,-155.70001,-21.900002,,,,,,
604061,0.72554743,8.963172,-2.849553,-0.251526,-0.007622,-0.3811,96.3,-160.5,-18.900002,,,,,,
604081,0.8685036,9.127064,-2.659942,-0.259148,-0.243904,-0.365856,105.9,-167.70001,-25.500002,,,,,,
604101,0.71358454,9.12826,-2.4374325,-0.617382,0.129574,-0.716468,110.700005,-162.90001,-23.7,,,,,,
604124,0.669322,9.152783,-2.6096978,-0.449698,0.602138,-0.861286,113.100006,-174.90001,-20.7,,,,,,
604144,0.4551868,9.157569,-2.4954524,-0.388722,0.41921,-1.1356779,115.50001,-165.3,-20.1,,,,,,
604164,0.43185923,9.180897,-2.5421076,-0.182928,0.41158798,-1.211898,108.3,-160.5,-23.1,,,,,,
604184,0.3505118,9.228149,-2.3812072,-0.121952,0.20579399,-1.3795819,98.700005,-160.5,-13.500001,,,,,,
604204,0.25122005,9.197644,-2.4188902,-0.28201398,0.525918,-1.501534,105.9,-160.5,-23.7,,,,,,
604227,0.02033686,8.806459,-2.4338439,-0.297258,0.289636,-1.250008,113.100006,-155.70001,-13.500001,,,,,,
604247,0.037084863,8.879433,-2.4464047,-0.022866,0.099086,-0.975616,108.3,-148.5,-21.900002,,,,,,
604268,0.019140575,9.217981,-2.4655454,0.35061198,-0.060976,-0.80030996,115.50001,-160.5,-18.300001,,,,,,
604288,-0.06459944,9.42434,-2.4870784,0.198172,-0.41921,-0.853664,115.50001,-155.70001,-21.900002,,,,,,
604308,-0.0059814295,9.368713,-2.467938,0.33536798,-0.640248,-1.280496,129.90001,-158.1,-21.300001,,,,,x,
604328,-0.56165624,9.158167,-2.4117124,0.602138,-1.3948259,-1.3795819,120.3,-150.90001,-17.1,,,,,x,
604348,-0.9259253,9.470398,-2.2352602,0.731712,-2.17227,-0.72409,137.1,-167.70001,-17.1,,,,,x,
604371,-1.0491427,10.373593,-2.2149234,0.586894,-3.1783738,-0.060976,134.70001,-160.5,-20.1,,,,,x,
604391,-1.7920363,10.015904,-1.2555021,-0.396344,-5.655524,-0.487808,125.100006,-158.1,-25.500002,,,,,x,
604411,-1.4301598,9.336413,0.5347398,-2.652456,-8.910118,0.81555396,125.100006,-165.3,-20.7,,,,,x,
604471,-1.4134119,6.5496655,2.2962708,0.45731997,-7.721086,3.399412,120.3,-150.90001,-22.5,,,,,x,
604494,-1.071274,5.5501685,1.1783416,1.692084,-9.855246,1.783548,115.50001,-160.5,-21.300001,,,,,x,
604514,-0.33137122,4.5076056,1.23038,2.926848,-11.379645,1.478668,113.100006,-167.70001,-21.300001,,,,,x,
604534,0.5191881,3.899892,1.359579,4.61131,-13.780576,3.132642,117.9,-167.70001,-21.300001,,,,,x,
604594,1.4636558,2.2573917,-0.840989,3.559474,-11.89032,1.699706,113.100006,-158.1,-27.300001,,,,,x,
604614,2.0061715,3.3035436,-2.0653877,3.833866,-8.628104,0.26677,103.50001,-158.1,-25.500002,,,,,x,
604634,1.4427209,3.284403,-3.6749904,4.314052,-5.4268637,-2.576236,110.700005,-170.1,-21.900002,,,,,x,
604658,2.0384712,3.4692292,-5.3659406,5.8918056,-4.15399,-2.560992,101.100006,-158.1,-26.1,,,,,x,
604698,2.467938,6.363643,-6.6669016,2.873494,-5.8613176,-5.03052,117.9,-158.1,-16.5,,,,,x,
604759,2.5851738,9.3346195,-7.534807,1.166166,-0.846042,-3.132642,120.3,-143.70001,-25.500002,,,,,x,
604779,0.48928094,8.78373,-8.238821,0.3811,2.827762,-10.975679,129.90001,-150.90001,-23.1,,,,,x,
604799,-1.0479465,5.434727,-9.079212,3.064044,3.8262439,-15.3049755,144.3,-141.3,-17.7,,,,,x,
604819,0.035290435,7.413982,-9.206018,-0.26677,1.821658,-9.489389,151.5,-141.3,-24.300001,,,,,x,
604839,-1.1693695,10.640964,-8.271121,-2.088428,3.7042918,-7.987856,170.70001,-119.700005,-23.1,,,,,x,
604861,-1.5725179,11.383857,-9.097157,1.272874,9.855246,-11.806478,173.1,-136.5,-18.900002,,,,,x,
604881,-3.003874,8.93805,-10.514157,2.454284,14.893388,-16.074799,189.90001,-112.50001,-23.1,,,,,x,
604901,-4.7755733,8.68384,-12.128545,3.140264,15.297354,-13.07173,192.3,-112.50001,-18.300001,,,,,x,
604921,-4.3778086,11.770856,-12.670463,0.525918,12.91929,-8.872007,204.3,-107.700005,-12.900001,,,,,x,
604941,-4.3855844,13.468984,-12.6716585,-0.3811,11.753123,-10.6631775,211.50002,-90.9,-12.900001,,,,,x,
604964,-5.489756,11.616534,-13.322438,1.173788,13.361365,-11.463488,223.50002,-105.3,-17.1,,,,,x,
605044,-10.143309,12.626798,-11.968841,-6.775958,9.18451,-7.492426,223.50002,-81.3,-4.5,,,,,x,
605071,-8.762197,13.037723,-10.551242,-6.8826656,3.46801,-5.762232,225.90001,-66.9,-3.3000002,,,,,x,
605131,-9.741955,13.765064,-7.368523,-3.7424018,14.169297,2.012208,228.3,-66.9,-9.900001,,,,,x,
605194,-10.078709,11.470588,-4.082326,-6.951264,9.862867,0.57164997,228.3,-83.700005,-3.9,,,,,x,
605236,-9.455444,11.3216505,-2.9978926,-9.336949,3.521364,2.2561119,221.1,-90.9,-5.1000004,,,,,x,
605256,-9.148597,10.8574915,-2.3034487,-8.186028,3.140264,4.771372,218.70001,-95.700005,-1.5,,,,,x,
605276,-8.961976,10.651132,-1.2806242,-9.329328,0.830798,6.0137577,225.90001,-105.3,-12.3,,,,,x,
605299,-8.866273,8.587539,-0.10228245,-8.711946,1.21952,5.83083,216.3,-107.700005,-8.700001,,,,,x,
605319,-7.4522634,8.783132,-0.64838696,-6.8598,2.47715,9.314084,199.50002,-107.700005,-9.3,,,,,x,
605342,-7.1179013,8.929078,-0.857737,-7.614378,0.625004,9.131156,197.1,-119.700005,-17.1,,,,,x,
605362,-6.6040964,6.6178536,-1.1227144,-5.94516,-2.317088,6.8521776,185.1,-124.50001,-14.1,,,,,x,
605382,-5.1751328,5.1942735,-1.1203218,-4.245454,-7.073216,7.9345016,189.90001,-136.5,-14.700001,,,,,x,
605442,-2.6246514,4.5763917,-0.694444,-2.050318,-6.4482117,7.3171196,170.70001,-153.3,-18.900002,,,,,x,
605633,1.5222739,4.7917233,-0.73451954,2.027452,-5.647902,4.123502,115.50001,-165.3,-24.900002,,,,,x,
605691,4.258778,6.350484,-3.3807042,2.93447,-1.1128119,3.4299,105.9,-172.5,-28.500002,,,,,x,
605727,4.752246,7.187884,-3.4991364,1.8978779,-1.5244,4.108258,96.3,-160.5,-23.7,,,,,x,
605747,5.015429,8.193362,-3.3693395,1.75306,-1.051836,4.618932,79.5,-177.3,-20.7,,,,,x,
605790,3.8891256,8.186185,-4.3807993,1.189032,2.522882,0.0,91.5,-170.1,-18.900002,,,,,x,
605810,3.3627598,8.500808,-4.4992313,2.004586,2.073184,0.3811,91.5,-184.5,-20.1,,,,,x,
605830,2.597735,9.361536,-4.8102655,1.935988,2.964958,0.23628199,86.700005,-160.5,-21.300001,,,,,x,
605851,2.2041569,9.058277,-5.3145003,1.760682,3.346058,-1.3872039,81.9,-170.1,-20.1,,,,,,
605872,2.0725653,8.339908,-5.1302724,1.585376,1.318606,-2.2789779,91.5,-170.1,-21.900002,,,,,,
605892,1.9427683,8.637184,-4.3162,1.044214,0.67073596,-1.8369019,96.3,-165.3,-25.500002,,,,,,
605913,1.7896438,8.964369,-4.166664,0.274392,1.8902559,-1.669218,96.3,-172.5,-23.7,,,,,,
605933,1.6622393,8.906947,-4.0009785,-0.617382,1.71495,-1.6158639,89.100006,-165.3,-18.900002,,,,,,
605953,1.2866055,8.7089615,-3.1049602,-1.585376,1.539644,-1.6539739,98.700005,-160.5,-19.5,,,,,,
605976,1.0180393,8.814833,-3.241935,-1.471046,3.109776,-1.48629,110.700005,-172.5,-19.5,,,,,,
605996,0.8864479,8.696401,-3.1641762,-1.3872039,2.675322,-1.56251,101.100006,-162.90001,-15.900001,,,,,,
606018,0.8655129,8.608474,-2.5815852,-0.853664,1.8597679,-1.059458,89.100006,-158.1,-17.7,,,,,,
606038,0.8056986,9.172523,-2.6892507,-0.510674,2.141782,-0.7622,96.3,-167.70001,-21.900002,,,,,,
606099,0.5610581,9.420752,-2.924321,-0.053354,2.164648,-1.310984,91.5,-153.3,-21.300001,,,,,,
606154,0.1501339,8.99607,-2.811272,-0.396344,1.493912,-1.775926,113.100006,-162.90001,-23.1,,,,,,
606175,0.1573116,9.0654545,-2.777776,-0.602138,1.41007,-1.196654,113.100006,-162.90001,-17.7,,,,,,
606215,0.3505118,9.069642,-2.5421076,-0.548784,0.998482,-0.45731997,115.50001,-158.1,-25.500002,,,,,,
606255,0.41570938,9.081605,-2.5714166,-0.46494198,1.242386,-0.586894,110.700005,-177.3,-14.1,,,,,,
606275,0.2685662,8.638381,-2.522369,0.053354,1.1432999,-0.67835796,89.100006,-165.3,-20.7,,,,,,
606295,0.18901318,8.771767,-2.5343318,0.297258,0.868908,-0.144818,103.50001,-165.3,-18.300001,,,,,,
606335,-0.22430362,9.088184,-2.668316,0.70122397,0.327746,0.518296,103.50001,-155.70001,-24.900002,,,,,,
606355,-0.66214424,9.262244,-2.4655454,1.021348,-1.1432999,1.1356779,110.700005,-158.1,-18.300001,,,,,,
606395,-0.8344094,10.081699,-1.3021573,-0.60976,-3.064044,2.568614,117.9,-162.90001,-20.1,,,,,x,
606415,-1.3434291,9.393835,-1.1603974,-0.998482,-2.40093,2.073184,105.9,-162.90001,-20.1,,,,,x,
606435,-1.5306479,9.13125,-0.98035634,-0.853664,-4.695152,2.827762,117.9,-165.3,-20.7,,,,,x,
606455,-1.1938933,9.098951,-0.44501838,-0.53354,-6.70736,3.528986,101.100006,-167.70001,-15.900001,,,,,x,
606475,-0.6597517,8.907545,-0.43245736,-0.015244,-8.68908,3.7881339,101.100006,-172.5,-18.300001,,,,,x,
606497,-0.3648672,7.689128,0.029907148,0.198172,-11.532085,3.407034,96.3,-172.5,-19.5,,,,,x,
606517,0.08852516,6.0771327,0.6286483,0.7622,-13.87204,2.949714,93.9,-158.1,-18.900002,,,,,x,
606541,0.732127,4.8664913,0.88943857,1.41007,-14.855278,2.89636,91.5,-170.1,-17.7,,,,,x,
606561,1.7244462,4.1947765,0.9725805,1.425314,-15.480282,3.003068,98.700005,-174.90001,-23.1,,,,,x,
606581,1.9738718,3.6056058,1.075461,1.71495,-15.724186,1.75306,89.100006,-162.90001,-15.3,,,,,x,
606601,1.6927446,2.0492377,0.79553014,1.760682,-15.000095,-0.56402797,81.9,-170.1,-21.300001,,,,,x,
606625,2.1156316,1.4158044,-0.3343619,1.585376,-13.178437,-0.449698,91.5,-177.3,-22.5,,,,,x,
606645,2.0767524,1.9260204,-0.90379405,1.577754,-11.478732,-1.211898,89.100006,-172.5,-23.1,,,,,x,
606665,2.932097,3.5451934,-2.756841,3.1936178,-6.82169,-1.166166,86.700005,-165.3,-24.900002,,,,,x,
606685,1.8799634,3.627139,-4.709778,3.628072,-3.894842,-4.070148,84.3,-167.70001,-20.7,,,,,x,
606705,2.0994818,3.5798857,-5.7505465,5.160094,-4.809482,-4.4207597,74.700005,-172.5,-29.7,,,,,x,
606725,1.5862751,5.0596914,-5.912045,2.416174,-4.474114,-4.024416,101.100006,-167.70001,-23.7,,,,,x,
606745,0.9378882,5.6721897,-6.6011057,1.707328,-1.25763,-5.5030837,105.9,-160.5,-11.700001,,,,,x,
606765,0.4151112,4.597925,-7.017413,2.118916,0.777444,-8.376577,113.100006,-141.3,-18.300001,,,,,x,
606785,1.4379357,7.4588428,-7.8512244,2.530504,2.09605,-4.893324,125.100006,-138.90001,-21.900002,,,,,x,
606806,-0.14534874,9.178504,-8.143717,-0.274392,4.8857017,-7.9649897,120.3,-150.90001,-23.1,,,,,x,
606826,-1.5055258,7.2799983,-9.218579,2.926848,8.224138,-13.559538,129.90001,-148.5,-20.1,,,,,x,
606846,-0.026916433,6.5532546,-10.349668,3.16313,7.522914,-12.393372,151.5,-138.90001,-17.1,,,,,x,
606869,0.1824336,9.419556,-10.368809,0.80793196,4.748506,-6.806446,146.70001,-146.1,-15.3,,,,,x,
606929,-2.5750055,8.868666,-10.517746,2.873494,14.21503,-16.53974,177.90001,-136.5,-18.900002,,,,,x,
606952,-2.8064868,11.149983,-13.181875,2.2027578,17.202854,-12.606788,177.90001,-124.50001,-5.7000003,,,,,x,
606972,-2.1903996,11.565693,-14.047388,2.042696,13.193682,-12.7058735,192.3,-102.9,-5.1000004,,,,,x,
606992,-4.1648693,11.60218,-14.161633,0.297258,10.236346,-11.913186,209.1,-95.700005,-9.3,,,,,x,
607016,-5.1649647,11.289948,-13.878712,-2.2103798,6.341504,-11.936051,201.90001,-88.5,-8.1,,,,,x,
607036,-5.7810516,9.6372795,-11.62132,-5.701256,3.88722,-12.7058735,216.3,-93.3,-12.900001,,,,,x,
607076,-7.4277396,11.91441,-11.583637,-5.198204,10.297321,-7.0503497,223.50002,-88.5,-3.9,,,,,x,
607233,-9.596007,12.118377,1.2477262,-14.611374,-6.3872356,-0.777444,223.50002,-98.100006,-4.5,,,,,x,
607253,-9.8645735,10.056578,0.8350076,-6.311016,8.391822,0.99086,233.1,-102.9,-16.5,,,,,x,
607293,-7.979227,12.108807,-0.6077133,-7.865904,3.6738038,4.969544,230.70001,-102.9,-15.900001,,,,,x,
607314,-8.825002,10.935848,-0.06639387,-6.036624,4.38265,5.64028,206.70001,-98.100006,-18.900002,,,,,x,
607334,-7.9098425,10.499802,-1.032993,-5.541194,4.199722,7.339986,213.90001,-110.100006,-12.900001,,,,,x,
607354,-7.1274714,9.750927,-1.0868257,-4.672286,1.234764,7.743952,204.3,-107.700005,-17.1,,,,,x,
607378,-6.029879,8.217886,-0.71597713,-4.4055157,-3.071666,6.890288,199.50002,-122.100006,-11.700001,,,,,x,
607398,-5.568113,6.421663,0.30385664,-3.399412,-4.679908,8.963471,192.3,-122.100006,-21.300001,,,,,x,
607418,-4.196571,8.303421,-0.2990715,-3.475632,-3.8186219,13.254658,182.70001,-124.50001,-26.1,,,,,x,
607478,-2.7705982,4.6679077,-0.794932,-0.891774,-7.0655937,8.147918,158.70001,-136.5,-20.7,,,,,x,
607498,-1.9684886,5.9999723,-0.1824336,-1.6082419,-7.0808377,12.629654,161.1,-143.70001,-17.7,,,,,x,
607519,-0.90798104,7.3930473,-1.1472383,-1.1204339,-3.7957559,10.914703,144.3,-134.1,-20.7,,,,,x,
607539,-0.7901469,6.857709,-1.4110193,-0.579272,-4.733262,8.628104,127.50001,-170.1,-24.300001,,,,,x,
607560,-0.748875,6.067562,-1.0383762,-0.60976,-5.571682,6.28815,115.50001,-160.5,-17.7,,,,,x,
607580,-0.11304902,5.534019,-1.3326626,0.060976,-5.343022,4.847592,122.700005,-153.3,-27.300001,,,,,x,
607602,0.6753034,5.405418,-1.3649622,0.17530599,-6.623518,5.289668,122.700005,-155.70001,-28.500002,,,,,x,
607622,0.577208,5.383885,-0.69803286,-0.365856,-5.884184,5.236314,113.100006,-167.70001,-28.500002,,,,,x,
607642,0.7393047,5.7314057,-1.3290737,0.221038,-4.131124,5.061008,98.700005,-158.1,-22.5,,,,,x,
607662,1.0515354,5.7672944,-1.2913907,0.327746,-3.993928,4.5731997,103.50001,-184.5,-26.1,,,,,x,
607704,1.4738243,6.916327,-1.8596265,0.792688,-2.560992,3.35368,86.700005,-179.70001,-26.7,,,,,x,
607724,1.5868733,6.1088343,-2.1281927,1.48629,-2.6905658,1.493912,91.5,-155.70001,-29.1,,,,,x,
607744,1.9331981,5.212218,-1.9523387,1.539644,-3.902464,1.211898,89.100006,-167.70001,-21.300001,,,,,x,
607767,3.1569986,6.836176,-2.2358584,0.754578,-2.309466,3.033556,81.9,-167.70001,-15.900001,,,,,x,
607787,3.174943,7.2357354,-2.5570612,0.891774,-1.006104,1.3795819,77.100006,-170.1,-27.900002,,,,,x,
607807,3.2562904,6.8756533,-3.2066445,1.150922,0.121952,-0.137196,81.9,-172.5,-32.100002,,,,,x,
607827,3.359171,6.836176,-3.4207797,1.3567159,-1.265252,0.129574,79.5,-167.70001,-22.5,,,,,x,
607848,3.3328526,7.629912,-2.8136644,0.144818,-2.164648,0.213416,77.100006,-165.3,-26.7,,,,,x,
607868,3.4189851,8.27471,-2.9255173,0.426832,-1.56251,-0.40396598,72.3,-174.90001,-26.7,,,,,,
607888,3.3741245,8.638979,-2.5588555,-0.373478,-2.118916,-1.18141,84.3,-184.5,-28.500002,,,,,,
607908,3.6169705,8.4499655,-2.3249817,-1.158544,-1.71495,-1.71495,86.700005,-165.3,-29.7,,,,,,
607948,2.6366143,8.630007,-2.585772,-0.35061198,-0.243904,-0.983238,89.100006,-167.70001,-26.7,,,,,,
607968,2.1527166,8.462526,-2.689849,0.47256398,0.17530599,-1.204276,96.3,-174.90001,-25.500002,,,,,,
607988,1.9559275,8.781935,-2.8621142,1.089946,1.021348,-0.998482,79.5,-170.1,-19.5,,,,,,
608008,1.7423905,9.231739,-3.1940835,1.234764,1.234764,-1.089946,89.100006,-172.5,-25.500002,,,,,,
608028,1.5210776,9.058277,-3.0200238,0.708846,0.891774,-1.33385,79.5,-167.70001,-28.500002,,,,,,
608048,1.6688188,9.17013,-2.8752732,0.388722,0.975616,-0.95274997,86.700005,-174.90001,-30.300001,,,,,,
608068,1.6389117,9.173718,-2.856731,0.03811,1.41007,-0.967994,96.3,-162.90001,-28.500002,,,,,,
608090,1.6562579,9.165345,-2.8776658,0.182928,1.75306,-0.95274997,74.700005,-170.1,-36.300003,,,,,,
608110,1.3769251,9.22157,-2.8064868,0.26677,1.8978779,-1.18141,91.5,-172.5,-27.300001,,,,,,
608130,1.2291838,9.159962,-2.6928396,0.068598,1.814036,-1.265252,91.5,-160.5,-18.300001,,,,,,
608150,1.0599093,9.174915,-2.6467826,0.015244,1.8597679,-1.173788,98.700005,-172.5,-24.300001,,,,,,
608192,1.113144,9.330432,-2.2376528,-0.33536798,1.669218,-0.82317597,93.9,-165.3,-22.5,,,,,,
608212,0.88226086,9.609765,-2.4308531,-0.449698,1.234764,-1.44818,96.3,-162.90001,-18.900002,,,,,,
608233,0.8601296,8.811244,-2.2454288,-0.365856,0.655492,-2.195136,96.3,-165.3,-24.300001,,,,,,
608253,0.8858497,9.019996,-1.9936105,0.007622,-0.449698,-1.501534,84.3,-165.3,-22.5,,,,,,
608275,0.69264954,9.754516,-2.1939883,-0.426832,0.586894,-1.94361,108.3,-158.1,-20.7,,,,,,
608295,0.33914706,9.308301,-2.2023625,-0.160062,-0.20579399,-2.995446,113.100006,-155.70001,-23.1,,,,,,
608315,0.03469229,8.780739,-2.0869207,-0.007622,0.106708,-2.6905658,93.9,-165.3,-21.900002,,,,,,
608335,0.026916433,9.18927,-2.317804,0.099086,0.251526,-1.6006199,117.9,-162.90001,-32.100002,,,,,,
608355,-0.1794429,9.417761,-2.2741396,0.40396598,0.0,-1.6387299,115.50001,-146.1,-24.900002,,,,,,
608375,-0.11424531,9.449463,-2.4912655,0.358234,0.579272,-1.425314,101.100006,-170.1,-24.300001,,,,,,
608415,-0.2033686,8.839356,-2.580987,0.121952,0.548784,-0.82317597,120.3,-165.3,-24.300001,,,,,,
608435,-0.24045348,9.266431,-2.7371023,0.297258,0.243904,-0.17530599,105.9,-165.3,-26.7,,,,,,
608456,-0.26258478,9.299329,-2.6934378,0.274392,-0.03811,-0.33536798,115.50001,-167.70001,-29.7,,,,,,
608476,0.009570288,9.466809,-2.569024,0.365856,-0.442076,-0.3811,117.9,-174.90001,-24.900002,,,,,,
608496,0.15611531,9.250879,-2.3279724,-0.060976,-0.083841994,-0.769822,113.100006,-165.3,-20.1,,,,,,
608537,-0.22789247,9.290955,-2.6455863,0.007622,0.754578,-0.53354,105.9,-162.90001,-17.1,,,,,,
608561,-0.2171259,8.954201,-2.7472706,0.3811,0.69360197,-0.396344,115.50001,-160.5,-25.500002,,,,,,
608582,0.0035888578,9.2592535,-2.5259578,0.312502,0.769822,0.030488,132.3,-162.90001,-20.1,,,,,,
608602,-0.09570287,9.301722,-2.5863702,0.099086,1.074702,0.053354,105.9,-155.70001,-19.5,,,,,,
608622,-0.15491903,9.386658,-2.8561327,-0.022866,0.853664,-0.312502,113.100006,-160.5,-22.5,,,,,,
608642,-0.14056359,8.742457,-2.807683,-0.243904,0.617382,-0.274392,113.100006,-158.1,-19.5,,,,,,
608662,0.055029154,8.9865,-2.7442799,0.259148,0.297258,0.33536798,120.3,-170.1,-24.300001,,,,,,
608723,0.20695747,8.900368,-2.7203543,-0.045732,0.640248,-0.434454,117.9,-158.1,-25.500002,,,,,,
608747,0.27394947,8.933266,-2.60252,0.0,0.663114,-0.137196,115.50001,-165.3,-21.900002,,,,,,
608787,0.31641763,9.329834,-2.6641288,-0.373478,1.089946,-0.16768399,122.700005,-172.5,-24.900002,,,,,,
608809,0.31940836,9.177906,-2.61867,-0.083841994,0.967994,-0.243904,113.100006,-165.3,-13.500001,,,,,,
608829,0.33854893,8.953602,-2.4164977,-0.083841994,0.792688,-0.17530599,110.700005,-160.5,-20.7,,,,,,
608891,-0.20695747,9.061866,-2.096491,0.45731997,-0.243904,0.198172,108.3,-165.3,-18.300001,,,,,x,
608911,0.112450875,9.910032,-2.272345,0.884152,-0.46494198,0.861286,110.700005,-165.3,-18.300001,,,,,x,
608971,-0.30325848,8.699989,-0.5999374,-0.518296,-2.7896519,0.655492,105.9,-160.5,-18.300001,,,,,x,
608992,-0.15073203,8.690419,-0.23626648,-0.525918,-3.437522,1.821658,120.3,-172.5,-18.900002,,,,,x,
609012,-0.08374002,8.909938,-0.026318291,0.19055,-4.580822,2.126538,113.100006,-170.1,-18.900002,,,,,x,
609032,0.36426908,8.858498,0.42827037,0.80793196,-6.9893737,2.2637339,101.100006,-167.70001,-18.900002,,,,,x,
609052,0.4300648,7.6550336,0.86371845,1.082324,-8.971094,1.707328,101.100006,-158.1,-17.7,,,,,x,
609072,0.36785793,5.3653426,1.0240208,2.2789779,-11.333914,0.53354,98.700005,-170.1,-21.300001,,,,,x,
609093,0.96241206,4.1361585,1.0491427,4.504602,-12.972644,1.3567159,103.50001,-167.70001,-18.900002,,,,,x,
609113,1.7364091,4.1660657,0.90140146,5.3811316,-13.933016,2.2942219,103.50001,-167.70001,-23.7,,,,,x,
609133,1.9971994,3.262272,0.75366014,5.358266,-14.36747,1.432936,108.3,-162.90001,-24.900002,,,,,x,
609153,1.8069899,2.0785468,0.44202766,4.61131,-14.245518,0.7622,101.100006,-170.1,-19.5,,,,,x,
609213,1.8889354,2.9099655,-2.623455,3.6585598,-10.807996,1.1128119,93.9,-150.90001,-26.1,,,,,x,
609233,1.4481041,3.8227317,-2.8435717,2.36282,-10.792751,-0.46494198,98.700005,-158.1,-13.500001,,,,,x,
609253,0.5072252,3.0941937,-3.28859,1.1432999,-8.719568,-3.025934,113.100006,-158.1,-17.7,,,,,x,
609273,-0.6286483,2.2849061,-4.209132,1.1432999,-4.5884438,-5.0838737,108.3,-155.70001,-20.1,,,,,x,
609293,0.39776507,4.288087,-5.9006805,1.9054999,-3.041178,-3.864354,120.3,-162.90001,-24.900002,,,,,x,
609313,0.5455064,6.8379703,-6.631013,2.576236,-3.88722,-4.15399,115.50001,-165.3,-20.7,,,,,x,
609333,-1.4732262,6.81883,-7.1011534,1.6082419,-3.117398,-8.529017,122.700005,-148.5,-23.7,,,,,x,
609396,-1.4821982,10.518344,-8.558229,-0.55640596,1.9131219,-8.68908,144.3,-146.1,-16.5,,,,,x,
609438,-3.3310583,8.917713,-10.79648,0.068598,7.3323636,-13.025998,158.70001,-126.9,-14.700001,,,,,x,
609628,-8.332131,11.6673765,-9.960875,-10.083906,7.614378,-12.568678,209.1,-78.9,-3.9,,,,,x,
609690,-10.57756,12.289446,-8.228055,-10.51836,9.397925,-5.3658876,233.1,-71.700005,-3.9,,,,,x,
609710,-10.931661,12.016692,-7.358953,-8.719568,12.103736,-5.160094,240.3,-59.7,-1.5,,,,,x,
609730,-10.51296,12.086077,-7.4546556,-8.849142,8.704324,-3.498498,240.3,-64.5,-8.1,,,,,x,
609751,-11.199629,11.982,-5.410203,-11.783611,2.835384,-2.065562,252.3,-76.5,-3.9,,,,,x,
609771,-10.929269,12.293035,-3.2820106,-11.913186,0.594516,-0.548784,249.90001,-81.3,-3.9,,,,,x,
609811,-10.483652,9.8532095,-2.3106263,-7.6524878,6.1052217,2.2561119,237.90001,-88.5,-16.5,,,,,x,
609835,-10.0697365,10.156467,-2.5169857,-7.43145,4.893324,5.846074,221.1,-86.100006,-12.900001,,,,,x,
609856,-7.5210495,11.150581,-2.234064,-6.93602,1.318606,7.85066,228.3,-90.9,-12.900001,,,,,x,
609876,-8.068351,9.989586,-0.9366919,-7.751574,-0.708846,7.027484,223.50002,-95.700005,-12.900001,,,,,x,
609936,-5.9485316,7.4379077,-0.55746925,-5.8613176,-6.844556,9.329328,197.1,-112.50001,-11.700001,,,,,x,
609959,-5.1535997,6.5305247,0.09450659,-4.626554,-6.638762,9.87049,201.90001,-131.70001,-19.5,,,,,x,
609979,-4.5333257,7.0981627,-0.11962859,-3.871976,-6.341504,10.731775,177.90001,-134.1,-17.7,,,,,x,
609999,-4.450782,6.998273,-0.38879293,-4.070148,-6.0137577,8.711946,180.3,-129.3,-20.1,,,,,x,
610019,-4.1379533,5.1817126,-0.3493155,-2.7058098,-7.804928,7.751574,173.1,-136.5,-18.900002,,,,,x,
610040,-4.1852064,4.6260376,0.3343619,-2.652456,-9.588476,10.259212,170.70001,-148.5,-26.1,,,,,x,
610060,-3.116325,5.4526715,-0.21114446,-1.958854,-7.5915117,11.7150135,158.70001,-146.1,-23.1,,,,,x,
610083,-2.250812,5.56273,-0.698631,-1.173788,-8.597616,10.548848,144.3,-146.1,-20.1,,,,,x,
610103,-1.041965,5.2863874,-0.22729433,-0.312502,-10.564092,9.336949,129.90001,-146.1,-29.1,,,,,x,
610123,-0.5096178,4.662524,0.26557547,-0.80793196,-9.535122,7.294254,149.1,-158.1,-30.300001,,,,,x,
610143,0.21592961,3.9818377,-0.69564027,1.21952,-6.4482117,5.823208,132.3,-158.1,-24.900002,,,,,x,
610165,1.2596891,4.2868905,-0.7309307,2.347576,-7.804928,6.4024796,117.9,-165.3,-28.500002,,,,,x,
610185,1.7256424,4.8808465,-0.72853816,2.6829438,-5.853696,6.265284,115.50001,-172.5,-22.5,,,,,x,
610205,2.238251,5.196068,-1.1274995,2.7744079,-3.940574,5.94516,105.9,-165.3,-28.500002,,,,,x,
610225,2.615081,5.5950294,-1.3829066,2.637212,-3.2698379,5.5183277,91.5,-172.5,-26.7,,,,,x,
610248,2.8728807,5.4742045,-1.5988362,2.36282,-1.935988,4.298808,96.3,-162.90001,-24.900002,,,,,x,
610268,3.2706459,5.563328,-2.2472231,3.12502,-0.64787,3.7728899,84.3,-170.1,-29.1,,,,,x,
610288,3.9650898,6.42585,-2.356085,2.416174,-1.3414719,4.138746,81.9,-177.3,-23.1,,,,,,
610308,3.9543233,6.753034,-2.36745,1.56251,-0.548784,3.056422,74.700005,-162.90001,-30.300001,,,,,,
610328,3.908266,6.7667913,-2.832207,2.103672,1.242386,2.05794,86.700005,-170.1,-16.5,,,,,,
610351,4.435828,8.5139675,-3.2748327,1.8902559,0.60976,2.545748,93.9,-172.5,-25.500002,,,,,,
610371,4.46753,9.47279,-3.167167,0.632626,0.663114,0.617382,74.700005,-179.70001,-18.300001,,,,,,
610391,4.028493,8.58395,-3.5774932,0.449698,1.730194,-1.9054999,86.700005,-174.90001,-21.900002,,,,,,
610413,2.6982229,7.095172,-3.438724,1.1204339,0.92988396,-2.431418,79.5,-170.1,-21.900002,,,,,,
610434,2.301654,7.856608,-3.7497582,1.280496,1.692084,-1.173788,91.5,-167.70001,-23.1,,,,,,
610454,2.3507018,8.81902,-3.9501362,1.189032,1.417692,-1.1280559,77.100006,-162.90001,-27.300001,,,,,,
610474,2.217316,9.366919,-3.6911402,0.594516,1.06708,-1.94361,96.3,-170.1,-21.900002,,,,,,
610536,1.0898165,8.30043,-3.6402981,0.442076,1.79117,-1.951232,89.100006,-165.3,-15.3,,,,,,
610556,0.83560574,8.646755,-3.7371974,0.91463995,1.989342,-1.44818,84.3,-162.90001,-18.300001,,,,,,
610576,0.9522436,9.542773,-4.0177264,1.3567159,1.547266,-1.173788,93.9,-160.5,-19.5,,,,,,
610598,1.0808444,9.680944,-3.706692,0.69360197,1.4024479,-1.478668,96.3,-167.70001,-12.3,,,,,,
610638,0.9259253,8.90934,-3.518277,-0.87653,1.8369019,-0.94512796,96.3,-165.3,-23.7,,,,,,
610658,0.9845433,8.945827,-3.1611855,-1.082324,1.250008,-0.365856,96.3,-179.70001,-19.5,,,,,,
610681,1.0162449,9.225159,-2.7371023,-1.29574,1.5929979,-0.35061198,96.3,-167.70001,-22.5,,,,,,
610701,1.0981905,9.258057,-2.4739194,-1.455802,1.097568,-0.92226195,108.3,-170.1,-25.500002,,,,,,
610723,1.0664889,8.603688,-2.1383612,-1.707328,1.4024479,-1.21952,103.50001,-170.1,-23.7,,,,,,
610743,0.899607,8.962574,-2.146137,-1.021348,2.027452,-0.907018,89.100006,-177.3,-17.1,,,,,,
610763,0.6848737,8.862086,-2.3530943,-0.81555396,2.141782,-1.265252,105.9,-165.3,-22.5,,,,,,
610786,0.35828763,8.988893,-2.5869684,-0.129574,2.050318,-1.036592,103.50001,-170.1,-24.900002,,,,,,
610826,0.68666816,8.864479,-2.4164977,0.289636,0.853664,-0.64787,110.700005,-170.1,-18.900002,,,,,,
610846,0.72853816,9.243702,-2.4093199,0.007622,1.196654,-0.16768399,96.3,-160.5,-23.1,,,,,,
610866,0.6513777,9.385462,-2.7077932,-0.41921,1.669218,-0.091464,105.9,-165.3,-19.5,,,,,,
610889,0.5909653,9.278394,-2.8160572,-0.22865999,1.3643379,-0.312502,113.100006,-174.90001,-20.7,,,,,,
610910,0.5215807,9.055286,-2.5762017,-0.49543,0.87653,-0.182928,98.700005,-155.70001,-20.1,,,,,,
610930,0.4815051,9.33761,-2.4194884,-0.617382,0.655492,-0.007622,110.700005,-179.70001,-11.700001,,,,,,
610951,0.38939106,9.342993,-2.263373,-0.67073596,0.40396598,-0.121952,93.9,-167.70001,-19.5,,,,,x,
610971,0.21353704,9.2706175,-2.00019,-0.40396598,-0.251526,-0.083841994,96.3,-158.1,-23.1,,,,,x,
610991,-0.15252645,8.939247,-1.5701253,-0.23628199,-0.891774,0.121952,91.5,-162.90001,-18.300001,,,,,x,
611013,-0.32538977,8.931471,-1.0658908,-0.22865999,-1.6463519,0.602138,96.3,-162.90001,-17.7,,,,,x,
611033,-0.40613908,8.995472,-0.26796806,-0.434454,-2.484772,0.67073596,103.50001,-165.3,-18.900002,,,,,x,
611053,-0.5945541,8.781935,-0.01614986,-0.053354,-2.09605,0.28201398,110.700005,-167.70001,-16.5,,,,,x,
611073,-0.656761,8.340506,-0.20695747,0.480186,-3.2088618,0.16768399,115.50001,-165.3,-15.900001,,,,,x,
611093,-0.5191881,7.659819,-0.0891233,1.006104,-5.190582,0.640248,105.9,-160.5,-15.900001,,,,,x,
611113,0.25301448,8.053397,0.15073203,0.94512796,-7.309498,1.8369019,103.50001,-167.70001,-17.1,,,,,x,
611133,0.09151588,6.705781,0.0807493,-0.365856,-8.635726,0.80030996,98.700005,-170.1,-21.900002,,,,,x,
611156,0.45458865,5.2810044,0.08254373,0.388722,-10.960436,0.594516,108.3,-167.70001,-18.900002,,,,,x,
611176,0.59036714,4.0697646,0.62326497,1.013726,-12.934534,0.625004,103.50001,-165.3,-15.900001,,,,,x,
611196,0.60173184,3.4321444,0.39357808,1.707328,-12.713495,0.586894,89.100006,-172.5,-18.900002,,,,,x,
611256,0.8930275,4.4962406,-1.2949796,2.195136,-12.507702,-0.510674,103.50001,-160.5,-21.300001,,,,,x,
611277,0.9630102,4.7935176,-2.1987736,1.577754,-9.885734,-1.501534,96.3,-170.1,-17.1,,,,,x,
611297,0.9085792,4.325172,-3.3824985,1.6158639,-7.461938,-2.7286758,103.50001,-162.90001,-24.900002,,,,,x,
611317,1.3105313,4.0930924,-4.5117927,2.2332458,-7.6372437,-3.414656,108.3,-155.70001,-24.900002,,,,,x,
611337,1.5150962,4.1271863,-4.611084,2.865872,-8.445176,-3.521364,117.9,-155.70001,-29.1,,,,,x,
611377,0.51141226,4.2749276,-5.360557,2.2637339,-4.9619217,-4.855214,117.9,-155.70001,-20.7,,,,,x,
611437,-1.4678428,4.530335,-6.9001775,2.385686,0.7622,-9.56561,141.90001,-155.70001,-18.300001,,,,,x,
611551,-2.9955,10.291648,-11.057271,3.064044,12.050382,-13.254658,170.70001,-117.3,-17.1,,,,,x,
611593,-3.757534,10.993868,-11.987383,2.987824,12.38575,-11.997027,204.3,-107.700005,-12.900001,,,,,x,
611812,-8.826198,10.72889,-5.3701277,-5.4421077,9.687562,-2.179892,235.50002,-62.100002,-12.3,,,,,x,
611931,-8.2549715,12.626798,-6.869074,-6.3719916,6.70736,4.0472817,216.3,-95.700005,-5.7000003,,,,,x,
611971,-8.548659,9.782628,-3.4112093,-9.786648,-1.8521459,4.0777698,230.70001,-86.100006,-3.3000002,,,,,x,
611992,-7.701689,8.8489275,-3.3908725,-7.713464,0.602138,6.1204658,209.1,-102.9,-2.1000001,,,,,x,
612033,-6.5233474,8.8256,-2.2448306,-7.599134,-4.291186,7.69822,192.3,-95.700005,-4.5,,,,,x,
612055,-5.4532695,7.7609053,-1.5599569,-6.181442,-4.679908,9.748538,192.3,-124.50001,-8.700001,,,,,x,
612079,-5.029784,8.289065,-1.1376679,-6.684494,-4.443626,10.990924,177.90001,-131.70001,-20.7,,,,,x,
612099,-4.639197,7.703483,-1.0216281,-6.067112,-4.626554,8.887252,180.3,-136.5,-17.7,,,,,x,
612119,-3.891518,6.1130214,-0.88884044,-4.969544,-5.8918056,6.8369336,173.1,-143.70001,-12.900001,,,,,x,
612139,-3.2455237,5.4580545,-0.045458864,-3.6966698,-7.8430376,8.26987,173.1,-136.5,-20.1,,,,,x,
612160,-3.028996,5.367735,-0.051440295,-3.2164838,-6.9283977,8.315601,168.3,-153.3,-20.1,,,,,x,
612180,-2.2962708,4.9556146,-0.74408984,-1.9131219,-6.486322,7.69822,149.1,-167.70001,-21.900002,,,,,x,
612243,0.48928094,5.169152,-0.8062967,-0.160062,-7.5457797,7.294254,137.1,-150.90001,-17.7,,,,,x,
612269,0.5215807,4.5835695,-0.6794904,-0.060976,-7.568646,5.4878397,127.50001,-162.90001,-18.900002,,,,,x,
612289,1.1609955,4.6045046,-0.736314,0.434454,-7.5305357,5.480218,120.3,-162.90001,-26.7,,,,,x,
612332,2.2310734,5.426353,-1.1915008,1.18141,-4.733262,3.894842,125.100006,-170.1,-25.500002,,,,,x,
612352,2.460162,5.9634852,-0.94745845,1.150922,-5.152472,3.7881339,115.50001,-160.5,-26.1,,,,,x,
612392,2.8639085,6.462935,-1.6544634,-0.92226195,-0.70122397,0.739334,105.9,-170.1,-21.300001,,,,,x,
612416,2.656353,6.2314534,-2.2107365,1.06708,-0.92988396,-0.3811,96.3,-172.5,-22.5,,,,,x,
612436,2.8519456,6.773969,-1.7232499,0.617382,-2.423796,0.769822,108.3,-167.70001,-25.500002,,,,,x,
612459,3.0595014,7.647856,-2.32558,0.830798,-0.068598,1.211898,108.3,-155.70001,-24.900002,,,,,x,
612479,2.7771778,7.9176183,-3.0762494,1.29574,1.006104,0.82317597,103.50001,-179.70001,-26.1,,,,,,
612499,3.0026777,8.564211,-3.6510646,1.471046,0.182928,1.326228,98.700005,-170.1,-14.700001,,,,,,
612520,3.0343792,8.104837,-3.2012613,0.91463995,-0.72409,0.442076,96.3,-170.1,-25.500002,,,,,,
612540,2.2944765,9.27301,-4.3245735,2.339954,2.2484899,1.211898,101.100006,-174.90001,-20.7,,,,,,
612560,2.3231874,9.418958,-4.785144,2.583858,2.141782,0.754578,98.700005,-172.5,-18.900002,,,,,,
612580,2.2149234,8.76399,-4.539905,2.164648,-0.602138,-0.20579399,84.3,-167.70001,-21.300001,,,,,,
612600,2.3112245,8.880031,-3.9124532,1.8978779,0.007622,-0.015244,103.50001,-155.70001,-22.5,,,,,,
612624,1.8004104,9.095961,-4.7929196,1.455802,2.179892,-1.036592,101.100006,-165.3,-23.1,,,,,,
612645,1.6484821,9.348974,-4.279713,0.87653,0.99086,-1.3719599,96.3,-167.70001,-25.500002,,,,,,
612665,1.2016692,9.10254,-3.7336085,-0.11432999,1.707328,-1.768304,108.3,-165.3,-15.900001,,,,,,
612685,0.6920514,8.913527,-3.8083763,-0.525918,2.01983,-1.768304,103.50001,-162.90001,-25.500002,,,,,,
612707,0.27215505,8.586343,-3.4746125,-0.69360197,1.211898,-1.3490939,105.9,-170.1,-20.7,,,,,,
612727,0.23865904,8.4714985,-3.167167,-0.57164997,0.67835796,-0.716468,98.700005,-167.70001,-14.1,,,,,,
612747,0.6406111,8.694606,-2.789739,-0.41921,0.213416,-0.160062,108.3,-165.3,-24.900002,,,,,,
612767,1.1107515,9.637877,-2.7526538,-0.55640596,0.7622,-0.03811,96.3,-172.5,-22.5,,,,,,
612787,1.2184173,9.715038,-2.677886,-1.318606,1.196654,-0.769822,110.700005,-167.70001,-17.7,,,,,,
612810,1.0880221,8.799281,-2.689849,-1.21952,1.966476,-1.196654,105.9,-158.1,-13.500001,,,,,,
612830,0.97138417,8.866872,-2.6210625,-0.716468,2.2561119,-0.92988396,108.3,-162.90001,-22.5,,,,,,
612850,0.8248392,8.703578,-2.656353,-0.34298998,2.484772,-0.80030996,125.100006,-172.5,-17.1,,,,,,
612870,0.35529694,8.875245,-2.5779963,-0.07622,2.187514,-0.785066,103.50001,-167.70001,-18.300001,,,,,,
612890,0.21772404,9.338208,-2.7341115,0.11432999,1.6006199,-1.097568,105.9,-160.5,-24.300001,,,,,,
612910,0.03588858,9.257459,-2.6228569,-0.106708,0.998482,-1.585376,103.50001,-167.70001,-29.7,,,,,,
612930,0.07058087,8.595314,-2.7729907,-0.602138,0.731712,-2.111294,98.700005,-162.90001,-15.900001,,,,,,
612950,0.4521961,8.375197,-2.8088794,0.510674,-0.060976,-0.868908,110.700005,-165.3,-20.1,,,,,,
612970,0.64898515,8.897975,-2.1389592,0.72409,-0.23628199,-0.144818,113.100006,-153.3,-19.5,,,,,,
612990,0.614891,8.970948,-2.1371648,0.72409,1.051836,-0.289636,117.9,-158.1,-18.900002,,,,,,
613013,0.34572664,9.306506,-2.5163875,0.739334,1.5244,-0.541162,105.9,-165.3,-17.7,,,,,,
613053,0.2769402,9.703673,-2.7245412,0.091464,0.3811,-0.785066,125.100006,-160.5,-17.7,,,,,,
613073,0.41271865,9.596007,-2.5337336,-0.525918,0.137196,-1.036592,110.700005,-165.3,-23.1,,,,,,
613093,0.31641763,8.839955,-2.5612483,-0.80030996,0.060976,-1.33385,103.50001,-162.90001,-23.7,,,,,,
613113,0.42707407,8.846535,-2.2526064,-0.33536798,-0.007622,-0.960372,132.3,-158.1,-21.900002,,,,,x,
613137,0.18123733,8.961976,-2.439227,-0.274392,0.45731997,-0.81555396,122.700005,-165.3,-16.5,,,,,x,
613178,-0.037683006,9.491931,-1.5749104,0.28201398,-1.3567159,-0.967994,115.50001,-172.5,-23.7,,,,,x,
613238,-0.25181818,7.839262,1.447506,-1.425314,-4.23021,-1.8673899,110.700005,-172.5,-17.1,,,,,x,
613289,-1.2973721,5.242125,2.392572,0.640248,-4.138746,-0.26677,129.90001,-155.70001,-18.300001,,,,,x,
613311,-1.3685511,4.819836,2.1652775,2.446662,-6.204308,0.46494198,120.3,-158.1,-21.300001,,,,,x,
613351,-1.5156943,4.0153337,1.2561003,4.03966,-10.632689,0.60976,113.100006,-158.1,-27.300001,,,,,x,
613373,-1.3631679,3.6708033,0.77758586,4.169234,-12.103736,0.47256398,117.9,-165.3,-26.1,,,,,x,
613393,-1.6556598,3.9674823,-0.2254999,4.131124,-12.446726,0.28201398,122.700005,-153.3,-15.3,,,,,x,
613435,-0.17705032,6.924701,-2.2950745,0.93750596,-11.730258,-2.393308,120.3,-158.1,-21.900002,,,,,x,
613475,0.049047723,1.7507645,-7.497722,7.2409,-5.9985137,-2.050318,117.9,-148.5,-21.300001,,,,,x,
613496,0.9043922,4.4561653,-4.488465,3.483254,-14.497044,0.28201398,137.1,-146.1,-14.1,,,,,x,
613536,2.5235653,7.0682554,-8.206522,4.245454,-5.320156,-3.92533,134.70001,-162.90001,-21.300001,,,,,x,
613559,1.6215656,5.1213,-7.790812,2.339954,-6.5854077,-6.8826656,127.50001,-146.1,-18.900002,,,,,x,
613580,0.635826,4.344312,-7.7543254,2.6829438,-4.5884438,-7.6372437,151.5,-143.70001,-13.500001,,,,,x,
613600,1.6161823,7.0419374,-8.837563,3.384168,-1.8978779,-5.708878,158.70001,-143.70001,-20.1,,,,,x,
613620,1.8907299,8.953004,-9.122278,2.027452,-1.166166,-7.263766,173.1,-138.90001,-20.1,,,,,x,
613640,1.8069899,10.106224,-9.500903,1.806414,1.150922,-9.75616,161.1,-148.5,-17.1,,,,,x,
613660,0.105273165,8.54208,-9.528418,1.3872039,5.571682,-14.664727,180.3,-119.700005,-21.300001,,,,,x,
613684,-1.9696848,7.4905443,-10.751021,3.018312,12.2104435,-15.388818,187.5,-131.70001,-23.7,,,,,x,
613704,-2.7837574,9.247291,-12.687809,4.359784,15.747051,-12.294286,185.1,-112.50001,-9.900001,,,,,x,
613724,-2.707195,11.211592,-13.73755,1.3414719,12.965022,-12.118979,192.3,-112.50001,-15.3,,,,,x,
613744,-4.0506244,10.008726,-13.193239,-1.48629,8.80341,-14.733326,197.1,-86.100006,-8.700001,,,,,x,
613764,-7.107733,8.27471,-12.730277,-1.173788,10.86135,-14.093078,225.90001,-93.3,-8.700001,,,,,x,
613784,-6.230257,10.920297,-13.348159,-3.407034,12.675385,-10.59458,225.90001,-86.100006,-6.9,,,,,x,
613826,-7.422356,11.066243,-13.821888,-4.207344,9.352194,-9.771403,233.1,-71.700005,-6.3,,,,,x,
613908,-10.172618,10.2749,-9.990184,-10.533604,6.8521776,-5.884184,230.70001,-54.9,-6.3,,,,,x,
613953,-9.688122,9.876536,-5.672788,-9.542744,4.565578,0.106708,249.90001,-74.100006,-6.9,,,,,x,
613995,-10.859285,10.453745,-4.801294,-6.6311398,9.397925,1.920744,240.3,-76.5,0.90000004,,,,,x,
614035,-7.527031,13.434889,-3.7132716,-10.945191,-3.3079479,5.75461,237.90001,-86.100006,-0.90000004,,,,,x,
614074,-8.569594,11.316267,0.41870007,-8.643348,2.2180018,7.3628516,245.1,-74.100006,-12.3,,,,,x,
614094,-7.2022395,11.565693,0.5867783,-9.94671,1.082324,8.19365,228.3,-90.9,-12.3,,,,,x,
614134,-7.1950617,8.985902,2.1299872,-7.187546,1.417692,6.9131536,197.1,-107.700005,-12.3,,,,,x,
614154,-6.187789,10.041624,-0.058618013,-4.34454,1.783548,7.73633,216.3,-117.3,-15.3,,,,,x,
614174,-4.773181,9.668383,1.4128137,-4.61131,-5.586926,7.0655937,204.3,-114.9,-17.7,,,,,x,
614194,-5.1990585,7.389458,3.2024574,-3.879598,-4.664664,6.318638,194.70001,-117.3,-11.1,,,,,x,
614214,-5.091991,8.230447,0.92891604,-1.775926,-0.213416,8.61286,177.90001,-129.3,-19.5,,,,,x,
614234,-4.322181,8.92848,-0.112450875,0.11432999,-3.498498,8.490908,173.1,-129.3,-17.7,,,,,x,
614254,-3.401041,7.727409,0.49645868,-0.053354,-6.920776,7.3933396,182.70001,-148.5,-17.7,,,,,x,
614274,-2.4027402,6.4055133,0.51320666,-0.259148,-6.638762,6.654006,173.1,-143.70001,-18.300001,,,,,x,
614297,-1.4995444,6.008346,-0.25181818,0.22865999,-5.86894,7.233278,158.70001,-148.5,-13.500001,,,,,x,
614317,-1.4839927,5.075243,-0.23447205,0.746956,-5.777476,5.7165,161.1,-150.90001,-26.1,,,,,x,
614337,-1.367953,4.71875,-0.5891708,1.3643379,-5.304912,5.251558,151.5,-146.1,-21.900002,,,,,x,
614357,-0.99471176,4.6703005,-1.2112396,1.577754,-5.701256,5.5183277,151.5,-148.5,-22.5,,,,,x,
614377,-1.0473484,4.506409,-1.2100432,1.6463519,-6.638762,4.38265,137.1,-148.5,-24.300001,,,,,x,
614397,-0.6101058,3.6923366,-1.6448932,3.2545938,-6.189064,3.0488,158.70001,-146.1,-27.300001,,,,,x,
614417,0.6310408,4.355677,-2.0612006,3.971062,-8.033587,4.702774,139.5,-160.5,-18.900002,,,,,x,
614461,1.87458,4.7552366,-3.2790198,4.832348,-1.8292799,3.7500238,129.90001,-162.90001,-18.300001,,,,,x,
614509,2.9769576,5.6799655,-6.2356405,7.705842,1.3567159,4.38265,132.3,-162.90001,-15.900001,,,,,x,
614553,2.8232348,7.939152,-5.0555043,2.660078,-3.955818,1.730194,113.100006,-148.5,-18.900002,,,,,,
614595,2.4212828,7.6753707,-4.742676,-0.35061198,-0.442076,-0.46494198,134.70001,-150.90001,-17.7,,,,,,
614615,2.091706,7.32127,-5.0196157,-0.121952,-0.365856,-0.23628199,115.50001,-158.1,-12.900001,,,,,,
614638,2.0438545,7.7794476,-4.547681,-0.327746,-0.7622,0.45731997,129.90001,-160.5,-20.7,,,,,,
614678,1.8733838,8.296243,-3.3950596,-1.074702,1.768304,-0.579272,120.3,-153.3,-14.1,,,,,,
614698,1.6090046,8.390151,-3.4662385,-1.074702,3.033556,-0.716468,120.3,-167.70001,-18.900002,,,,,,
614719,1.1615937,8.542678,-3.9268086,-0.82317597,4.131124,-1.493912,115.50001,-162.90001,-12.3,,,,,,
614739,0.20396675,8.048612,-3.703103,-0.55640596,3.475632,-1.775926,127.50001,-165.3,-20.7,,,,,,
614759,0.0640013,9.050501,-4.1092424,0.57164997,3.368924,-1.265252,120.3,-155.70001,-21.300001,,,,,,
614779,-0.085534446,9.243702,-3.747964,-0.11432999,0.93750596,-1.6082419,122.700005,-158.1,-24.300001,,,,,,
614799,-0.14056359,9.085792,-3.283805,-0.769822,1.173788,-1.3948259,120.3,-158.1,-21.900002,,,,,,
614819,-0.27335134,8.756215,-3.7090845,-1.044214,2.2789779,-1.417692,125.100006,-158.1,-20.1,,,,,,
614840,-0.23447205,8.234036,-3.6672146,-1.036592,0.967994,-0.64787,132.3,-150.90001,-12.3,,,,,,
614880,0.21652776,8.893787,-3.0720623,-1.036592,0.243904,0.93750596,132.3,-160.5,-16.5,,,,,,
614932,-0.15671346,8.744252,-3.1940835,-0.769822,0.830798,0.28201398,108.3,-153.3,-15.900001,,,,,,
614992,0.1016843,9.157569,-2.853142,-1.097568,0.160062,-0.69360197,120.3,-158.1,-19.5,,,,,,
615029,-0.38759664,9.315478,-3.2658606,-1.021348,1.8750119,-0.586894,127.50001,-160.5,-11.700001,,,,,,
615049,-0.45399052,9.014014,-3.3250768,-0.56402797,1.036592,-0.47256398,117.9,-153.3,-13.500001,,,,,,
615092,-0.049645867,8.861488,-2.8106737,-0.396344,0.70122397,0.56402797,113.100006,-141.3,-18.300001,,,,,,
615112,-0.013159146,9.055884,-2.8351977,-0.525918,0.853664,0.731712,115.50001,-162.90001,-16.5,,,,,,
