time,sensor_accX,sensor_accY,sensor_accZ,sensor_gyroX,sensor_gyroY,sensor_gyroZ,sensor_magX,sensor_magY,sensor_magZ,label_Boxing_slip_left,label_Boxing_slip_right,label_Boxing_pullback,label_Boxing_roll_left,label_Boxing_roll_right,label_Boxing_recording_cut
126572,2.1383612,9.2592535,-1.3625697,0.655492,1.234764,1.013726,50.7,-172.5,-31.500002,,,,,,
126592,2.0946968,9.461426,-1.4702355,0.28201398,0.72409,0.20579399,36.300003,-174.90001,-29.7,,,,,,
126615,2.217316,10.045213,-1.8087844,-1.02897,0.67073596,-1.33385,41.100002,-182.1,-36.300003,,,,,,
126635,2.1539128,9.48894,-1.3924768,-1.082324,0.754578,-1.71495,65.100006,-167.70001,-29.7,,,,,,
126658,1.9924142,9.266431,-1.4164026,-0.602138,-0.259148,-2.2713559,50.7,-167.70001,-32.100002,,,,,,
126678,2.1616888,9.156971,-1.0036839,-0.518296,-0.548784,-2.7058098,67.5,-162.90001,-35.7,,,,,,
126701,2.18382,9.494324,-0.9085792,-0.586894,0.983238,-2.599102,50.7,-160.5,-31.500002,,,,,,
126721,2.020527,9.371106,-1.113144,-0.586894,1.9131219,-2.423796,62.7,-162.90001,-29.1,,,,,,
126743,1.7507645,9.336413,-1.4481041,-2.423796,2.126538,-3.071666,62.7,-172.5,-33.300003,,,,,,
126805,0.020935005,8.668288,-2.1832218,7.85066,0.82317597,-3.6966698,65.100006,-167.70001,-26.7,,,,,,
126846,1.2399504,9.502099,-0.9839452,0.67835796,0.56402797,-1.189032,69.9,-174.90001,-37.5,,,,,,
126866,1.2854092,9.654028,-1.238156,0.640248,0.541162,-1.1204339,67.5,-186.90001,-33.9,,,,,,
126886,1.1885101,9.516455,-1.1669769,0.068598,0.60976,-1.250008,89.100006,-172.5,-29.7,,,,,,
126926,1.0700778,9.469201,-1.1675751,-0.091464,0.182928,-1.3490939,72.3,-167.70001,-35.100002,,,,,,
126946,1.1932952,9.47937,-1.0640963,0.007622,0.053354,-1.3643379,84.3,-172.5,-27.900002,,,,,,
126966,1.1532197,9.363928,-1.0491427,-0.106708,0.129574,-1.478668,74.700005,-177.3,-32.100002,,,,,,
126986,1.0587131,9.322059,-1.1101533,0.129574,0.160062,-1.509156,81.9,-172.5,-30.900002,,,,,,
127006,0.97796375,9.320264,-1.2100432,0.442076,0.022866,-1.516778,81.9,-162.90001,-33.9,,,,,,
127029,1.0174412,9.242505,-1.2238005,0.69360197,-0.17530599,-1.417692,79.5,-182.1,-31.500002,,,,,,
127049,0.95702875,9.258655,-1.2824185,0.960372,-0.26677,-1.150922,77.100006,-174.90001,-30.300001,,,,,,
127110,1.0940034,9.491931,-1.3003628,1.06708,-0.67835796,-0.015244,81.9,-174.90001,-36.300003,,,,,,
127130,0.9725805,9.633093,-1.430758,0.541162,-0.388722,0.60976,84.3,-167.70001,-26.7,,,,,,
127150,0.90140146,9.566699,-1.5091147,0.091464,-0.442076,0.91463995,96.3,-160.5,-30.300001,,,,,,
127170,0.9181495,9.463819,-1.5779011,-0.060976,-0.49543,1.059458,72.3,-165.3,-26.7,,,,,,
127190,1.0359837,9.392041,-1.6550616,0.053354,-0.70122397,1.021348,84.3,-170.1,-26.1,,,,,,
127230,1.2447355,9.188074,-1.673604,0.33536798,-1.051836,0.81555396,81.9,-172.5,-29.1,,,,,,
127251,1.3781214,9.140223,-1.7687088,0.663114,-1.227142,0.777444,81.9,-165.3,-29.1,,,,,,
127271,1.6155841,9.095362,-1.7794753,0.907018,-1.5929979,0.960372,74.700005,-167.70001,-21.300001,,,,,,
127293,1.6676226,9.072633,-1.8195509,0.92226195,-1.478668,1.013726,77.100006,-179.70001,-34.5,,,,,,
127314,1.7872512,9.125867,-1.8751782,1.021348,-1.6387299,1.158544,84.3,-162.90001,-26.1,,,,,,
127335,1.8380934,9.296936,-1.9272166,0.92988396,-1.6387299,1.189032,65.100006,-160.5,-32.7,,,,,,
127355,1.6837724,9.0002575,-1.8482618,0.785066,-1.661596,1.1204339,81.9,-167.70001,-24.900002,,,,,,
127375,1.9379833,9.182691,-1.606612,1.1432999,-1.8521459,1.6158639,74.700005,-170.1,-27.900002,,,,,,
127399,1.9852365,9.668383,-1.1867156,0.373478,-1.547266,1.814036,79.5,-174.90001,-25.500002,,,,,,
127419,1.5802938,9.2054205,-1.3500087,-0.396344,-0.868908,1.661596,79.5,-172.5,-27.900002,,,,,,
127439,1.2453337,9.298133,-1.2154266,-0.068598,-0.907018,1.9131219,81.9,-182.1,-36.300003,,,,,,
127459,0.9486548,8.825002,-0.8350076,-0.46494198,-0.983238,1.730194,74.700005,-165.3,-27.300001,,,,,,
127543,0.14654502,9.814928,-1.0515354,-0.221038,0.07622,-0.754578,72.3,-174.90001,-29.1,,,,,,
127583,0.8045023,9.604382,-0.5592637,1.189032,-0.68597996,-0.72409,65.100006,-177.3,-30.900002,,,,,,
127603,0.9354956,9.531408,-0.59515226,1.150922,-0.121952,-0.22865999,72.3,-184.5,-28.500002,,,,,,
127643,1.0144504,9.534399,-0.8206521,1.547266,0.426832,0.68597996,57.9,-167.70001,-29.1,,,,,,
127663,1.067087,9.206616,-0.8547463,1.318606,0.625004,0.541162,53.100002,-177.3,-27.900002,,,,,,
127683,1.5808918,9.412377,-1.1412568,1.554888,0.67073596,0.792688,62.7,-174.90001,-30.300001,,,,,,
127703,1.6969316,9.465014,-1.0957979,1.1356779,0.68597996,0.26677,53.100002,-184.5,-32.100002,,,,,,
127723,2.2203066,9.997361,-1.5127035,1.3719599,0.81555396,0.053354,81.9,-182.1,-20.7,,,,,,
127743,2.472723,9.914818,-1.4283655,0.80793196,0.655492,-0.708846,55.500004,-174.90001,-28.500002,,,,,,
127763,2.459564,9.353162,-1.4313561,0.46494198,0.99086,-1.1051899,60.300003,-172.5,-21.900002,,,,,,
127785,2.3895812,8.756215,-1.5677327,0.64787,1.150922,-1.417692,65.100006,-179.70001,-29.1,,,,,,
127805,2.196979,7.9720497,-1.5156943,0.47256398,1.06708,-1.75306,62.7,-179.70001,-23.1,,,,,,
127825,1.823738,6.925299,-1.5994343,0.518296,1.234764,-1.974098,62.7,-182.1,-25.500002,,,,,,
127845,1.999592,7.4145803,-2.1987736,1.1356779,1.707328,-0.297258,53.100002,-165.3,-29.7,,,,,,
127868,2.707195,9.771263,-2.994902,1.29574,2.378064,1.089946,62.7,-162.90001,-24.300001,,,,,,
127888,2.5337336,9.373499,-3.626541,0.396344,2.7896519,-1.1051899,55.500004,-170.1,-21.300001,,,,,,
127911,2.2932801,8.163455,-4.2204967,2.17227,1.6082419,-1.1051899,60.300003,-172.5,-21.900002,,,,,,
127931,2.3190002,9.198841,-4.2575817,1.94361,0.083841994,-0.20579399,67.5,-174.90001,-25.500002,,,,,,
127954,2.3495057,9.133045,-4.2372446,2.2027578,0.022866,-0.94512796,69.9,-172.5,-17.7,,,,,,
127974,2.7562428,10.072727,-4.534522,2.7439198,-0.259148,-0.015244,62.7,-177.3,-21.900002,,,,,,
127994,3.1605875,10.883809,-4.5129886,1.3719599,-1.265252,0.091464,67.5,-177.3,-20.7,,,,,,
128014,2.7042043,9.610363,-4.0308857,0.57164997,-1.669218,-1.6234859,69.9,-174.90001,-16.5,,,,,,
128037,2.522967,8.643166,-3.5206695,0.0,-2.035074,-1.3490939,67.5,-177.3,-27.900002,,,,,,
128057,2.4781063,8.423648,-2.8722825,-1.006104,-1.478668,-0.594516,77.100006,-170.1,-19.5,,,,,,
128077,2.2412417,7.8739543,-2.6844656,-1.699706,-0.594516,-0.91463995,77.100006,-179.70001,-18.300001,,,,,,
128097,2.058808,7.207623,-2.4356382,-1.6387299,-0.46494198,-0.861286,65.100006,-172.5,-28.500002,,,,,,
128117,2.2502139,7.4456835,-2.2573917,-1.303362,-0.22865999,-0.099086,67.5,-167.70001,-23.7,,,,,,
128141,2.3339539,7.589238,-2.497845,-0.853664,-0.23628199,-0.144818,65.100006,-165.3,-26.7,,,,,,
128161,2.60252,7.948722,-2.5092099,-0.23628199,-0.548784,0.083841994,77.100006,-167.70001,-21.300001,,,,,,
128181,2.7849536,8.150296,-2.643792,-0.23628199,-0.625004,0.030488,69.9,-155.70001,-23.1,,,,,,
128201,2.9237227,8.286075,-2.8256273,-0.16768399,-0.67073596,0.289636,67.5,-177.3,-23.1,,,,,,
128221,2.9859297,8.698195,-3.2150185,0.221038,-0.68597996,0.663114,65.100006,-179.70001,-27.300001,,,,,,
128241,3.0816326,8.950013,-3.2455237,0.23628199,-1.5929979,0.853664,60.300003,-172.5,-20.1,,,,,,
128261,3.183317,9.529016,-3.0983806,0.297258,-1.577754,1.1280559,72.3,-174.90001,-21.900002,,,,,,
128282,4.21631,12.084283,-4.120009,0.47256398,-0.81555396,3.109776,60.300003,-167.70001,-26.1,,,,,,
128302,2.9129562,9.554736,-2.3997495,-2.2637339,-4.291186,-3.3003259,48.300003,-174.90001,-27.900002,,,,,,
128324,1.3374476,6.3540726,-1.7429886,-0.541162,-3.025934,-4.352162,67.5,-177.3,-20.7,,,,,,
128344,1.2261931,8.548659,-2.6264458,0.586894,-1.8750119,0.830798,69.9,-184.5,-24.900002,,,,,,
128364,1.1526215,11.169124,-1.4193933,-1.3719599,-3.8262439,0.884152,65.100006,-186.90001,-26.1,,,,,,
128384,0.71896785,11.630292,-1.5240682,-1.272874,-0.853664,-1.920744,74.700005,-177.3,-30.900002,,,,,,
128427,-1.3655604,9.4428835,-1.5994343,-0.243904,-1.6006199,-1.234764,77.100006,-174.90001,-21.900002,,,,,,
128447,-1.7591385,9.758104,-1.7806716,-0.67073596,0.541162,-1.3490939,77.100006,-174.90001,-29.7,,,,,,
128490,-2.2095401,10.526718,-2.4661434,0.83842,-0.03811,-1.417692,91.5,-174.90001,-26.7,,,,,,
128510,-2.305243,10.989681,-2.5385187,0.426832,0.053354,-2.469528,77.100006,-162.90001,-20.7,,,,,,
128530,-2.2286806,10.076915,-2.6886528,0.022866,0.182928,-3.96344,81.9,-165.3,-17.7,,,,,,
128550,-2.3566833,8.765785,-2.6641288,0.060976,0.137196,-3.955818,93.9,-165.3,-19.5,,,,,,
128590,-1.8644116,8.663503,-2.539715,0.121952,-0.55640596,-0.28201398,101.100006,-170.1,-28.500002,,,,,,
128653,-1.0874239,8.174222,-1.9224315,0.022866,-0.69360197,0.22865999,96.3,-172.5,-24.300001,,,,,,
128673,-0.5144029,8.923097,-1.7316239,0.137196,-0.182928,0.099086,96.3,-155.70001,-25.500002,,,,,,
128695,0.30445477,10.067345,-1.7609329,-0.068598,-0.144818,-0.198172,101.100006,-174.90001,-21.900002,,,,,,
128715,-0.043066293,8.8579,-1.5097128,-0.960372,1.33385,-2.2408679,105.9,-170.1,-23.1,,,,,,
128737,0.014953574,8.412283,-2.0486398,-0.144818,1.463424,-2.088428,93.9,-174.90001,-27.300001,,,,,,
128758,0.38041893,8.625221,-2.2304752,0.213416,1.6082419,-1.6082419,96.3,-172.5,-26.1,,,,,,
128779,0.5676377,8.871058,-2.4583676,0.41158798,1.570132,-1.250008,96.3,-177.3,-24.900002,,,,,,
128799,0.6962384,9.127064,-2.8160572,0.49543,2.035074,-1.021348,117.9,-170.1,-24.900002,,,,,,
128819,1.2411467,10.108018,-3.4339387,1.021348,2.8048959,-0.518296,103.50001,-158.1,-21.300001,,,,,,
128880,0.9420752,7.8344765,-3.1689615,0.373478,-0.72409,-5.815586,89.100006,-167.70001,-23.7,,,,,,
128905,1.5115073,8.514565,-3.8137596,0.53354,0.426832,0.23628199,105.9,-165.3,-19.5,,,,,,
128925,1.5551717,9.211402,-3.4249666,-0.28201398,-0.16768399,-0.045732,101.100006,-172.5,-18.300001,,,,,,
128967,1.2991666,7.8930945,-3.2233925,-0.731712,-0.289636,-0.365856,110.700005,-174.90001,-18.300001,,,,,,
128987,1.2022674,8.001957,-3.1396525,-0.129574,0.121952,0.099086,122.700005,-172.5,-23.1,,,,,,
129027,1.3661586,9.110913,-3.0595014,-0.137196,-0.480186,0.41158798,115.50001,-153.3,-23.1,,,,,,
129047,1.6113971,10.29105,-3.3238804,-0.099086,-0.442076,1.21952,101.100006,-162.90001,-25.500002,,,,,,
129067,0.8978126,9.961473,-2.7095876,-1.265252,-1.082324,-0.754578,110.700005,-155.70001,-21.300001,,,,,,
129087,0.23925719,8.831581,-2.46076,-0.975616,0.022866,-1.501534,91.5,-165.3,-18.900002,,,,,,
129107,0.7333233,9.905846,-2.5325372,-0.81555396,0.22865999,0.182928,113.100006,-153.3,-24.300001,,,,,,
129127,-0.061010584,9.555932,-2.196979,-1.6158639,1.013726,-0.121952,105.9,-172.5,-25.500002,,,,,,
129150,-0.37802637,8.981116,-2.6120903,-0.92226195,1.56251,0.20579399,105.9,-158.1,-25.500002,,,,,,
129212,-0.25122005,8.97035,-2.2855043,-0.541162,0.396344,0.785066,101.100006,-174.90001,-20.7,,,,,,
129232,-0.15192832,8.918312,-2.4278624,-0.35061198,0.510674,0.868908,89.100006,-165.3,-23.7,,,,,,
129252,-0.074169725,9.058875,-2.464349,-0.23628199,0.396344,0.891774,101.100006,-167.70001,-20.1,,,,,,
129272,-0.04187001,9.216785,-2.6366143,-0.07622,0.449698,0.41158798,93.9,-155.70001,-15.3,,,,,,
129292,0.16329303,9.198242,-2.6880546,0.16768399,0.297258,0.091464,105.9,-158.1,-20.7,,,,,,
129312,0.18422803,9.19286,-2.7329152,0.106708,0.30488,-0.160062,89.100006,-167.70001,-15.3,,,,,,
129335,0.1447506,8.853114,-2.8770678,0.121952,0.091464,-0.17530599,108.3,-162.90001,-21.900002,,,,,,
129355,0.22490175,9.360937,-2.8316088,0.045732,-0.33536798,0.129574,103.50001,-162.90001,-21.900002,,,,,,
129375,0.28232348,9.174915,-2.948845,-0.41158798,-0.33536798,-0.11432999,98.700005,-165.3,-20.7,,,,,,
129438,0.6382185,9.18927,-2.7406912,-0.594516,-0.053354,-0.091464,108.3,-172.5,-23.1,,,,,,
129458,0.61130214,9.064259,-2.656353,-0.594516,0.144818,-0.289636,98.700005,-165.3,-23.1,,,,,,
129478,0.59275967,9.325647,-2.7353077,-0.434454,0.449698,-0.388722,105.9,-162.90001,-24.300001,,,,,,
129502,0.52457136,9.04751,-2.7466726,-0.57164997,0.34298998,-0.739334,103.50001,-160.5,-20.7,,,,,,
129523,0.57182467,8.766981,-2.7293265,-0.434454,0.33536798,-0.67835796,105.9,-172.5,-23.7,,,,,,
129584,1.0144504,9.178504,-3.3747227,-0.23628199,0.23628199,-0.182928,96.3,-165.3,-25.500002,,,,,,
129680,2.2041569,8.003751,-4.4113045,-1.074702,0.80793196,-3.635694,103.50001,-148.5,-19.5,,,,,,
129704,2.356085,8.141922,-4.4274545,-2.2865999,0.41921,-3.025934,120.3,-170.1,-29.7,,,,,,
129746,2.5935478,7.995377,-4.732507,-2.6829438,1.8445239,-4.5884438,108.3,-160.5,-24.900002,,,,,,
129767,2.5145931,8.083902,-5.0435414,-2.050318,2.118916,-4.11588,113.100006,-165.3,-23.1,,,,,,
129788,2.4942563,9.511071,-5.159581,-3.3155699,1.79117,-3.2088618,117.9,-150.90001,-21.900002,x,,,,,
129808,2.2502139,9.023585,-4.677478,-4.5274677,2.378064,-6.112844,129.90001,-148.5,-20.7,x,,,,,
129828,1.7896438,6.7207346,-4.2749276,-4.237832,2.43904,-8.376577,132.3,-153.3,-23.7,x,,,,,
129848,1.3894861,5.4281473,-3.2215981,-5.289668,2.606724,-7.149436,132.3,-155.70001,-26.7,x,,,,,
129868,0.690257,5.091991,-2.368048,-5.884184,6.128088,-6.562542,137.1,-150.90001,-29.7,x,,,,,
129888,-0.82364285,3.4865754,-1.9595164,-5.121984,8.338468,-8.216516,129.90001,-148.5,-28.500002,x,,,,,
129908,-1.2740445,3.421378,-1.4277673,-3.2850819,8.559505,-5.762232,146.70001,-148.5,-31.500002,x,,,,,
129928,-2.2980652,4.246815,-0.7315289,-3.650938,9.9086,-5.83083,163.5,-138.90001,-24.900002,x,,,,,
129948,-5.1900864,4.9053707,-1.2925869,0.56402797,13.452829,-6.32626,170.70001,-136.5,-27.900002,x,,,,,
129972,-1.1490326,10.631393,-0.8278299,-2.13416,2.385686,-3.056422,177.90001,-153.3,-29.1,x,,,,,
129992,-2.0994818,9.603784,2.56065,-3.6890478,8.437553,-9.268352,182.70001,-136.5,-25.500002,x,,,,,
130012,-4.662524,8.1491,-1.2130339,-1.21952,19.222683,-10.259212,189.90001,-124.50001,-23.1,x,,,,,
130032,-4.957409,10.218077,-2.652166,-0.525918,13.170815,-7.385718,192.3,-124.50001,-28.500002,x,,,,,
130092,-4.9011836,13.1465845,-0.31163248,-1.516778,9.047314,-3.422278,206.70001,-119.700005,-24.300001,x,,,,,
130112,-5.1320667,13.309877,0.37084866,-1.98172,4.679908,-3.6890478,209.1,-122.100006,-18.900002,x,,,,,
130133,-6.777558,12.974319,0.7267437,-0.17530599,4.0015497,-3.35368,199.50002,-122.100006,-18.300001,x,,,,,
130153,-5.8564177,15.422519,-0.16807817,0.480186,1.303362,0.053354,221.1,-129.3,-24.900002,x,,,,,
130174,-3.7922266,16.904118,1.3272792,-1.250008,-2.2027578,-0.144818,218.70001,-122.100006,-18.300001,x,,,,,
130194,-7.397234,13.729176,1.3087368,0.53354,-0.70122397,-2.560992,201.90001,-112.50001,-21.900002,x,,,,,
130215,-8.189176,14.166418,-0.38879293,1.958854,-3.589962,1.204276,213.90001,-117.3,-14.700001,x,,,,,
130235,-5.9126434,14.785496,0.9953099,0.95274997,-8.780544,3.635694,206.70001,-124.50001,-26.1,x,,,,,
130275,-6.9306827,12.357634,0.5000475,1.783548,-6.791202,4.5122237,201.90001,-122.100006,-21.300001,x,,,,,
130296,-5.827109,10.50997,0.2213129,2.454284,-8.064075,4.237832,192.3,-134.1,-27.300001,x,,,,,
130337,-5.230162,8.239419,-1.1909027,4.237832,-7.1113257,7.225656,180.3,-124.50001,-25.500002,x,,,,,
130357,-4.9221187,7.1519957,-1.4193933,4.4512477,-7.08846,6.0747337,185.1,-146.1,-28.500002,x,,,,,
130381,-4.4609504,6.048422,-2.4858823,5.83083,-5.846074,6.333882,185.1,-131.70001,-20.1,x,,,,,
130401,-3.3651524,6.1554894,-3.212626,5.777476,-7.50767,8.53664,175.5,-138.90001,-23.7,x,,,,,
130422,-2.5086117,6.943842,-2.4745176,3.879598,-10.44214,9.588476,165.90001,-148.5,-19.5,x,,,,,
130463,-1.418197,6.270333,-2.96978,2.8048959,-4.5579557,6.13571,146.70001,-143.70001,-24.900002,x,,,,,
130483,-1.025217,5.333641,-3.6833644,3.589962,-4.68753,5.79272,156.3,-155.70001,-25.500002,x,,,,,
130503,-0.1016843,5.6285253,-3.7712915,3.643316,-6.8674216,7.599134,153.90001,-155.70001,-23.1,x,,,,,
130523,0.669322,7.4570484,-3.16298,3.589962,-8.856764,8.948228,127.50001,-155.70001,-24.300001,x,,,,,
130544,0.83799833,8.245999,-2.5217707,2.7362978,-6.0899777,6.8826656,137.1,-141.3,-21.900002,x,,,,,
130564,0.8092874,8.396731,-3.5081086,2.385686,-2.080806,4.672286,132.3,-182.1,-24.900002,x,,,,,
130585,1.2238005,8.640774,-4.3030405,2.118916,-2.7591639,2.7362978,125.100006,-155.70001,-18.300001,x,,,,,
130605,1.3990564,8.81603,-4.141542,1.798792,-3.567096,2.446662,129.90001,-170.1,-15.900001,x,,,,,
130625,1.4116174,9.113306,-3.7874413,0.830798,-3.056422,1.6158639,113.100006,-153.3,-23.1,x,,,,,
130645,0.635826,7.6209397,-4.0727553,0.297258,-1.006104,-1.173788,115.50001,-148.5,-24.300001,x,,,,,
130667,0.5736191,6.6058908,-4.584766,1.1051899,-0.82317597,-0.769822,120.3,-167.70001,-18.900002,x,,,,,
130687,1.1932952,7.83029,-4.3239756,0.083841994,-3.414656,1.158544,98.700005,-170.1,-16.5,x,,,,,
130707,1.1077608,7.9020667,-3.5774932,-0.640248,-2.2789779,0.091464,120.3,-167.70001,-15.3,x,,,,,
130727,1.2794278,7.408599,-4.296461,0.221038,0.015244,-0.388722,115.50001,-172.5,-19.5,x,,,,,
130747,1.4295617,7.6927166,-4.6451783,1.006104,-0.49543,0.525918,115.50001,-158.1,-12.900001,x,,,,,
130767,1.4869834,8.263345,-4.5542607,1.5244,-1.189032,1.425314,110.700005,-165.3,-17.7,x,,,,,
130787,1.4140099,8.781935,-4.334144,1.242386,-0.93750596,1.8978779,117.9,-162.90001,-17.1,x,,,,,
130810,1.4630578,8.923097,-4.3646493,1.021348,0.33536798,1.41007,108.3,-150.90001,-18.900002,x,,,,,
130830,1.2901944,8.874647,-4.4184823,0.983238,0.655492,0.708846,108.3,-162.90001,-11.700001,x,,,,,
130891,1.1143403,8.790309,-4.039858,0.03811,0.015244,-0.548784,117.9,-155.70001,-15.900001,x,,,,,
130912,1.0772555,8.933864,-4.1893935,-0.274392,0.487808,-0.785066,110.700005,-158.1,-21.300001,,,,,,
130932,0.9025977,8.568996,-4.3807993,-0.777444,0.93750596,-1.3872039,105.9,-167.70001,-20.1,,,,,,
130952,1.1155367,8.954799,-4.631421,-0.983238,0.907018,-0.960372,108.3,-160.5,-10.5,,,,,,
130972,1.2232023,8.738271,-4.5201664,-2.2865999,0.998482,-1.516778,113.100006,-165.3,-24.900002,,,,,,
130992,1.0676852,8.301626,-4.7055907,-2.454284,2.416174,-1.814036,122.700005,-155.70001,-18.300001,,,,,,
131015,1.2704557,8.201736,-5.409605,-2.347576,3.50612,-1.509156,110.700005,-167.70001,-27.300001,,,,,,
131035,1.6939409,8.455947,-5.7798557,-2.149404,2.919226,-0.769822,113.100006,-150.90001,-19.5,,,,,,
131055,1.5886678,7.9235997,-5.3396225,-2.843006,2.2103798,-1.25763,127.50001,-170.1,-17.1,,,,,,
131077,1.2943814,7.2100153,-5.397044,-1.8292799,3.1936178,-1.585376,117.9,-158.1,-23.1,,,,,,
131097,1.619173,7.724418,-5.234947,-0.586894,1.6158639,-0.67073596,120.3,-155.70001,-16.5,,,,,,
131117,2.0384712,8.759804,-4.100868,-1.250008,-0.56402797,-0.655492,125.100006,-165.3,-21.300001,x,,,,,
131140,1.9523387,8.496621,-3.0218184,-1.234764,0.91463995,-2.652456,127.50001,-155.70001,-26.1,x,,,,,
131181,1.1807343,7.221978,-3.100773,-3.376546,5.167716,-5.18296,134.70001,-153.3,-21.900002,x,,,,,
131201,0.5413194,6.4946365,-3.109147,-3.8262439,6.425346,-7.0808377,117.9,-153.3,-20.1,x,,,,,
131221,-0.038879294,5.7128634,-3.075053,-3.2622159,6.775958,-8.300358,134.70001,-158.1,-23.1,x,,,,,
131242,0.15133017,5.93298,-2.5283504,-3.407034,7.957368,-8.216516,163.5,-155.70001,-26.1,x,,,,,
131262,-1.112546,5.42097,-2.4278624,-4.093014,10.807996,-10.076283,168.3,-146.1,-23.7,x,,,,,
131282,-2.5750055,4.605701,-2.8040943,-3.094532,12.850692,-11.387268,175.5,-141.3,-27.900002,x,,,,,
131305,-2.7508595,5.1099353,-3.1976724,-1.8673899,12.058003,-9.649452,182.70001,-136.5,-18.300001,x,,,,,
131325,-3.5625396,6.983917,-2.1700628,-3.338436,8.1555395,-7.942124,185.1,-146.1,-24.300001,x,,,,,
131345,-4.4908576,8.509182,-0.9654028,-3.071666,10.190614,-8.26987,189.90001,-136.5,-19.5,x,,,,,
131365,-3.8843405,9.12168,-1.4104211,-3.2241058,13.384232,-9.7028055,187.5,-129.3,-23.1,x,,,,,
131385,-5.8564177,8.50021,-1.5348349,-3.2317278,14.573264,-9.931466,192.3,-131.70001,-21.300001,x,,,,,
131405,-5.569907,11.623713,-2.4296567,-3.39179,13.277524,-4.359784,197.1,-122.100006,-14.1,x,,,,,
131426,-3.9453511,15.152158,-0.86132586,-6.333882,7.6524878,-3.2850819,185.1,-112.50001,-19.5,x,,,,,
131446,-5.4616437,11.984991,0.80689484,-5.175338,8.445176,-8.361334,209.1,-112.50001,-17.7,x,,,,,
131466,-6.8535223,11.944317,-0.41690564,-2.660078,8.772922,-5.274424,211.50002,-126.9,-16.5,x,,,,,
131486,-6.4671216,14.260924,-0.61369467,-2.01983,5.434486,-2.431418,206.70001,-114.9,-17.7,x,,,,,
131506,-6.970758,15.43807,-0.35410064,-1.692084,2.507638,-2.164648,194.70001,-114.9,-15.900001,x,,,,,
131527,-7.51447,14.149671,-0.7393047,-1.1356779,0.0,-2.385686,216.3,-112.50001,-16.5,x,,,,,
131549,-8.012125,13.885889,-0.782371,-0.503052,-3.018312,-0.442076,211.50002,-117.3,-12.3,x,,,,,
131611,-6.9175234,11.368903,0.5580674,0.373478,-8.567128,6.547298,189.90001,-122.100006,-17.7,x,,,,,
131662,-3.5284455,10.992073,0.06340315,1.3872039,-11.905563,11.135742,192.3,-131.70001,-17.1,x,,,,,
131683,-3.3406284,9.876536,-0.21772404,1.303362,-10.083906,9.588476,158.70001,-129.3,-25.500002,x,,,,,
131724,-2.539715,7.2614555,-1.8949169,2.606724,-10.312566,8.186028,173.1,-129.3,-23.7,x,,,,,
131744,-2.007966,6.856513,-1.4792075,2.644834,-11.50922,8.132674,163.5,-141.3,-27.900002,x,,,,,
131764,-1.3189052,6.9731507,-1.8626173,3.407034,-10.541225,7.751574,146.70001,-148.5,-31.500002,x,,,,,
131784,-0.9002052,6.6507516,-1.8644116,4.0167937,-10.564092,6.699738,146.70001,-146.1,-23.7,x,,,,,
131806,-0.50602895,6.1955647,-1.9026928,3.6890478,-9.763782,5.8918056,151.5,-155.70001,-20.1,x,,,,,
131826,-0.2757439,5.9150357,-2.2657657,3.84911,-8.1250515,5.045764,132.3,-162.90001,-20.7,x,,,,,
131846,-0.2865105,5.56273,-2.665923,4.9161897,-7.187546,4.64942,144.3,-155.70001,-21.900002,x,,,,,
131866,0.24822934,6.204537,-2.7430837,4.733262,-7.721086,5.464974,127.50001,-158.1,-26.7,x,,,,,
131888,0.4886828,7.3445973,-2.782561,3.2545938,-4.939056,4.5731997,132.3,-155.70001,-26.1,x,,,,,
131908,0.45757937,7.129864,-3.4411166,3.6814258,-2.987824,2.7058098,117.9,-162.90001,-21.300001,x,,,,,
131931,0.6154891,6.894794,-3.9884174,4.009172,-3.1936178,1.814036,125.100006,-167.70001,-23.1,x,,,,,
131952,0.77220255,7.5252366,-4.0930924,3.2088618,-4.5274677,2.660078,113.100006,-160.5,-23.1,x,,,,,
131972,0.88465345,8.122782,-3.836489,1.8673899,-4.657042,2.2561119,125.100006,-165.3,-26.1,x,,,,,
131992,0.9085792,7.5916305,-3.965688,1.79117,-3.2241058,0.47256398,117.9,-148.5,-15.3,x,,,,,
132012,0.85953146,7.8996744,-4.84436,2.538126,-2.339954,0.663114,110.700005,-160.5,-29.7,x,,,,,
132033,0.91994387,8.885414,-5.188292,1.5244,-3.155508,0.983238,115.50001,-150.90001,-16.5,x,,,,,
132053,1.434945,9.557128,-5.363548,1.585376,-3.559474,0.830798,127.50001,-158.1,-26.1,x,,,,,
132073,1.6281452,10.410679,-5.617161,0.7622,-3.879598,0.87653,105.9,-160.5,-21.900002,x,,,,,
132096,0.5676377,8.954799,-4.9059687,-0.746956,-3.986306,-1.577754,115.50001,-160.5,-15.900001,x,,,,,
132116,0.08433816,7.1519957,-4.8072753,0.40396598,-2.51526,-1.928366,105.9,-162.90001,-19.5,x,,,,,
132136,0.46176636,8.624025,-4.749853,-0.53354,-2.2256238,0.80793196,115.50001,-179.70001,-27.900002,x,,,,,
132156,0.30086592,9.063063,-4.1475234,-1.3872039,-1.189032,-0.35061198,113.100006,-148.5,-21.300001,x,,,,,
132180,0.19379832,8.526528,-4.0739517,-1.318606,0.46494198,-0.92226195,117.9,-160.5,-18.900002,x,,,,,
132200,0.20277047,8.859096,-3.6755886,-1.455802,0.518296,-0.60976,117.9,-167.70001,-23.7,,,,,,
132220,0.35529694,8.984706,-3.3202915,-1.684462,1.006104,-0.640248,110.700005,-150.90001,-21.900002,,,,,,
132242,0.22191104,8.631203,-3.1354654,-1.25763,1.8292799,-0.68597996,117.9,-153.3,-19.5,,,,,,
132262,0.052636582,8.531911,-3.1659708,-0.41921,1.9131219,-0.47256398,117.9,-165.3,-21.300001,,,,,,
132282,0.0849363,8.554641,-3.125297,-0.022866,1.806414,-0.259148,120.3,-167.70001,-21.300001,,,,,,
132302,0.25959405,8.794497,-3.1109416,0.487808,1.585376,-0.030488,110.700005,-153.3,-21.300001,,,,,,
132325,0.26497734,8.553445,-3.0672772,0.297258,1.8445239,-0.23628199,108.3,-167.70001,-27.900002,,,,,,
132345,0.41989636,8.683242,-3.4524813,0.442076,2.195136,-0.23628199,120.3,-172.5,-20.1,,,,,,
132365,0.7010236,8.983509,-3.6887476,0.091464,2.454284,-0.449698,117.9,-165.3,-21.900002,,,,,,
132385,0.80749303,9.1515875,-4.250404,-1.3948259,3.513742,-1.044214,108.3,-155.70001,-15.900001,,,,,,
132405,0.53832865,8.650942,-4.916735,-2.164648,4.4817357,-2.2637339,125.100006,-158.1,-14.700001,,,,,,
132425,0.71179014,8.097659,-5.3378277,-2.7820299,2.2713559,-2.080806,117.9,-167.70001,-23.7,,,,,,
132445,0.74528617,7.8721595,-4.469324,-4.519846,0.144818,-1.33385,115.50001,-160.5,-20.7,,,,,,
132465,1.0018895,7.8835244,-4.944848,-3.993928,1.8673899,-1.013726,127.50001,-160.5,-23.1,,,,,,
132485,0.9073829,7.794401,-5.244518,-3.559474,2.187514,-1.272874,115.50001,-150.90001,-27.300001,,,,,,
132509,1.5150962,8.668288,-5.790024,-2.644834,2.568614,-0.274392,120.3,-158.1,-22.5,,,,,,
132530,2.397357,9.5984,-5.657236,-3.8186219,1.432936,-0.26677,129.90001,-165.3,-26.7,x,,,,,
132550,2.0300972,8.433218,-4.9592032,-4.832348,2.995446,-2.13416,129.90001,-153.3,-26.1,x,,,,,
132570,1.8542432,7.587444,-5.5310283,-4.30643,5.815586,-3.513742,122.700005,-158.1,-28.500002,x,,,,,
132590,1.6012287,7.257867,-5.3988385,-4.4969797,5.647902,-4.428382,146.70001,-143.70001,-23.7,x,,,,,
132611,0.75186574,6.1351523,-4.7504516,-4.847592,5.884184,-7.1113257,134.70001,-160.5,-31.500002,x,,,,,
132631,-0.13159145,5.322276,-4.054811,-4.0625257,5.5640597,-8.529017,139.5,-155.70001,-29.7,x,,,,,
132651,-0.3798208,5.2098255,-3.091203,-5.4878397,5.5640597,-9.29884,144.3,-153.3,-29.1,x,,,,,
132671,-1.4498986,3.7605247,-1.8620191,-6.150954,7.461938,-11.143364,170.70001,-150.90001,-28.500002,x,,,,,
132691,-3.4255648,2.9943037,-1.0940034,-5.137228,9.359816,-9.626586,173.1,-143.70001,-31.500002,x,,,,,
132711,-2.8082812,5.5280375,-1.2489225,-4.984788,10.160126,-4.9771657,180.3,-150.90001,-35.100002,x,,,,,
132731,-2.229877,6.8678775,0.8397927,-6.676872,9.60372,-5.9222937,182.70001,-146.1,-27.300001,x,,,,,
132753,-3.5152862,7.52404,0.82364285,-5.282046,16.554983,-7.721086,201.90001,-136.5,-24.300001,x,,,,,
132774,-6.28409,9.217383,-0.9743749,-4.070148,17.088524,-8.064075,192.3,-124.50001,-21.300001,x,,,,,
132795,-5.4999247,12.044805,-0.019140575,-3.993928,11.196718,-4.9924097,197.1,-134.1,-20.7,x,,,,,
132815,-5.305528,14.153259,1.9044873,-5.510706,10.320188,-5.655524,199.50002,-124.50001,-27.900002,x,,,,,
132837,-6.352278,12.653714,0.7387066,-3.7195358,13.178437,-7.073216,204.3,-126.9,-28.500002,x,,,,,
132857,-6.163863,13.668763,0.8278299,-3.58234,8.521396,-4.291186,209.1,-112.50001,-25.500002,x,,,,,
132917,-6.6549387,15.481136,2.2867005,-2.51526,0.41921,-2.164648,216.3,-117.3,-21.900002,x,,,,,
132937,-7.5210495,13.978601,1.8159621,-1.211898,-1.935988,-1.661596,225.90001,-119.700005,-22.5,x,,,,,
132977,-6.4437943,13.069424,1.8931226,1.6082419,-8.407065,3.498498,216.3,-110.100006,-25.500002,x,,,,,
132997,-6.811054,12.055572,1.5569662,2.355198,-9.60372,5.198204,221.1,-119.700005,-19.5,x,,,,,
133019,-5.619553,11.539374,0.7500713,3.567096,-10.983302,7.301876,204.3,-126.9,-23.7,x,,,,,
133039,-4.299452,11.158956,0.640013,4.161612,-11.554952,8.597616,201.90001,-129.3,-27.900002,x,,,,,
133059,-4.3975472,9.831078,0.18303175,4.245454,-11.036655,8.163162,189.90001,-129.3,-29.7,x,,,,,
133143,-2.1347723,8.065958,-1.1017793,4.0015497,-9.466524,8.140296,168.3,-146.1,-24.300001,x,,,,,
133184,-1.953535,6.6920238,-1.3709437,3.50612,-7.0960817,5.37351,153.90001,-155.70001,-32.100002,x,,,,,
133223,-1.5216757,7.010236,-1.7352128,3.894842,-7.797306,6.791202,132.3,-158.1,-30.900002,x,,,,,
133243,-1.0862277,7.7070723,-1.3272792,2.919226,-7.218034,6.6006517,132.3,-155.70001,-30.300001,x,,,,,
133283,-1.1681732,7.9636755,-2.3788147,3.338436,-3.6890478,4.657042,120.3,-170.1,-26.1,x,,,,,
133307,-0.67709786,8.344094,-2.4661434,3.08691,-4.34454,4.291186,105.9,-160.5,-26.7,x,,,,,
133327,-0.085534446,8.507387,-2.4799008,2.40093,-3.917708,3.7119138,117.9,-165.3,-30.900002,x,,,,,
133347,0.18422803,7.762101,-2.6126885,2.103672,-2.6981878,2.545748,113.100006,-179.70001,-29.7,x,,,,,
133368,0.24942562,7.693315,-2.8609178,2.103672,-2.2713559,2.606724,120.3,-162.90001,-32.7,x,,,,,
133388,0.4372425,7.6149583,-3.091801,1.272874,-2.050318,2.47715,98.700005,-167.70001,-24.300001,x,,,,,
133408,0.67171454,7.186688,-4.028493,3.018312,-1.059458,2.2332458,108.3,-167.70001,-35.7,x,,,,,
133448,1.7059038,8.548061,-3.564932,1.3719599,-2.51526,3.62045,84.3,-174.90001,-23.7,,,,,,
133468,1.8111769,8.230447,-3.673196,0.967994,-0.56402797,2.423796,101.100006,-172.5,-26.1,,,,,,
133488,1.8261305,8.372806,-3.9782488,1.3719599,0.015244,2.2484899,91.5,-167.70001,-31.500002,,,,,,
133508,2.0677803,9.438098,-4.36764,1.539644,0.198172,2.179892,89.100006,-172.5,-26.1,,,,,,
133528,2.1772404,9.459033,-4.388575,1.250008,-0.3811,0.907018,86.700005,-167.70001,-24.300001,,,,,,
133550,1.5593587,8.9141245,-3.7593286,0.625004,-0.426832,-0.106708,91.5,-162.90001,-27.900002,,,,,,
133570,1.3494105,8.431423,-3.7120752,0.35061198,-0.060976,-0.792688,101.100006,-186.90001,-23.7,,,,,,
133610,0.8978126,8.859096,-3.8089745,0.22865999,0.57164997,-0.182928,86.700005,-160.5,-29.7,,,,,,
133640,1.0323948,8.896778,-3.6253445,0.3811,0.068598,-0.221038,86.700005,-172.5,-24.300001,,,,,,
133707,1.0359837,8.993079,-3.1743448,-0.17530599,1.189032,0.53354,79.5,-167.70001,-26.1,,,,,,
133749,0.9660009,8.973939,-3.1940835,-0.091464,1.1280559,0.55640596,81.9,-160.5,-29.1,,,,,,
133769,0.97377676,8.785524,-3.20485,-0.15244,1.044214,0.45731997,86.700005,-170.1,-24.900002,,,,,,
133793,0.9881322,9.058277,-3.200663,0.053354,0.72409,0.53354,91.5,-165.3,-17.1,,,,,,
133814,1.1322846,8.960181,-3.1701577,-0.060976,0.525918,0.312502,81.9,-155.70001,-23.1,,,,,,
133835,1.4128137,9.101942,-3.040959,-0.221038,0.327746,0.20579399,98.700005,-177.3,-21.300001,,,,,,
133896,2.070771,8.805263,-2.9225266,-0.81555396,0.754578,-0.23628199,81.9,-167.70001,-26.1,,,,,,
134002,1.9654979,7.722624,-3.279618,-1.1356779,0.907018,-1.6082419,89.100006,-162.90001,-21.900002,,,,,,
134022,2.3471131,8.813637,-4.0954847,-0.49543,1.33385,-1.021348,89.100006,-167.70001,-26.1,,,,,,
134064,2.301654,9.225159,-5.6279273,-0.83842,3.88722,-2.55337,93.9,-172.5,-26.1,,,,,,
134084,2.3566833,9.180298,-6.029879,-1.3948259,2.97258,-3.2469718,93.9,-162.90001,-26.1,,,,,,
134106,2.1551092,9.057679,-6.255977,-1.730194,3.521364,-4.969544,103.50001,-150.90001,-20.7,x,,,,,
134126,2.5821831,9.584044,-6.3570633,-1.951232,3.1783738,-5.708878,101.100006,-160.5,-23.1,x,,,,,
134146,1.953535,9.146204,-5.5262427,-3.117398,3.7957559,-8.315601,115.50001,-155.70001,-23.7,x,,,,,
134186,0.69504213,6.011337,-4.785742,-3.917708,7.865904,-10.876594,127.50001,-148.5,-20.1,x,,,,,
134206,0.3397452,5.230162,-4.32577,-4.550334,9.329328,-9.94671,137.1,-160.5,-29.1,x,,,,,
134228,-0.9857396,4.254591,-3.5703154,-5.312534,10.929948,-9.977198,141.90001,-160.5,-20.1,x,,,,,
134248,-2.5014338,3.2371497,-2.9608078,-4.832348,12.53819,-9.79427,146.70001,-146.1,-26.7,x,,,,,
134268,-2.5277522,3.7007105,-2.476312,-4.4664917,11.440621,-7.66011,158.70001,-150.90001,-27.300001,x,,,,,
134288,-2.3536925,4.777966,-1.313522,-5.777476,10.655556,-6.8674216,173.1,-155.70001,-21.900002,x,,,,,
134308,-3.8669944,4.923913,-0.58558196,-4.11588,14.71046,-7.9802337,168.3,-136.5,-25.500002,x,,,,,
134331,-4.7438717,5.8013887,-2.0474434,-1.516778,15.876626,-6.9131536,175.5,-134.1,-18.900002,x,,,,,
134351,-2.8094776,8.154483,-1.108359,-2.2561119,7.6372437,-4.146368,192.3,-136.5,-23.1,x,,,,,
134375,-5.371922,8.761,2.761028,-3.971062,13.52905,-8.719568,192.3,-136.5,-21.300001,x,,,,,
134395,-6.192574,9.060072,-2.3363464,-0.442076,20.1983,-7.667732,197.1,-126.9,-17.7,x,,,,,
134417,-4.1690564,12.860074,-2.7095876,-3.12502,5.9985137,-3.6661818,209.1,-138.90001,-19.5,x,,,,,
134437,-5.0004754,13.692689,3.4865754,-6.78358,0.396344,-6.333882,204.3,-112.50001,-18.300001,x,,,,,
134459,-6.0855064,14.383544,0.38400778,-3.833866,11.227205,-5.701256,211.50002,-129.3,-9.3,x,,,,,
134479,-6.041244,14.824973,-0.19439647,-6.753092,4.68753,-5.0686297,206.70001,-124.50001,-14.700001,x,,,,,
134499,-6.94444,13.609547,2.9632003,-5.464974,-0.388722,-5.556438,213.90001,-117.3,-23.1,x,,,,,
134519,-8.005546,15.258029,1.418197,-2.416174,1.089946,-1.768304,213.90001,-117.3,-30.300001,x,,,,,
134539,-7.2937555,17.774416,1.0216281,-3.88722,-3.8186219,1.3719599,213.90001,-122.100006,-19.5,x,,,,,
134559,-9.698888,14.613829,2.4458065,-2.050318,-8.208894,-0.594516,201.90001,-110.100006,-25.500002,x,,,,,
134579,-7.7579145,15.99853,1.7142777,0.396344,-9.771403,5.25918,211.50002,-117.3,-21.300001,x,,,,,
134603,-6.23265,13.452235,2.7688038,0.083841994,-11.455866,7.8735256,213.90001,-131.70001,-27.300001,x,,,,,
134623,-6.5963206,12.604667,2.3273742,1.1356779,-11.097631,8.445176,192.3,-129.3,-27.300001,x,,,,,
134663,-4.224684,10.4686985,1.1693695,3.1936178,-12.012272,7.629622,175.5,-129.3,-27.300001,x,,,,,
134683,-4.4962406,8.48107,0.5640488,3.445144,-11.341536,6.501566,185.1,-138.90001,-30.300001,x,,,,,
134707,-5.1350574,6.3139973,-0.027514577,4.30643,-10.503116,6.158576,177.90001,-150.90001,-28.500002,x,,,,,
134727,-3.941164,6.016122,-0.91755134,5.5793037,-11.669282,8.391822,177.90001,-141.3,-30.900002,x,,,,,
134747,-2.7640188,6.4904494,-0.77758586,4.824726,-13.239413,9.268352,163.5,-158.1,-32.100002,x,,,,,
134768,-2.213129,5.961093,-0.9965062,5.061008,-10.868972,7.713464,156.3,-148.5,-31.500002,x,,,,,
134788,-1.4708335,5.6063943,-1.6335285,5.304912,-10.25159,7.0503497,163.5,-150.90001,-27.900002,x,,,,,
134810,-0.6513777,6.1399374,-1.5749104,4.53509,-10.304944,7.5152917,127.50001,-155.70001,-27.300001,x,,,,,
134830,-0.16628374,6.6549387,-1.5079185,3.3155699,-8.3842,6.21193,120.3,-155.70001,-27.300001,x,,,,,
134850,-0.062206868,6.05859,-2.4565732,3.986306,-3.033556,2.919226,132.3,-155.70001,-30.900002,x,,,,,
134870,0.5664414,5.1990585,-4.7600217,7.644866,-1.48629,3.08691,125.100006,-165.3,-27.900002,x,,,,,
134892,1.6072102,6.8702703,-3.2365515,3.932952,-11.265316,7.766818,105.9,-158.1,-26.7,x,,,,,
134912,1.9774606,8.025284,-1.8470654,3.513742,-6.638762,6.295772,110.700005,-162.90001,-29.1,x,,,,,
134932,1.6197711,7.882328,-3.3789096,3.650938,0.716468,3.2088618,108.3,-167.70001,-27.300001,x,,,,,
134952,1.3099331,7.864982,-4.6756835,4.283564,2.073184,1.8445239,113.100006,-177.3,-32.7,x,,,,,
134974,1.6831744,8.4278345,-5.2995467,4.131124,-0.49543,1.8826339,91.5,-172.5,-23.7,,,,,,
134994,1.9044873,8.775953,-4.4962406,2.393308,-3.0488,1.806414,89.100006,-182.1,-25.500002,,,,,,
135014,2.2400453,9.044519,-4.0763445,1.8750119,-0.94512796,1.059458,108.3,-162.90001,-23.7,,,,,,
135034,1.9266185,9.284973,-4.731311,1.8826339,0.663114,0.015244,96.3,-170.1,-30.900002,,,,,,
135077,1.2889981,7.840458,-4.431043,1.196654,0.144818,-1.280496,96.3,-162.90001,-24.300001,,,,,,
135097,1.2477262,8.219681,-3.9435565,0.716468,-0.20579399,-0.731712,105.9,-172.5,-20.1,,,,,,
135117,1.1603974,8.0934725,-3.7641137,0.70122397,1.074702,-0.81555396,105.9,-174.90001,-30.300001,,,,,,
135137,1.2578946,8.390151,-3.9644916,0.92226195,1.318606,-0.22865999,93.9,-172.5,-18.900002,,,,,,
135197,0.95523435,9.008632,-3.657046,0.69360197,1.227142,0.15244,96.3,-167.70001,-22.5,,,,,,
135217,0.95463616,8.756813,-3.5170808,0.365856,1.478668,-0.11432999,93.9,-160.5,-17.1,,,,,,
135237,1.0174412,8.856703,-3.5505767,0.182928,1.509156,-0.007622,105.9,-162.90001,-20.1,,,,,,
135257,0.9576269,9.223365,-3.523062,0.0,1.21952,0.07622,93.9,-162.90001,-15.3,,,,,,
135278,0.84039086,9.092371,-3.5655303,-0.358234,1.036592,-0.160062,98.700005,-158.1,-24.300001,,,,,,
135339,0.64419997,9.092371,-3.1581948,-0.92226195,0.55640596,-0.785066,91.5,-165.3,-15.3,,,,,,
135401,0.60890955,8.866872,-2.9554243,-0.182928,-0.251526,0.221038,96.3,-170.1,-27.300001,,,,,,
135445,0.90558845,9.056482,-2.920134,-0.16768399,-0.160062,0.358234,103.50001,-172.5,-23.1,,,,,,
135465,0.9277198,8.639577,-3.0313885,-0.16768399,-0.20579399,0.160062,93.9,-172.5,-17.7,,,,,,
135508,1.0772555,8.720326,-2.9943037,0.243904,-1.532022,0.030488,103.50001,-165.3,-26.7,,,,,,
135558,1.9308056,8.435611,-3.4949493,-0.49543,-0.442076,-0.53354,98.700005,-165.3,-27.900002,x,,,,,
135582,2.0115547,8.230447,-4.183412,-0.67073596,1.3414719,-1.3567159,93.9,-162.90001,-20.1,x,,,,,
135624,2.3495057,8.714943,-5.991,-0.3811,3.414656,-2.13416,108.3,-170.1,-16.5,x,,,,,
135644,2.188605,8.125772,-6.057992,-1.310984,3.841488,-3.3155699,93.9,-162.90001,-20.1,x,,,,,
135664,2.2526064,7.64008,-6.4246535,-1.425314,5.304912,-4.11588,113.100006,-162.90001,-28.500002,x,,,,,
135684,2.3423278,7.593425,-6.957599,-1.173788,6.455834,-4.253076,113.100006,-170.1,-17.7,x,,,,,
135707,2.0318916,7.213006,-6.5167675,-2.652456,5.114362,-5.495462,105.9,-153.3,-27.900002,x,,,,,
135727,2.2143252,7.442095,-6.2619586,-2.903982,5.884184,-6.0747337,117.9,-155.70001,-17.1,x,,,,,
135747,1.2967739,6.191378,-5.539402,-3.910086,7.118948,-8.696702,129.90001,-158.1,-18.900002,x,,,,,
135769,0.37802637,4.9801383,-5.0782337,-3.643316,7.5915117,-10.182992,120.3,-158.1,-19.5,x,,,,,
135789,-1.5264609,3.6833644,-4.1977673,-4.0167937,6.638762,-11.631172,151.5,-158.1,-23.7,x,,,,,
135809,-3.0391645,2.9721725,-2.753252,-2.6677,4.603688,-10.823239,146.70001,-148.5,-24.300001,x,,,,,
135829,-4.287489,3.6995144,-1.8458692,-1.920744,3.536608,-10.015307,144.3,-146.1,-20.1,x,,,,,
135852,-2.3243835,5.7212377,-1.87458,-1.6311079,3.384168,-5.655524,163.5,-141.3,-24.900002,x,,,,,
135872,-0.5257677,7.4660206,0.6471907,-4.76375,-0.55640596,-4.984788,187.5,-134.1,-13.500001,x,,,,,
135892,-1.2788297,7.9355626,2.146137,-4.76375,8.247004,-6.44059,180.3,-148.5,-24.900002,x,,,,,
135914,-2.5570612,9.058875,0.19080761,-6.0976,13.635757,-7.1113257,180.3,-143.70001,-22.5,x,,,,,
135934,-3.9519305,8.705373,-0.0071777157,-6.181442,13.704355,-8.872007,175.5,-131.70001,-19.5,x,,,,,
135956,-4.5327272,10.887997,0.19020946,-4.474114,9.725672,-5.5793037,199.50002,-131.70001,-21.300001,x,,,,,
135976,-4.611084,13.282363,0.815867,-5.251558,9.969576,-4.9466777,192.3,-112.50001,-19.5,x,,,,,
135996,-5.6799655,12.123161,0.9588232,-3.025934,9.657074,-7.797306,201.90001,-117.3,-21.900002,x,,,,,
136016,-5.4825783,13.414553,0.6447981,-2.2561119,8.323224,-5.388754,211.50002,-129.3,-17.7,x,,,,,
136078,-7.0844054,16.41125,-0.49586052,-1.02897,0.45731997,-0.121952,211.50002,-114.9,-14.700001,x,,,,,
136102,-6.755427,17.341959,-0.0071777157,-1.935988,-2.926848,1.150922,221.1,-112.50001,-19.5,x,,,,,
136122,-8.516958,14.274682,-0.37383935,-0.80030996,-5.167716,0.434454,192.3,-119.700005,-24.300001,x,,,,,
136165,-5.638096,14.53308,0.640013,1.204276,-9.138778,7.461938,204.3,-126.9,-19.5,x,,,,,
136185,-5.949728,13.285952,-0.31103435,1.730194,-8.475664,8.262248,194.70001,-122.100006,-19.5,x,,,,,
136207,-5.129674,11.5920105,-0.43664438,2.339954,-9.657074,8.475664,185.1,-141.3,-24.900002,x,,,,,
136227,-3.9256122,10.610458,-0.5078234,2.7667859,-9.9086,8.849142,192.3,-141.3,-31.500002,x,,,,,
136249,-3.1809244,9.307105,-0.72794,3.094532,-9.550365,8.04121,180.3,-143.70001,-22.5,x,,,,,
136269,-3.6821682,7.701689,-0.6304427,3.62045,-9.931466,6.6158957,175.5,-146.1,-24.900002,x,,,,,
136289,-3.0026777,6.607087,-0.815867,4.291186,-9.75616,6.5091877,158.70001,-143.70001,-24.900002,x,,,,,
136309,-1.9750681,6.296651,-0.5413194,3.7881339,-10.701288,6.4939437,163.5,-146.1,-24.900002,x,,,,,
136329,-1.4152063,5.8803434,-0.5736191,3.528986,-8.6204815,5.3811316,156.3,-155.70001,-24.300001,x,,,,,
136349,-1.2118376,5.4407086,-1.2208098,3.955818,-7.1113257,3.940574,161.1,-160.5,-27.900002,x,,,,,
136369,-1.0443577,4.9849234,-2.0683784,4.695152,-5.9375377,3.7652678,153.90001,-155.70001,-23.1,x,,,,,
136435,0.31282878,6.135751,-2.5325372,3.3155699,-6.646384,5.693634,125.100006,-153.3,-20.1,x,,,,,
136485,1.234567,7.071246,-3.7730858,3.3079479,-4.9543,4.321674,125.100006,-155.70001,-18.300001,x,,,,,
136523,1.3314662,7.229754,-4.2103286,2.660078,-2.385686,1.692084,117.9,-158.1,-20.1,x,,,,,
136544,1.6526691,7.358953,-4.7462645,2.500016,-1.768304,1.737816,122.700005,-155.70001,-21.300001,x,,,,,
136585,1.229782,8.530715,-4.7971067,1.25763,-0.830798,0.94512796,110.700005,-165.3,-22.5,,,,,,
136606,1.1346772,8.772963,-5.2319565,2.149404,0.327746,0.365856,115.50001,-162.90001,-24.300001,,,,,,
136626,1.183725,8.968555,-5.433531,1.821658,0.015244,-0.007622,103.50001,-160.5,-17.7,,,,,,
136646,1.2220061,9.3890505,-5.1655626,1.493912,-0.480186,-0.297258,127.50001,-160.5,-14.700001,,,,,,
136666,0.5191881,9.293347,-4.9263053,1.1051899,0.07622,-1.539644,110.700005,-165.3,-18.300001,,,,,,
136686,0.029907148,8.423049,-4.949633,0.861286,0.7622,-2.599102,113.100006,-160.5,-19.5,,,,,,
136706,-0.12561002,8.299233,-4.9717646,0.92226195,0.769822,-2.088428,122.700005,-155.70001,-19.5,,,,,,
136726,-0.20217232,8.305813,-4.6912355,0.28201398,0.426832,-1.554888,115.50001,-165.3,-14.1,,,,,,
136746,-0.24164976,8.20712,-4.526148,0.11432999,0.72409,-0.67073596,117.9,-162.90001,-10.5,,,,,,
136766,-0.21413518,8.799879,-4.3909674,0.022866,0.67073596,0.358234,113.100006,-167.70001,-19.5,,,,,,
136787,0.0765623,9.359143,-4.099074,-0.594516,0.55640596,0.541162,115.50001,-162.90001,-15.900001,,,,,,
136807,0.20516303,9.297534,-3.747964,-1.059458,0.861286,0.022866,115.50001,-158.1,-15.3,,,,,,
136827,-0.006579573,8.736476,-3.484781,-1.3414719,1.432936,-0.26677,108.3,-165.3,-24.300001,,,,,,
136847,0.024523862,8.759804,-3.4799957,-1.204276,1.547266,0.16768399,105.9,-153.3,-23.7,,,,,,
136910,-0.014953574,8.863282,-3.2072427,-0.442076,0.19055,0.099086,108.3,-162.90001,-17.1,,,,,,
137002,-0.03469229,8.801076,-3.3890781,-0.41921,1.013726,-0.144818,120.3,-162.90001,-27.300001,,,,,,
137022,-0.05024401,8.7089615,-3.3759189,-0.426832,0.365856,0.144818,108.3,-165.3,-12.900001,,,,,,
137064,0.2296869,8.993079,-3.5846708,-0.099086,-0.259148,0.602138,122.700005,-174.90001,-16.5,,,,,,
137084,0.39716694,9.026576,-3.5876615,-0.41158798,-0.426832,0.19055,105.9,-162.90001,-15.900001,,,,,,
137106,0.98992664,9.596007,-3.706692,-1.044214,-0.160062,0.137196,113.100006,-153.3,-22.5,,,,,,
137126,0.5275621,9.175513,-3.9052753,-2.873494,0.785066,-1.234764,108.3,-160.5,-14.700001,,,,,,
137146,0.1501339,7.979227,-4.263563,-2.7210538,1.3872039,-2.2713559,117.9,-162.90001,-16.5,,,,,,
137166,0.70221984,7.8584023,-4.9370723,-1.94361,0.746956,-1.18141,110.700005,-165.3,-14.700001,,,,,,
137186,1.1310884,8.723915,-4.849145,-2.2561119,-1.29574,-0.060976,115.50001,-160.5,-23.7,x,,,,,
137210,1.4756187,8.85431,-5.1260853,-1.9054999,-0.068598,-0.320124,115.50001,-162.90001,-20.7,x,,,,,
137270,1.5904622,7.5318165,-5.303734,-2.85825,2.7058098,-2.7896519,108.3,-165.3,-12.900001,x,,,,,
137362,1.1903045,6.048422,-4.7588253,-3.8262439,10.907082,-6.730226,127.50001,-160.5,-24.300001,x,,,,,
137382,0.93729,5.7266207,-4.1983657,-4.0625257,11.01379,-7.416206,125.100006,-153.3,-29.1,x,,,,,
137425,-0.7919413,4.337733,-3.242533,-6.196686,13.7881975,-9.847624,139.5,-155.70001,-24.900002,x,,,,,
137445,-2.3411317,3.4506867,-2.5193782,-6.9588857,12.446726,-9.291218,158.70001,-160.5,-31.500002,x,,,,,
137465,-3.380106,3.727627,-1.388888,-6.722604,11.66166,-7.103704,173.1,-148.5,-15.900001,x,,,,,
137485,-2.8022997,6.1154137,-1.1711639,-6.5396757,11.791234,-3.346058,158.70001,-141.3,-26.7,x,,,,,
137509,-1.8626173,8.170034,1.367953,-7.6219997,9.504634,-4.161612,185.1,-138.90001,-26.7,x,,,,,
137529,-3.0822308,7.4899464,2.0073678,-7.3628516,13.109839,-5.9375377,173.1,-143.70001,-21.300001,x,,,,,
137549,-5.3850813,9.27002,1.1735566,-4.794238,12.461969,-4.009172,180.3,-131.70001,-24.300001,x,,,,,
137611,-6.162667,12.891775,1.9601145,-1.18141,4.824726,-6.8826656,185.1,-129.3,-24.900002,x,,,,,
137631,-6.375606,15.948286,1.8877392,0.030488,3.567096,-2.7058098,182.70001,-131.70001,-21.300001,x,,,,,
137651,-6.0095425,16.63974,0.4438221,-0.868908,0.82317597,-1.471046,204.3,-126.9,-23.7,x,,,,,
137671,-6.4037185,15.448238,0.6597517,-0.33536798,-3.132642,-1.8673899,182.70001,-129.3,-27.900002,x,,,,,
137691,-5.334239,16.547028,0.71478087,-0.053354,-5.632658,-0.53354,204.3,-131.70001,-23.1,x,,,,,
137713,-6.029879,15.88907,0.8397927,-0.137196,-7.057972,-0.64787,204.3,-124.50001,-23.7,x,,,,,
137735,-6.0388513,14.894957,0.8726906,0.129574,-9.093046,1.6082419,201.90001,-129.3,-28.500002,x,,,,,
137755,-5.120702,14.804637,1.3410366,0.57164997,-9.832379,4.626554,187.5,-134.1,-30.900002,x,,,,,
137775,-5.7379856,13.36072,1.2812222,1.250008,-10.1982355,5.7165,177.90001,-134.1,-30.900002,x,,,,,
137797,-4.393958,11.404194,0.74408984,2.317088,-12.469592,6.905532,187.5,-134.1,-28.500002,x,,,,,
137817,-4.1379533,9.632494,0.6178817,2.949714,-12.683008,5.731744,177.90001,-150.90001,-25.500002,x,,,,,
137837,-3.9854267,7.958292,-0.16389118,4.161612,-12.38575,5.091496,173.1,-141.3,-29.7,x,,,,,
137899,-2.2771304,6.711164,-1.0587131,4.4664917,-12.622032,5.061008,149.1,-148.5,-33.9,x,,,,,
137921,-1.9038891,6.014926,-1.5222739,4.9161897,-12.050382,4.64942,146.70001,-153.3,-27.300001,x,,,,,
137941,-1.481002,5.619553,-1.4804039,4.237832,-12.263798,4.87808,151.5,-167.70001,-30.900002,x,,,,,
137963,-1.1831268,5.1093373,-1.4229821,4.359784,-11.440621,4.489358,141.90001,-158.1,-34.5,x,,,,,
138025,0.17884475,6.3744097,-2.2095401,4.9619217,-6.051868,4.207344,129.90001,-160.5,-29.7,x,,,,,
138045,0.06639387,6.225472,-2.707195,5.37351,-4.80186,3.2088618,125.100006,-165.3,-26.1,x,,,,,
138087,1.3290737,8.990088,-3.844863,4.375028,-2.835384,2.987824,113.100006,-170.1,-25.500002,x,,,,,
138151,0.55208594,8.436209,-4.8132563,2.195136,1.33385,-0.518296,105.9,-160.5,-25.500002,x,,,,,
138171,0.35110992,8.613258,-4.9131465,2.126538,1.56251,-0.091464,108.3,-172.5,-27.900002,,,,,,
138193,0.5861801,9.230542,-5.169152,2.408552,1.692084,0.47256398,113.100006,-167.70001,-20.1,,,,,,
138213,0.39477435,9.494324,-4.9346795,1.8445239,0.716468,-0.144818,103.50001,-165.3,-20.7,,,,,,
138233,-0.028112719,8.93506,-4.7378902,1.8292799,1.737816,-1.211898,105.9,-167.70001,-24.900002,,,,,,
138253,-0.18482618,8.234036,-4.727722,1.6082419,1.8673899,-1.6158639,103.50001,-160.5,-20.1,,,,,,
138273,-0.044860724,8.125772,-4.468726,1.570132,1.692084,-0.22865999,113.100006,-165.3,-23.1,,,,,,
138293,0.13697474,8.491238,-4.2270765,1.272874,1.8597679,0.487808,98.700005,-167.70001,-21.900002,,,,,,
138315,0.49466425,9.116297,-4.1427383,1.097568,2.065562,0.899396,108.3,-162.90001,-21.300001,,,,,,
138357,0.4438221,9.059473,-3.657046,-0.015244,2.835384,0.022866,110.700005,-177.3,-23.1,,,,,,
138502,0.51141226,9.146204,-3.405826,-0.144818,0.34298998,-0.11432999,110.700005,-170.1,-24.900002,,,,,,
138523,0.47372922,9.080408,-3.2580848,-0.487808,0.358234,0.03811,101.100006,-155.70001,-12.900001,,,,,,
138563,0.10646945,9.040333,-3.322086,-0.739334,0.373478,0.137196,101.100006,-155.70001,-21.300001,,,,,,
138603,0.24344419,8.791506,-2.8387866,-0.640248,-0.632626,0.182928,115.50001,-165.3,-16.5,,,,,,
138802,1.9989938,7.769279,-4.292274,-3.39179,5.9527817,-2.888738,105.9,-170.1,-21.300001,x,,,,,
138822,2.9398727,8.681447,-5.473008,-2.2713559,7.5305357,-3.7271578,105.9,-162.90001,-21.900002,x,,,,,
138865,2.2837098,7.9642735,-5.3312483,-2.2713559,5.929916,-7.134192,113.100006,-148.5,-24.300001,x,,,,,
138905,2.6258476,7.8500285,-5.6165624,-2.7210538,7.6067557,-7.957368,127.50001,-162.90001,-21.300001,x,,,,,
138925,2.368048,7.3242607,-5.3653426,-3.7424018,8.605238,-8.26987,132.3,-153.3,-26.7,x,,,,,
138949,1.6227618,6.3953447,-5.197264,-4.5274677,10.525982,-9.382682,149.1,-150.90001,-27.900002,x,,,,,
138969,1.2878019,5.961691,-5.2062364,-4.53509,10.891838,-9.733294,132.3,-148.5,-19.5,x,,,,,
139029,-1.9571238,2.9464524,-3.4082186,-4.9161897,7.0503497,-8.986338,182.70001,-129.3,-21.300001,x,,,,,
139104,-3.7814598,7.751933,-0.63462967,-0.983238,14.093078,-1.280496,185.1,-141.3,-27.900002,x,,,,,
139144,-4.8425655,13.634071,1.8386915,-2.850628,8.628104,-4.733262,189.90001,-131.70001,-16.5,x,,,,,
139164,-4.546485,11.076411,1.6269488,-4.161612,13.750088,-8.818654,182.70001,-129.3,-23.7,x,,,,,
139184,-6.6579294,9.792797,1.5737141,-2.6981878,11.814099,-6.181442,204.3,-117.3,-20.7,x,,,,,
139224,-6.7045846,14.438573,0.37324122,-1.189032,4.702774,-1.966476,209.1,-117.3,-14.700001,x,,,,,
139248,-5.1422353,15.758077,1.3613734,-0.83842,-0.137196,-1.3872039,194.70001,-117.3,-23.1,x,,,,,
139268,-6.2278647,16.159431,1.2184173,-2.164648,-0.068598,-1.48629,206.70001,-122.100006,-15.3,x,,,,,
139288,-9.22157,14.687401,-0.001196286,-0.708846,-1.554888,-2.2027578,213.90001,-129.3,-23.1,x,,,,,
139331,-5.7433686,15.929744,1.3535975,0.0,-11.333914,4.245454,206.70001,-122.100006,-18.900002,x,,,,,
139396,-5.802585,12.506572,-1.0778537,3.117398,-13.18606,7.50767,189.90001,-141.3,-26.1,x,,,,,
139436,-3.944753,10.458529,-1.5372274,2.385686,-12.477214,7.4085836,185.1,-153.3,-21.900002,x,,,,,
139463,-3.3854892,8.755617,-3.271842,3.62045,-10.510737,6.036624,187.5,-141.3,-27.300001,x,,,,,
139483,-2.64439,8.127566,-3.2700477,3.2622159,-12.644897,5.762232,170.70001,-138.90001,-26.1,x,,,,,
139523,-2.64439,6.104647,-2.2986634,2.568614,-9.824758,2.6905658,170.70001,-131.70001,-27.300001,x,,,,,
139546,-1.6586505,4.258778,-4.1403456,5.343022,-6.78358,3.58234,156.3,-150.90001,-33.300003,x,,,,,
139566,-0.4886828,4.8898187,-3.2204018,4.1921,-12.225688,6.51681,149.1,-155.70001,-34.5,x,,,,,
139586,-0.2266962,6.421065,-1.0084691,3.4299,-11.920808,6.9741297,151.5,-150.90001,-23.1,x,,,,,
139606,-0.711192,6.6740794,-1.2190154,3.643316,-4.054904,4.4969797,144.3,-158.1,-21.300001,x,,,,,
139626,-1.0473484,5.699106,-2.037275,2.568614,-2.500016,2.560992,134.70001,-150.90001,-28.500002,x,,,,,
139649,-1.0264133,5.1494126,-1.7711014,2.964958,-3.132642,2.332332,144.3,-155.70001,-24.900002,x,,,,,
139669,-1.2704557,4.971166,-1.7059038,2.6981878,-1.814036,3.025934,132.3,-155.70001,-24.300001,x,,,,,
139689,-0.6477888,6.211117,-2.6216607,3.384168,-0.11432999,4.207344,125.100006,-170.1,-25.500002,x,,,,,
139711,-0.22430362,7.4869556,-2.9895186,3.7881339,-0.07622,3.8186219,129.90001,-153.3,-22.5,x,,,,,
139731,0.11663788,7.705278,-3.2766273,3.650938,0.579272,2.652456,127.50001,-162.90001,-24.900002,x,,,,,
139753,0.41989636,7.848832,-3.8394797,4.504602,1.570132,2.881116,120.3,-167.70001,-26.1,x,,,,,
139776,0.96121573,7.962479,-4.111037,3.50612,0.46494198,3.7424018,108.3,-162.90001,-17.7,x,,,,,
139796,1.0969942,7.9899936,-4.172047,3.3079479,1.722572,4.0167937,120.3,-150.90001,-18.900002,x,,,,,
139818,1.2650723,8.985902,-5.1858997,3.39179,3.1859958,3.978684,93.9,-158.1,-22.5,x,,,,,
139838,0.97796375,8.765187,-5.6345067,2.6677,1.8292799,1.760682,120.3,-155.70001,-18.300001,,,,,,
139858,0.9618139,8.3423,-5.5292335,2.2942219,-0.80793196,1.501534,103.50001,-165.3,-21.300001,,,,,,
139878,1.0605075,9.018202,-4.907165,0.82317597,-1.8292799,2.065562,108.3,-148.5,-20.7,,,,,,
139898,1.150827,9.710253,-4.6308227,0.121952,-1.288118,1.3719599,105.9,-165.3,-18.900002,,,,,,
139920,1.5695271,10.633187,-4.643982,-0.11432999,-0.55640596,0.769822,105.9,-160.5,-25.500002,,,,,,
139940,1.5515828,11.20561,-4.6116824,-0.975616,-0.82317597,-0.22865999,103.50001,-162.90001,-20.1,,,,,,
139960,0.7058087,9.246094,-3.8795552,-1.814036,-1.21952,-2.7362978,103.50001,-167.70001,-18.900002,,,,,,
139984,0.39477435,7.819523,-3.6582425,-0.182928,-0.22865999,-0.731712,98.700005,-160.5,-9.900001,,,,,,
140004,0.76622117,8.915321,-3.4488924,-0.7622,-0.182928,0.884152,113.100006,-165.3,-20.1,,,,,,
140024,0.53892684,8.497219,-3.4566681,-0.967994,0.510674,0.716468,103.50001,-155.70001,-18.900002,,,,,,
140065,1.0975924,9.067847,-3.1719522,-1.25763,-0.083841994,0.480186,103.50001,-160.5,-20.7,,,,,,
140125,1.2160246,8.549257,-2.9691818,-1.02897,0.70122397,0.846042,93.9,-153.3,-20.7,,,,,,
140145,1.3900843,8.617446,-2.8657029,-0.655492,0.60976,0.716468,103.50001,-162.90001,-16.5,,,,,,
140187,1.3422328,8.765785,-3.1569986,-0.47256398,0.785066,-0.35061198,113.100006,-160.5,-19.5,,,,,,
140229,1.2220061,8.499612,-3.9333882,-0.015244,0.297258,-0.442076,86.700005,-165.3,-22.5,,,,,,
140302,2.2322695,8.318973,-6.145919,-0.792688,2.2180018,0.121952,108.3,-165.3,-23.1,x,,,,,
140342,2.744878,8.713747,-5.718845,-3.6585598,4.5884438,-0.518296,101.100006,-162.90001,-23.1,x,,,,,
140384,2.1748478,8.095865,-5.501121,-4.5884438,5.686012,-2.675322,103.50001,-162.90001,-27.900002,x,,,,,
140422,1.8488599,6.956403,-4.2067394,-5.60217,8.6509695,-5.686012,110.700005,-165.3,-24.900002,x,,,,,
140462,1.1729584,5.7385836,-3.694131,-4.214966,9.7028055,-8.010722,125.100006,-153.3,-21.300001,x,,,,,
140482,1.0162449,5.216405,-2.707195,-4.23021,10.487872,-9.138778,125.100006,-162.90001,-29.7,x,,,,,
140502,0.51559925,5.142833,-2.8375902,-4.085392,13.506184,-10.51836,129.90001,-146.1,-21.900002,x,,,,,
140542,-0.83141875,4.2527966,-2.1144354,-2.888738,12.1799555,-13.391853,161.1,-148.5,-15.3,x,,,,,
140618,-4.2629647,6.927094,-2.2615786,-2.7134318,12.713495,-9.329328,182.70001,-126.9,-17.1,x,,,,,
140661,-5.4323344,12.932449,0.19678904,-3.460388,11.66166,-3.643316,201.90001,-129.3,-22.5,x,,,,,
140681,-4.9137444,14.728074,-1.3183072,-2.317088,11.410133,-3.910086,204.3,-134.1,-20.1,x,,,,,
140723,-6.263155,14.530687,0.48329952,-2.919226,7.58389,-3.864354,194.70001,-122.100006,-18.900002,x,,,,,
140763,-6.526338,14.559997,1.0120579,-2.873494,-0.487808,-3.1936178,213.90001,-114.9,-16.5,x,,,,,
140904,-4.6667113,11.838446,-0.0035888578,2.370442,-14.298872,8.932983,199.50002,-122.100006,-22.5,x,,,,,
140944,-4.2354503,10.087681,-0.66034985,2.05794,-13.864418,6.036624,180.3,-138.90001,-33.300003,x,,,,,
140964,-4.155897,8.545071,-0.74408984,2.637212,-13.7272215,5.4116197,177.90001,-150.90001,-33.300003,x,,,,,
140984,-4.2444224,7.518059,-1.0437595,3.094532,-11.623549,5.5488157,175.5,-141.3,-27.900002,x,,,,,
141024,-2.8710864,7.236932,-1.9062816,3.628072,-12.324774,6.66925,173.1,-146.1,-30.300001,x,,,,,
141044,-2.0241158,6.3630447,-0.97796375,2.2789779,-9.687562,5.480218,144.3,-150.90001,-26.7,x,,,,,
141064,-2.1192205,5.8091645,-1.3858973,2.179892,-7.5457797,4.5427117,144.3,-155.70001,-32.7,x,,,,,
141104,-1.0054784,4.15829,-4.2677503,6.996996,-7.0503497,5.274424,139.5,-150.90001,-27.900002,x,,,,,
141167,0.66752756,6.6669016,-2.6360161,4.123502,-0.81555396,3.064044,117.9,-160.5,-29.7,x,,,,,
141202,1.0646945,7.2148004,-3.8675923,3.871976,-4.283564,4.23021,117.9,-155.70001,-25.500002,x,,,,,
141222,1.3924768,7.9212074,-3.1725502,3.1859958,-3.7347798,3.88722,103.50001,-160.5,-30.900002,x,,,,,
141265,1.3984582,8.229251,-4.40951,3.132642,0.121952,1.806414,108.3,-179.70001,-33.9,x,,,,,
141305,2.1945865,10.206114,-4.794714,3.08691,-0.70122397,1.8445239,101.100006,-158.1,-22.5,x,,,,,
141381,0.72435117,8.418264,-4.0440445,1.02897,1.158544,-0.015244,96.3,-160.5,-18.300001,x,,,,,
141442,1.0515354,8.762197,-3.6373074,0.22865999,1.471046,0.03811,101.100006,-158.1,-22.5,x,,,,,
141502,0.736314,8.963771,-3.179728,-0.434454,1.806414,-0.16768399,105.9,-160.5,-21.300001,,,,,,
141522,0.7763896,8.91891,-3.2275794,-0.45731997,2.050318,-0.129574,98.700005,-165.3,-14.700001,,,,,,
141564,0.40374652,8.741859,-3.410013,-0.19055,1.166166,0.060976,110.700005,-172.5,-18.300001,,,,,,
141584,0.4815051,8.874049,-3.3705356,-0.083841994,0.396344,0.327746,98.700005,-160.5,-24.900002,,,,,,
141606,0.6238631,9.031361,-3.359769,-0.198172,-0.137196,0.327746,105.9,-165.3,-20.1,,,,,,
141626,0.68666816,8.999061,-3.1701577,-0.426832,-0.510674,0.289636,96.3,-189.3,-24.300001,,,,,,
141646,0.7626323,9.12168,-3.176139,-0.518296,-0.518296,0.243904,103.50001,-170.1,-14.700001,,,,,,
141666,0.7542583,9.111512,-3.070866,-0.47256398,-0.777444,0.060976,98.700005,-158.1,-17.1,,,,,,
141689,0.85654074,8.942238,-2.9021897,-0.541162,-0.884152,-0.007622,98.700005,-160.5,-23.7,,,,,,
141709,0.94745845,9.00923,-2.8483567,-0.617382,-0.602138,-0.068598,105.9,-174.90001,-23.1,,,,,,
141731,0.7082013,8.48406,-2.9303024,-0.55640596,-0.373478,-0.579272,101.100006,-160.5,-21.300001,,,,,,
141751,0.9564306,8.562417,-2.9596114,0.0,-0.49543,-0.49543,101.100006,-167.70001,-23.7,,,,,,
141792,1.0934054,9.007435,-3.2239907,-0.396344,-0.030488,-0.586894,96.3,-165.3,-18.300001,,,,,,
141855,1.3787196,8.789711,-3.5248566,-1.044214,1.196654,-1.554888,103.50001,-172.5,-18.300001,,,,,,
141922,1.5288534,8.610867,-4.183412,-2.2332458,4.474114,-3.940574,108.3,-160.5,-24.900002,x,,,,,
141942,1.4050379,7.3200736,-5.0148306,-0.983238,6.51681,-4.80186,113.100006,-172.5,-19.5,x,,,,,
141985,2.2394474,7.9774327,-6.49344,-0.92988396,7.416206,-3.7881339,127.50001,-160.5,-24.900002,x,,,,,
142027,2.1174262,7.2895684,-6.0310755,-1.958854,7.8887696,-8.277492,139.5,-162.90001,-17.1,x,,,,,
142047,0.9157569,5.7343965,-5.819333,-1.71495,9.41317,-9.824758,129.90001,-158.1,-14.1,x,,,,,
142109,-1.3948694,4.3807993,-3.237748,-2.2332458,5.52595,-8.285114,141.90001,-143.70001,-20.7,x,,,,,
142132,-1.146042,6.2356405,-2.1485295,-3.864354,7.3933396,-6.166198,151.5,-138.90001,-14.700001,x,,,,,
142152,-2.0300972,6.4168777,-1.355392,-5.228692,12.096114,-8.1555395,158.70001,-143.70001,-14.1,x,,,,,
142172,-2.3943663,5.8306975,-2.2520082,-5.190582,14.67235,-9.458901,165.90001,-129.3,-14.700001,x,,,,,
142215,-4.504615,6.5036087,-2.0426583,-4.397894,12.949778,-6.3872356,185.1,-134.1,-15.3,x,,,,,
142235,-3.5003326,9.113904,-1.3464198,-4.38265,7.43145,-4.024416,185.1,-141.3,-17.1,x,,,,,
142255,-3.0050702,11.557917,0.59275967,-5.25918,5.769854,-3.971062,182.70001,-134.1,-19.5,x,,,,,
142275,-4.900585,10.23961,0.49047723,-4.870458,11.021412,-7.553402,189.90001,-124.50001,-14.1,x,,,,,
142335,-6.062179,12.337895,0.8673073,-5.289668,2.835384,-6.112844,199.50002,-126.9,-17.7,x,,,,,
142355,-7.1813045,13.421132,-0.91695315,-4.275942,2.644834,-3.879598,209.1,-110.100006,-20.7,x,,,,,
142378,-5.901877,15.534371,-0.96958977,-5.419242,-3.155508,-2.7896519,199.50002,-117.3,-18.900002,x,,,,,
142398,-4.7552366,15.401584,2.1987736,-6.684494,-7.804928,-3.6585598,199.50002,-119.700005,-18.300001,x,,,,,
142420,-7.6873336,14.274084,0.6250594,-2.317088,-4.679908,-0.632626,228.3,-112.50001,-22.5,x,,,,,
142440,-7.525835,14.731664,0.72794,-1.8521459,-7.195168,0.80793196,194.70001,-112.50001,-20.7,x,,,,,
142460,-6.622639,14.592296,1.7286332,-0.91463995,-10.830862,3.2393498,206.70001,-112.50001,-22.5,x,,,,,
142482,-6.8983827,12.605864,1.8937206,1.272874,-12.2104435,5.464974,194.70001,-119.700005,-23.1,x,,,,,
142502,-6.0005703,12.383354,0.10228245,3.8186219,-12.408616,7.911636,194.70001,-124.50001,-27.900002,x,,,,,
142524,-4.5871587,12.672855,0.45757937,3.879598,-15.503148,9.077802,189.90001,-119.700005,-33.300003,x,,,,,
142544,-3.4411166,11.889288,0.31522134,3.490876,-14.641862,8.72719,189.90001,-136.5,-27.900002,x,,,,,
142564,-4.7540402,9.741955,0.22071476,3.2850819,-14.001614,6.5396757,177.90001,-141.3,-31.500002,x,,,,,
142586,-4.8377805,7.8261027,-0.8864479,5.4725957,-11.814099,6.8521776,168.3,-143.70001,-33.9,x,,,,,
142606,-3.083427,8.234036,-0.6077133,4.4664917,-15.190645,8.704324,161.1,-148.5,-35.100002,x,,,,,
142669,-1.7298294,6.4318314,-1.4971519,4.1921,-9.382682,7.16468,129.90001,-155.70001,-32.100002,x,,,,,
142843,0.93071043,7.8009806,-3.9250143,4.199722,-1.272874,2.2027578,108.3,-172.5,-28.500002,x,,,,,
142883,1.4588706,8.45834,-4.4956427,3.483254,0.358234,0.907018,93.9,-165.3,-27.300001,x,,,,,
142904,1.4481041,8.966163,-4.8306026,3.338436,0.830798,0.967994,101.100006,-165.3,-24.900002,x,,,,,
142944,1.0533298,9.033753,-4.505213,1.6158639,-0.625004,0.320124,98.700005,-167.70001,-18.900002,x,,,,,
142964,0.73810846,8.129361,-4.0763445,0.899396,0.045732,-0.625004,108.3,-167.70001,-24.300001,x,,,,,
142984,0.8559426,7.882926,-4.360462,1.3567159,1.463424,-0.53354,105.9,-165.3,-23.1,x,,,,,
143024,0.67709786,8.443984,-4.1858044,1.280496,1.189032,0.022866,93.9,-170.1,-32.7,x,,,,,
143121,0.37324122,8.902162,-3.744375,-0.053354,3.3003259,-0.41921,110.700005,-170.1,-21.300001,x,,,,,
143141,0.3798208,9.095961,-3.669009,-0.022866,2.85825,0.11432999,89.100006,-170.1,-21.900002,x,,,,,
143185,0.44023323,8.8381605,-3.229374,-0.975616,1.158544,-0.243904,101.100006,-165.3,-27.900002,,,,,,
143205,0.5484971,8.7933,-3.06309,-0.777444,0.87653,-0.045732,98.700005,-167.70001,-26.7,,,,,,
143227,0.640013,8.8919935,-3.0654826,-0.632626,0.289636,-0.144818,113.100006,-172.5,-14.700001,,,,,,
143247,0.73751026,8.891396,-3.0313885,-0.503052,-0.106708,-0.091464,101.100006,-165.3,-21.900002,,,,,,
143267,0.8296243,8.795692,-2.982939,-0.442076,-0.16768399,-0.030488,103.50001,-155.70001,-23.7,,,,,,
143289,0.84039086,8.780739,-2.9847333,-0.41921,-0.007622,0.091464,101.100006,-167.70001,-20.1,,,,,,
143309,0.79134315,8.864479,-3.2108314,-0.23628199,0.053354,0.160062,98.700005,-170.1,-14.700001,,,,,,
143329,0.67590153,8.6766615,-3.2772253,-0.121952,-0.106708,0.091464,105.9,-160.5,-21.300001,,,,,,
143352,0.8278299,8.959583,-3.2748327,-0.083841994,-0.67835796,0.518296,98.700005,-172.5,-20.7,,,,,,
143372,0.8212503,8.863881,-3.2538977,-0.518296,-0.846042,0.40396598,103.50001,-174.90001,-21.300001,,,,,,
143415,0.7943339,8.853712,-3.1121378,-0.548784,-1.196654,0.3811,89.100006,-165.3,-18.900002,,,,,,
143435,0.99231917,9.02837,-3.0487347,-0.503052,-1.036592,0.17530599,96.3,-160.5,-20.1,,,,,,
143455,0.8296243,8.930873,-3.250309,-0.60976,-0.53354,-0.434454,103.50001,-158.1,-15.900001,,,,,,
143475,0.6753034,8.836366,-3.4997346,-0.480186,-0.259148,-0.80030996,98.700005,-162.90001,-18.900002,,,,,,
143535,0.43484995,8.026481,-5.006457,-0.87653,3.58234,-2.32471,101.100006,-158.1,-28.500002,x,,,,,
143555,0.8487649,7.8201213,-5.89769,-0.983238,3.12502,-1.935988,108.3,-160.5,-26.7,x,,,,,
143579,1.1304902,8.067154,-5.7415743,-2.500016,0.899396,-1.48629,108.3,-155.70001,-33.300003,x,,,,,
143599,1.7178667,7.702287,-5.3856792,-2.942092,1.9054999,-2.065562,110.700005,-160.5,-21.300001,x,,,,,
143619,2.3728333,7.8482337,-5.6464696,-2.85825,3.399412,-2.088428,93.9,-162.90001,-22.5,x,,,,,
143641,2.3650572,7.536003,-5.7122655,-3.361302,4.45887,-2.8048959,113.100006,-162.90001,-24.300001,x,,,,,
143661,2.1664739,6.8768497,-5.9862146,-2.51526,6.234796,-3.84911,108.3,-158.1,-14.700001,x,,,,,
143722,1.3392421,5.456858,-5.346202,-2.195136,4.367406,-6.8979096,117.9,-170.1,-21.300001,x,,,,,
143742,1.0401707,6.3451004,-3.9638934,-3.7347798,3.346058,-6.3567476,137.1,-160.5,-17.7,x,,,,,
143762,0.36247465,6.9306827,-2.8381884,-5.655524,6.4939437,-8.399444,144.3,-143.70001,-19.5,x,,,,,
143782,-0.32419348,5.2624617,-2.355487,-5.914672,9.67994,-11.28056,139.5,-148.5,-26.7,x,,,,,
143805,-1.9607127,4.703198,-0.73272514,-6.3872356,10.40403,-10.228724,153.90001,-148.5,-24.900002,x,,,,,
143825,-3.284403,5.013634,-0.41451308,-6.844556,14.413201,-10.579336,173.1,-134.1,-30.300001,x,,,,,
143848,-3.477005,5.108739,-1.0940034,-4.0472817,15.419306,-9.939088,177.90001,-136.5,-23.7,x,,,,,
143908,-5.141039,9.564306,-0.24464047,-3.628072,16.006199,-9.832379,187.5,-131.70001,-21.900002,x,,,,,
143928,-5.798996,9.310694,-0.88046646,-2.32471,14.542776,-9.512256,206.70001,-134.1,-23.1,x,,,,,
143949,-5.409605,11.842632,-1.1633881,-2.2942219,8.856764,-5.0381417,194.70001,-122.100006,-24.300001,x,,,,,
143969,-4.9083614,14.055761,0.90798104,-4.9771657,4.618932,-4.634176,216.3,-119.700005,-20.1,x,,,,,
143989,-6.0759363,11.46341,0.5514878,-3.35368,5.152472,-6.753092,197.1,-122.100006,-20.1,x,,,,,
144009,-7.36314,12.408476,0.23088318,-2.538126,4.824726,-5.434486,199.50002,-110.100006,-16.5,x,,,,,
144029,-7.88173,15.267001,-1.3081387,-1.478668,2.576236,-2.118916,221.1,-122.100006,-26.1,x,,,,,
144091,-8.378188,15.463192,-0.55029154,-1.455802,-4.26832,1.920744,216.3,-129.3,-22.5,x,,,,,
144111,-5.857614,15.840022,1.6712115,-1.8673899,-10.70891,5.8613176,211.50002,-117.3,-22.5,x,,,,,
144131,-6.180013,14.557006,1.547994,-0.213416,-9.878112,6.51681,206.70001,-122.100006,-26.1,x,,,,,
144154,-6.4031205,13.0927515,0.93609375,1.21952,-10.975679,7.5305357,211.50002,-122.100006,-32.7,x,,,,,
144194,-5.4670267,11.26722,0.6453963,3.628072,-11.989406,7.728708,180.3,-134.1,-24.300001,x,,,,,
144214,-4.763611,9.826891,-0.002392572,5.0381417,-11.814099,8.216516,189.90001,-143.70001,-30.300001,x,,,,,
144237,-3.7240381,9.584643,-0.14355431,4.9771657,-11.974162,9.420792,175.5,-148.5,-32.100002,x,,,,,
144257,-3.3723302,9.017005,-0.48210323,4.214966,-10.02293,8.53664,165.90001,-146.1,-33.300003,x,,,,,
144279,-3.1887002,7.6759686,-1.2273893,4.38265,-8.826276,6.8979096,156.3,-136.5,-30.900002,x,,,,,
144319,-2.1694646,5.510691,-1.0108616,2.568614,-8.597616,5.9527817,141.90001,-143.70001,-26.1,x,,,,,
144339,-1.8410841,4.9047723,-1.752559,2.97258,-6.501566,4.771372,153.90001,-155.70001,-29.1,x,,,,,
144359,-1.342831,4.2982554,-2.3943663,4.131124,-6.981752,4.4055157,139.5,-165.3,-31.500002,x,,,,,
144420,0.5257677,5.146422,-3.071464,5.312534,-1.722572,3.35368,115.50001,-174.90001,-27.300001,x,,,,,
144565,2.7287283,10.528513,-4.3526864,1.577754,-1.21952,3.064044,89.100006,-155.70001,-30.300001,x,,,,,
144585,1.1556122,9.335217,-4.3449106,0.579272,0.053354,-0.861286,96.3,-170.1,-24.300001,x,,,,,
144627,1.0826387,8.175418,-5.108141,1.8673899,-0.548784,-0.64787,91.5,-170.1,-24.900002,,,,,,
144649,0.7177716,8.21669,-4.0249043,1.478668,-0.69360197,-1.1432999,91.5,-155.70001,-30.900002,,,,,,
144670,0.778184,8.474489,-4.4699225,1.44818,0.251526,-0.49543,108.3,-179.70001,-24.300001,,,,,,
144690,0.8152689,8.833974,-4.169655,0.907018,-0.449698,-0.297258,91.5,-182.1,-20.7,,,,,,
144752,0.5801987,9.054688,-3.7025049,0.137196,0.82317597,-0.22865999,96.3,-177.3,-12.900001,,,,,,
144864,0.2171259,8.588735,-3.4716218,-0.68597996,1.326228,-0.503052,101.100006,-162.90001,-23.7,,,,,,
144884,0.38939106,9.088184,-3.275431,-0.274392,0.853664,0.091464,98.700005,-174.90001,-21.300001,,,,,,
144928,0.5915634,8.955995,-3.0744548,-0.53354,1.074702,-0.060976,105.9,-153.3,-21.300001,,,,,,
144968,0.42647594,9.135438,-3.0947917,-0.030488,1.33385,-0.274392,91.5,-165.3,-23.1,,,,,,
144988,0.3050529,8.766383,-3.008061,0.007622,1.227142,-0.602138,93.9,-165.3,-19.5,,,,,,
145008,0.37802637,9.014613,-2.999687,0.28201398,0.998482,-0.320124,101.100006,-167.70001,-21.900002,,,,,,
145028,0.39597064,8.982313,-2.9386764,0.091464,1.044214,-0.35061198,98.700005,-160.5,-21.300001,,,,,,
145070,0.24404234,8.827394,-3.175541,0.23628199,0.899396,-0.07622,103.50001,-162.90001,-17.1,,,,,,
145160,0.535338,8.770571,-3.409415,-0.129574,0.144818,-0.144818,93.9,-162.90001,-12.3,,,,,,
145182,0.51859,8.817823,-3.5751004,0.099086,-0.068598,-0.23628199,96.3,-172.5,-18.900002,,,,,,
145224,0.7716044,9.085194,-3.3986483,0.091464,-0.396344,-0.34298998,84.3,-170.1,-23.1,,,,,,
145244,0.7626323,8.926685,-3.24672,-0.15244,-0.19055,-0.487808,105.9,-170.1,-21.300001,,,,,,
145266,0.7644267,9.194056,-3.2204018,-0.358234,0.182928,-0.40396598,101.100006,-162.90001,-18.900002,,,,,,
145286,0.61847985,8.8579,-3.2664587,-0.579272,0.449698,-0.69360197,103.50001,-167.70001,-21.900002,x,,,,,
145351,0.89900887,8.487649,-4.2839,-1.196654,2.027452,-1.021348,98.700005,-160.5,-17.7,x,,,,,
145371,1.025217,8.130557,-4.944848,-0.95274997,3.536608,-1.3643379,101.100006,-170.1,-14.700001,x,,,,,
145391,1.7597367,8.7735615,-6.2810993,-0.243904,4.321674,-0.503052,101.100006,-165.3,-20.1,x,,,,,
145411,2.0635931,8.552846,-6.367232,-2.7744079,2.301844,-1.272874,103.50001,-162.90001,-24.300001,x,,,,,
145471,2.8459642,7.7626996,-5.7666965,-5.0991178,7.225656,-3.46801,105.9,-162.90001,-16.5,x,,,,,
145491,3.054716,8.103043,-5.8043795,-4.9466777,7.5305357,-3.96344,115.50001,-167.70001,-20.1,x,,,,,
145511,2.9673872,8.362039,-5.2289658,-5.815586,6.730226,-5.800342,117.9,-167.70001,-23.7,x,,,,,
145571,0.001196286,3.334049,-3.7156641,-5.5335717,9.984819,-9.740916,127.50001,-155.70001,-20.7,x,,,,,
145591,-1.0443577,2.9937055,-3.2204018,-4.634176,11.082388,-8.864386,151.5,-160.5,-26.7,x,,,,,
145611,-2.1993718,3.2365515,-3.2299721,-3.6661818,10.853727,-8.833898,158.70001,-153.3,-24.300001,x,,,,,
145635,-3.1073527,4.140944,-2.6156793,-2.2484899,6.318638,-7.5762677,153.90001,-136.5,-24.900002,x,,,,,
145655,-3.1019695,6.6340036,0.023327576,-4.298808,1.8292799,-5.94516,163.5,-141.3,-26.1,x,,,,,
145717,-4.367042,9.523034,-0.5401231,-5.4421077,13.559538,-8.42231,187.5,-134.1,-24.300001,x,,,,,
145763,-5.2534895,11.480756,-0.1740596,-4.03966,12.591544,-6.5091877,211.50002,-129.3,-23.1,x,,,,,
145782,-5.1942735,15.4793415,0.6178817,-6.067112,8.57475,-4.9009457,209.1,-112.50001,-21.900002,x,,,,,
145824,-6.276912,13.537171,2.2023625,-5.4116197,4.275942,-7.0198617,209.1,-119.700005,-24.900002,x,,,,,
145844,-7.236334,14.833945,2.0785468,-3.16313,4.0167937,-4.260698,216.3,-112.50001,-26.7,x,,,,,
145864,-6.9384584,16.20788,1.7041093,-2.2637339,0.853664,-2.332332,213.90001,-114.9,-19.5,x,,,,,
145884,-7.257867,15.276571,2.5199764,-1.310984,-2.179892,-1.75306,221.1,-114.9,-25.500002,x,,,,,
145904,-8.440395,14.238793,2.0055733,0.541162,-4.672286,0.434454,225.90001,-107.700005,-21.900002,x,,,,,
145924,-7.7166424,14.448143,1.4995444,1.996964,-7.942124,4.245454,213.90001,-107.700005,-24.900002,x,,,,,
145944,-5.8390718,14.330309,2.2741396,2.2256238,-10.625068,6.166198,218.70001,-131.70001,-32.100002,x,,,,,
145967,-6.889411,12.022674,1.2112396,3.437522,-9.87049,6.70736,216.3,-124.50001,-24.900002,x,,,,,
145987,-6.088497,11.666181,-0.36666164,4.870458,-11.1890955,9.085423,209.1,-126.9,-24.300001,x,,,,,
146007,-4.3610606,11.81452,0.08732887,4.9161897,-13.963504,10.274456,201.90001,-131.70001,-20.7,x,,,,,
146050,-3.5774932,9.867564,-0.32479164,3.445144,-10.846106,8.109808,182.70001,-134.1,-24.900002,x,,,,,
146114,-2.7269337,7.915226,-1.275839,3.8109999,-14.085456,8.475664,161.1,-155.70001,-36.300003,x,,,,,
146183,-1.16279,5.241527,-2.4924617,4.0625257,-9.6418295,6.13571,137.1,-162.90001,-27.900002,x,,,,,
146203,-0.76083785,4.8969965,-2.1281927,4.161612,-9.725672,6.234796,125.100006,-177.3,-27.900002,x,,,,,
146245,0.31282878,5.828903,-3.1013713,5.29729,-6.272906,5.5793037,117.9,-160.5,-35.7,x,,,,,
146265,0.63702226,6.56761,-3.1037638,4.847592,-6.753092,5.213448,125.100006,-165.3,-33.9,x,,,,,
146307,1.4146081,8.141324,-2.9853315,2.957336,-4.291186,3.7195358,108.3,-160.5,-27.900002,x,,,,,
146327,1.6215656,8.724513,-3.5487823,2.2637339,-2.461906,2.644834,110.700005,-167.70001,-26.7,x,,,,,
146349,1.6096027,8.163455,-3.8137596,1.501534,-1.8369019,0.594516,110.700005,-170.1,-24.900002,x,,,,,
146369,1.954133,8.851918,-4.473511,2.484772,-0.708846,1.44818,103.50001,-170.1,-29.7,x,,,,,
146389,1.4869834,9.38606,-4.7366943,2.2789779,-1.211898,0.868908,98.700005,-170.1,-30.300001,x,,,,,
146429,0.2536126,6.6740794,-5.2911725,4.291186,0.64787,-1.1051899,96.3,-162.90001,-23.7,,,,,,
146492,1.1197237,8.8579,-4.7767696,0.274392,-0.007622,0.579272,93.9,-167.70001,-18.900002,,,,,,
146512,1.1568085,8.69341,-4.1780286,-0.861286,-0.64787,0.640248,103.50001,-165.3,-15.3,,,,,,
146534,1.2160246,8.507986,-3.7246363,-0.83842,-0.099086,0.83842,93.9,-167.70001,-20.7,,,,,,
146555,1.5204794,8.915321,-3.4028354,-1.013726,0.129574,1.013726,98.700005,-162.90001,-21.900002,,,,,,
146595,1.606612,8.839356,-2.735906,-1.150922,1.1280559,0.327746,101.100006,-165.3,-24.900002,,,,,,
146615,1.5491903,8.794497,-2.7969165,-0.861286,1.661596,-0.15244,96.3,-177.3,-17.7,,,,,,
146638,1.2519132,8.8381605,-2.8340013,-0.17530599,1.6539739,-0.602138,89.100006,-158.1,-26.1,,,,,,
146658,1.0676852,8.912929,-2.8591235,0.251526,1.661596,-0.998482,101.100006,-167.70001,-26.1,,,,,,
146678,0.9444677,9.134241,-2.950041,0.3811,1.432936,-1.234764,98.700005,-153.3,-23.7,,,,,,
146698,0.74408984,8.869863,-3.1139324,0.297258,1.48629,-1.417692,93.9,-177.3,-23.1,,,,,,
146722,0.6806867,8.838758,-3.276029,0.541162,1.173788,-1.1204339,105.9,-165.3,-21.300001,,,,,,
146742,0.7973246,8.969752,-3.1827188,0.53354,0.792688,-0.708846,98.700005,-162.90001,-19.5,,,,,,
146762,0.9486548,9.375293,-3.3143103,0.28201398,1.1128119,-0.41921,93.9,-162.90001,-24.900002,,,,,,
146784,0.8397927,9.27002,-3.4662385,-0.26677,1.288118,-0.93750596,91.5,-167.70001,-14.1,,,,,,
146844,0.8421853,8.768178,-3.4405184,-0.68597996,1.1356779,-1.1204339,101.100006,-172.5,-20.7,,,,,,
146864,0.9773656,8.5678,-3.313114,-0.769822,0.907018,-1.3490939,98.700005,-150.90001,-21.900002,,,,,,
146884,1.108957,8.287869,-3.4183872,-1.02897,1.1204339,-1.570132,91.5,-155.70001,-23.7,,,,,,
146904,1.1699677,8.42903,-3.7084863,-0.625004,1.250008,-1.3414719,84.3,-167.70001,-20.1,,,,,,
146928,1.6502764,9.068445,-3.7623193,-0.739334,1.318606,-1.471046,110.700005,-167.70001,-25.500002,,,,,,
146948,1.5121055,8.849525,-3.9226215,-1.1280559,1.8521459,-2.309466,113.100006,-153.3,-20.1,x,,,,,
146968,1.4857872,8.643166,-4.229469,-0.99086,2.652456,-2.987824,108.3,-165.3,-21.300001,x,,,,,
146990,1.313522,8.568996,-4.78634,-0.708846,3.971062,-3.7957559,113.100006,-150.90001,-27.300001,x,,,,,
147010,1.3230922,8.219681,-5.3916607,-0.785066,3.7271578,-4.298808,110.700005,-160.5,-20.7,x,,,,,
147030,1.150229,7.5043015,-5.319884,-1.29574,3.490876,-4.4360037,105.9,-155.70001,-20.1,x,,,,,
147053,0.8607277,7.16994,-5.8552217,-1.150922,5.304912,-4.4360037,125.100006,-162.90001,-20.7,x,,,,,
147073,-0.014355431,5.9132414,-6.124984,-0.907018,6.143332,-6.051868,132.3,-158.1,-20.1,x,,,,,
147093,-0.21592961,5.643479,-6.42585,-0.16768399,4.4360037,-5.175338,122.700005,-150.90001,-12.900001,x,,,,,
147113,0.6029281,7.29555,-5.660227,-2.568614,1.98172,-3.6738038,137.1,-162.90001,-18.300001,x,,,,,
147133,0.27394947,7.531218,-3.8891256,-5.4421077,2.2637339,-5.8918056,134.70001,-165.3,-23.1,x,,,,,
147154,0.65496653,6.781147,-3.062492,-7.416206,9.154022,-9.268352,139.5,-153.3,-20.1,x,,,,,
147174,0.28890306,6.4713087,-2.8848436,-8.3842,10.51836,-10.243968,153.90001,-160.5,-16.5,x,,,,,
147194,-1.1789398,5.6123757,-2.3530943,-8.91774,13.452829,-12.324774,163.5,-153.3,-19.5,x,,,,,
147214,-2.577398,5.1942735,-1.8159621,-7.9192576,13.361365,-11.707392,168.3,-138.90001,-21.300001,x,,,,,
147234,-3.4536774,4.690039,-0.11544159,-7.92688,12.515324,-11.295804,175.5,-124.50001,-23.1,x,,,,,
147256,-3.2568884,6.124984,-0.794932,-5.4725957,15.960467,-9.024447,189.90001,-129.3,-23.7,x,,,,,
147276,-3.648074,7.2351375,-1.2154266,-4.30643,15.846138,-8.7653,192.3,-138.90001,-21.900002,x,,,,,
147296,-4.1355605,7.702287,-1.0479465,-3.7576458,13.064108,-8.61286,206.70001,-126.9,-19.5,x,,,,,
147316,-5.7038913,7.7327924,-0.3481192,-4.100636,12.84307,-7.77444,209.1,-114.9,-19.5,x,,,,,
147376,-5.1649647,11.557319,-0.45638308,-5.388754,8.1555395,-6.699738,213.90001,-117.3,-19.5,x,,,,,
147396,-6.359456,11.659003,-1.7399979,-5.129606,8.353712,-5.5793037,218.70001,-105.3,-15.3,x,,,,,
147418,-5.476597,11.886297,-0.9965062,-5.510706,3.346058,-5.205826,216.3,-112.50001,-11.1,x,,,,,
147438,-5.4448953,13.605958,1.1747528,-5.434486,1.539644,-4.679908,225.90001,-100.50001,-21.900002,x,,,,,
147458,-6.2996416,14.333899,0.63702226,-4.0472817,1.8445239,-2.675322,240.3,-112.50001,-14.700001,x,,,,,
147478,-6.379793,14.235803,1.4804039,-4.11588,0.060976,-2.431418,225.90001,-102.9,-26.7,x,,,,,
147498,-8.447573,13.561097,2.1383612,-2.088428,-1.059458,-1.707328,247.50002,-95.700005,-21.900002,x,,,,,
147518,-9.743151,14.717308,0.669322,0.106708,-4.131124,2.05794,228.3,-98.100006,-18.300001,x,,,,,
147538,-7.4169726,15.331002,1.6963334,0.137196,-10.55647,4.664664,228.3,-105.3,-17.1,x,,,,,
147560,-7.778251,12.958768,2.6390069,2.195136,-12.019894,5.37351,225.90001,-95.700005,-26.7,x,,,,,
147580,-8.340506,11.9156065,0.3002678,5.076252,-10.907082,8.170784,221.1,-107.700005,-26.7,x,,,,,
147600,-6.5048046,13.076003,-0.2895012,5.175338,-14.946742,10.320188,221.1,-119.700005,-25.500002,x,,,,,
147620,-5.496336,12.205108,0.16030231,4.695152,-16.897974,10.243968,209.1,-124.50001,-20.1,x,,,,,
147640,-5.1069446,10.884408,-0.21652776,4.626554,-18.079384,11.2195835,197.1,-134.1,-32.100002,x,,,,,
147660,-4.5153813,10.340097,0.37204492,4.0625257,-18.14036,10.59458,194.70001,-117.3,-27.900002,x,,,,,
147680,-3.9058735,8.696401,0.74229544,3.7195358,-15.480282,9.6723175,182.70001,-129.3,-29.7,x,,,,,
147700,-4.141542,7.7345867,-0.010766573,3.483254,-11.54733,8.7653,170.70001,-134.1,-27.300001,x,,,,,
147722,-3.0762494,7.602397,-1.3936732,4.138746,-10.449761,8.635726,165.90001,-138.90001,-30.300001,x,,,,,
147742,-2.2986634,7.003656,-0.72554743,3.041178,-11.7150135,7.6372437,156.3,-150.90001,-26.7,x,,,,,
147805,-0.24882747,5.6440773,-2.982939,5.18296,-7.5305357,6.829312,139.5,-170.1,-32.7,x,,,,,
147825,-0.4593738,4.970568,-2.7783742,4.817104,-5.228692,5.29729,132.3,-165.3,-27.300001,x,,,,,
147847,0.45578495,5.4771953,-4.042848,7.4695597,-5.4268637,7.5000477,122.700005,-150.90001,-26.7,x,,,,,
147889,2.0061715,7.3834767,-2.9649947,3.856732,-4.4360037,6.6006517,113.100006,-153.3,-30.900002,x,,,,,
147919,1.9804513,6.086703,-3.9405658,3.513742,0.015244,3.155508,108.3,-165.3,-26.7,x,,,,,
147939,2.1156316,6.3486896,-4.2934704,3.2164838,-0.297258,3.445144,113.100006,-167.70001,-29.1,x,,,,,
147982,2.5450983,8.120987,-3.975258,0.617382,0.716468,0.99086,96.3,-172.5,-17.1,,,,,,
148002,2.3734312,8.024686,-4.276124,0.68597996,0.99086,-0.068598,96.3,-172.5,-26.1,,,,,,
148044,2.64439,9.316077,-3.9429584,0.373478,0.022866,0.121952,93.9,-174.90001,-24.300001,,,,,,
148064,2.3752258,9.219177,-3.9806414,0.23628199,0.67835796,-0.92226195,81.9,-172.5,-20.7,,,,,,
148084,2.5127985,9.550549,-4.061989,0.602138,0.312502,-1.051836,101.100006,-167.70001,-19.5,,,,,,
148104,2.3190002,9.53739,-3.539212,0.67073596,-0.091464,-1.1204339,101.100006,-170.1,-29.7,,,,,,
148127,2.4583676,10.362827,-3.4560702,0.83842,0.068598,-0.586894,105.9,-170.1,-16.5,,,,,,
148147,1.7932327,10.433408,-2.748467,0.22865999,0.26677,-1.196654,81.9,-165.3,-22.5,,,,,,
148167,1.543807,10.515951,-3.083427,0.769822,2.09605,-1.6463519,108.3,-179.70001,-26.1,,,,,,
148187,1.0904146,9.631896,-2.8896286,0.663114,1.966476,-2.157026,96.3,-167.70001,-22.5,,,,,,
148207,0.4133168,9.354956,-2.7951221,1.227142,2.7439198,-1.44818,108.3,-167.70001,-19.5,,,,,,
148227,-0.34153965,9.536194,-3.0947917,1.318606,3.094532,-1.097568,101.100006,-162.90001,-24.300001,,,,,,
148247,-0.5801987,9.514062,-3.2497108,1.234764,2.530504,-0.899396,120.3,-170.1,-19.5,,,,,,
148267,-0.9881322,8.399722,-2.8310106,0.777444,2.042696,-0.975616,113.100006,-172.5,-20.7,,,,,,
148290,-1.4756187,8.295645,-2.7299244,0.091464,2.042696,0.320124,98.700005,-170.1,-16.5,,,,,,
148330,-0.9313086,8.903358,-2.4553769,-0.785066,1.821658,1.577754,101.100006,-160.5,-15.3,,,,,,
148393,-1.3045498,8.671877,-2.4129088,-0.449698,0.022866,-0.586894,110.700005,-158.1,-17.1,,,,,,
148413,-1.3117275,8.329739,-2.3351502,-0.480186,0.030488,-0.891774,105.9,-160.5,-24.900002,,,,,,
148457,-0.9492529,8.996669,-2.3818054,-0.17530599,-0.15244,-0.19055,96.3,-179.70001,-14.1,,,,,,
148477,-0.8170633,9.162354,-2.3650572,-0.182928,-0.33536798,-0.55640596,103.50001,-165.3,-19.5,,,,,,
148497,-0.67889225,8.034256,-1.8925244,-1.089946,-0.068598,-1.288118,103.50001,-158.1,-18.300001,,,,,,
148519,-0.18781689,8.138333,-1.6425006,-1.234764,0.160062,-0.548784,108.3,-155.70001,-17.7,,,,,,
148539,0.41690564,9.387256,-1.7076982,-1.440558,1.158544,-0.243904,105.9,-158.1,-21.900002,,,,,,
148581,0.19559275,8.325552,-2.1814275,-0.830798,1.768304,-2.2942219,101.100006,-155.70001,-15.3,,,,,,
148601,0.8056986,8.971546,-1.5629476,-0.60976,1.3948259,-1.8902559,113.100006,-158.1,-27.900002,,,,,,
148621,0.7016217,8.927284,-2.513995,-0.487808,3.521364,-2.09605,101.100006,-167.70001,-23.7,,,,,,
148642,0.63522786,9.357348,-3.2102332,0.777444,3.422278,-2.088428,101.100006,-170.1,-23.7,,,,,,
148663,1.1538178,9.979418,-3.802993,1.6234859,3.140264,-1.6539739,108.3,-170.1,-23.1,,,,,,
148683,1.5001426,11.212789,-4.4800906,1.509156,2.82014,-0.983238,113.100006,-155.70001,-25.500002,,,,,,
148705,1.594051,11.324042,-4.5578494,0.785066,1.303362,-1.6387299,110.700005,-160.5,-16.5,,,,,,
148725,1.8680005,10.887399,-4.099074,0.030488,0.022866,-1.585376,115.50001,-167.70001,-18.900002,,,,,,
148745,1.6855669,10.029661,-3.66542,-0.82317597,0.060976,-1.425314,115.50001,-148.5,-24.300001,,,,,,
148765,1.3685511,9.213196,-3.6845608,-0.60976,0.17530599,-1.33385,132.3,-172.5,-18.300001,,,,,,
148788,1.1807343,8.862086,-3.116325,0.144818,-1.204276,-0.891774,117.9,-155.70001,-26.1,,,,,,
148808,0.9085792,8.84474,-2.945256,0.16768399,-0.998482,-0.80793196,125.100006,-158.1,-23.1,,,,,,
148850,0.31761393,7.835075,-2.6605399,-0.16768399,-0.69360197,-0.640248,120.3,-162.90001,-18.300001,,,,,,
148886,0.0059814295,7.9887977,-2.7975147,-0.068598,-0.67073596,0.99086,115.50001,-160.5,-16.5,,,,,,
148926,0.33376378,8.811842,-3.033183,-0.548784,-0.182928,1.059458,115.50001,-153.3,-21.900002,,,,,,
149003,0.2548089,9.924388,-2.9919112,-0.213416,-0.739334,0.967994,105.9,-155.70001,-26.7,,,,,,
149023,-0.41032606,9.393835,-3.2568884,-0.259148,0.34298998,-0.53354,120.3,-172.5,-18.900002,,,,,,
149063,-1.0509372,9.04751,-3.363956,0.083841994,0.221038,-1.006104,115.50001,-167.70001,-16.5,,,,,,
149085,-0.82424104,9.165345,-3.4692292,-0.121952,-0.045732,-0.7622,125.100006,-158.1,-22.5,,,,,,
149105,-0.6932477,8.875245,-3.49794,-0.26677,-0.030488,-0.426832,129.90001,-153.3,-21.300001,,,,,,
149125,-0.36247465,8.957191,-3.6666164,-0.26677,0.022866,0.320124,113.100006,-155.70001,-15.900001,,,,,,
149146,0.10826388,9.117494,-3.7240381,-0.94512796,-0.11432999,0.64787,127.50001,-158.1,-24.300001,,,,,,
149166,0.37623194,8.671279,-3.7934227,-1.692084,0.327746,0.47256398,105.9,-160.5,-16.5,,,,,,
149189,0.7177716,8.403311,-4.080531,-1.8597679,0.49543,0.53354,122.700005,-162.90001,-18.300001,,,,,,
149209,0.7482768,8.509182,-4.5524664,-2.2180018,1.547266,0.19055,103.50001,-162.90001,-21.300001,,,,,,
149231,0.50363636,8.6114645,-5.313304,-1.661596,3.2545938,-0.91463995,113.100006,-172.5,-20.1,,,,,,
149251,1.033591,8.534304,-6.406709,-0.45731997,2.614346,-1.745438,115.50001,-167.70001,-18.900002,,,,,,
149271,1.7896438,7.3326344,-5.6213474,-1.33385,-1.71495,-2.2637339,120.3,-160.5,-19.5,x,,,,,
149293,2.9470503,7.629912,-5.1518054,0.47256398,2.545748,-1.173788,110.700005,-158.1,-20.7,x,,,,,
149313,3.5661285,9.25387,-5.6584325,0.967994,4.64942,-1.996964,110.700005,-155.70001,-23.7,x,,,,,
149333,3.9794452,9.051698,-4.5500736,-1.3414719,4.11588,-6.4329677,113.100006,-160.5,-19.5,x,,,,,
149354,3.107951,6.383382,-3.2778234,-2.82014,6.562542,-10.739398,117.9,-170.1,-24.300001,x,,,,,
149375,2.6240532,4.358668,-2.9667892,-3.92533,10.586958,-11.974162,146.70001,-165.3,-18.900002,x,,,,,
149395,1.9200389,3.4584627,-3.4787996,-4.108258,12.949778,-10.411652,146.70001,-158.1,-26.1,x,,,,,
149415,1.6012287,3.636111,-3.3202915,-4.618932,11.844587,-8.658592,168.3,-146.1,-22.5,x,,,,,
149437,0.8972145,4.1905894,-2.623455,-5.5030837,12.2104435,-9.474146,158.70001,-136.5,-19.5,x,,,,,
149457,-0.08254373,4.748657,-2.4248717,-5.350644,12.667764,-10.792751,170.70001,-129.3,-17.1,x,,,,,
149477,-0.9181495,4.6421876,-1.2471281,-5.800342,11.760746,-11.943674,175.5,-138.90001,-20.1,x,,,,,
149497,-3.033781,3.3896763,0.09510473,-5.79272,14.054968,-12.50008,170.70001,-129.3,-18.900002,x,,,,,
149538,-4.7923217,10.12656,-2.4505918,-2.484772,14.077834,-3.7347798,187.5,-122.100006,-14.1,x,,,,,
149558,-5.6374974,13.214772,1.472628,-6.006136,8.529017,-6.638762,194.70001,-129.3,-18.300001,x,,,,,
149578,-7.6783614,10.602084,-0.60352623,-1.94361,16.143396,-10.297321,197.1,-131.70001,-12.3,x,,,,,
149598,-7.087396,12.602873,-1.6060139,-2.538126,9.626586,-6.341504,206.70001,-119.700005,-13.500001,x,,,,,
149662,-9.728795,16.18814,-1.1442475,-1.737816,-3.414656,-2.637212,225.90001,-112.50001,-13.500001,x,,,,,
149683,-9.396228,16.812603,-0.23925719,-1.3872039,-5.571682,0.22865999,216.3,-107.700005,-14.1,x,,,,,
149703,-10.498606,16.255133,-1.067087,-1.493912,-7.492426,2.47715,216.3,-117.3,-8.700001,x,,,,,
149723,-8.822609,14.7986555,-0.4551868,-1.303362,-12.118979,4.64942,225.90001,-119.700005,-21.900002,x,,,,,
149745,-7.2644463,13.97262,0.8972145,-0.746956,-13.933016,7.370474,213.90001,-126.9,-19.5,x,,,,,
149765,-8.019302,12.284062,0.46954224,1.3567159,-12.050382,9.268352,204.3,-119.700005,-17.7,x,,,,,
149785,-6.724921,12.029852,-0.78177285,2.93447,-12.279041,11.379645,199.50002,-124.50001,-24.300001,x,,,,,
149805,-5.115319,11.242695,-0.47851437,2.7362978,-14.649484,11.958918,201.90001,-131.70001,-22.5,x,,,,,
149825,-4.2701426,9.35376,-0.5305528,3.018312,-13.041242,11.067143,177.90001,-146.1,-24.900002,x,,,,,
149845,-3.7330103,8.209513,-1.6335285,3.628072,-11.250072,11.150986,173.1,-155.70001,-24.300001,x,,,,,
149927,-0.8463723,5.47241,-2.1993718,2.2256238,-10.876594,7.187546,153.90001,-150.90001,-20.7,x,,,,,
149964,0.04187001,4.659534,-2.3148134,2.301844,-7.8887696,6.257662,132.3,-158.1,-26.1,x,,,,,
149985,0.44202766,4.3867807,-3.51409,5.3658876,-7.385718,6.4482117,125.100006,-160.5,-27.900002,x,,,,,
150025,2.020527,6.4108963,-2.134174,3.574718,-8.170784,7.599134,105.9,-165.3,-27.900002,x,,,,,
150045,1.8901318,6.7961006,-2.6324272,3.109776,-3.6814258,4.5122237,103.50001,-165.3,-26.1,x,,,,,
150065,1.9433665,6.8595037,-2.932695,3.018312,-3.2012398,3.986306,96.3,-172.5,-17.7,x,,,,,
150143,1.5719197,8.160464,-3.2371497,0.091464,-0.846042,0.3811,96.3,-174.90001,-32.100002,x,,,,,
150163,1.8632153,8.537892,-3.8293114,1.3643379,0.358234,0.777444,93.9,-167.70001,-30.300001,x,,,,,
150205,1.6353229,9.968651,-4.20973,1.250008,-0.007622,-0.434454,81.9,-160.5,-18.900002,,,,,,
150227,1.2740445,8.659316,-4.179225,1.737816,1.021348,-2.332332,105.9,-179.70001,-18.900002,,,,,,
150247,1.150229,8.058182,-4.3156013,1.669218,1.082324,-2.2865999,93.9,-177.3,-20.7,,,,,,
150269,0.598143,7.8129435,-4.2731333,1.227142,1.8445239,-1.6463519,84.3,-184.5,-17.1,,,,,,
150331,1.3111295,9.484753,-3.9686787,1.06708,1.1204339,-0.56402797,101.100006,-174.90001,-19.5,,,,,,
150351,1.2710538,9.351367,-3.5966337,-0.030488,1.6158639,-0.72409,91.5,-165.3,-24.900002,,,,,,
150371,0.9103736,8.987098,-3.65585,-0.617382,2.385686,-0.731712,93.9,-172.5,-21.300001,,,,,,
150391,0.77997845,9.008632,-3.4656403,-0.49543,1.920744,-0.754578,103.50001,-174.90001,-25.500002,,,,,,
150411,0.75186574,8.903956,-3.33046,-0.57164997,1.699706,-1.021348,115.50001,-172.5,-20.1,,,,,,
150431,0.7434917,9.021193,-3.0493329,-0.47256398,1.25763,-0.731712,91.5,-162.90001,-24.300001,,,,,,
150451,0.6334334,8.626418,-2.9727705,-0.69360197,0.967994,-0.769822,113.100006,-165.3,-22.5,,,,,,
150514,0.55208594,9.019996,-3.1109416,-0.289636,0.81555396,-0.26677,103.50001,-162.90001,-19.5,,,,,,
150561,0.593956,8.653933,-3.129484,-0.182928,0.510674,0.15244,93.9,-158.1,-17.7,,,,,,
150623,1.0802462,8.652737,-3.5840726,-0.243904,-0.045732,0.121952,103.50001,-179.70001,-20.1,,,,,,
150644,1.5330404,8.780739,-3.4620516,-0.594516,0.0,-0.312502,113.100006,-160.5,-18.300001,,,,,,
150704,2.054023,8.953004,-5.159581,-1.06708,2.2713559,-2.964958,93.9,-170.1,-16.5,,,,,,
150739,2.0594063,7.613164,-4.65116,-2.2942219,0.625004,-3.445144,101.100006,-167.70001,-19.5,,,,,,
150802,1.8195509,7.6963058,-4.600916,-3.8186219,3.384168,-3.3079479,120.3,-170.1,-24.900002,x,,,,,
150824,1.6562579,7.358953,-5.3240705,-2.179892,5.838452,-4.093014,110.700005,-160.5,-24.900002,x,,,,,
150844,1.8093824,7.587444,-5.475999,-1.6234859,5.79272,-4.253076,117.9,-153.3,-27.900002,x,,,,,
150865,2.1987736,9.284973,-5.112328,-2.461906,3.2622159,-5.52595,125.100006,-167.70001,-12.900001,x,,,,,
150925,1.5916585,5.124291,-3.234159,-5.541194,8.262248,-12.088491,146.70001,-150.90001,-26.1,x,,,,,
150949,0.2506219,3.30474,-2.623455,-6.966508,12.416238,-13.56716,161.1,-153.3,-27.900002,x,,,,,
150969,-0.43305552,2.4685361,-3.12111,-6.36437,14.916254,-11.943674,170.70001,-148.5,-18.900002,x,,,,,
150991,-2.2232974,2.5062191,-1.9762644,-6.8598,12.88118,-9.466524,180.3,-143.70001,-25.500002,x,,,,,
151011,-3.1121378,5.3533797,-1.8129714,-6.608274,13.22417,-7.172302,185.1,-134.1,-20.1,x,,,,,
151032,-2.9057786,6.444392,-0.4940661,-6.8826656,10.09915,-8.818654,187.5,-143.70001,-24.300001,x,,,,,
151092,-6.329549,13.234511,2.1485295,-6.28815,12.484836,-5.79272,199.50002,-129.3,-24.900002,x,,,,,
151112,-7.5443773,11.467597,0.7058087,-2.835384,13.658624,-9.512256,223.50002,-112.50001,-16.5,x,,,,,
151132,-8.354263,11.317463,0.8045023,-1.8292799,9.481768,-5.960404,209.1,-112.50001,-18.300001,x,,,,,
151152,-7.2142024,14.065332,1.2872037,-3.094532,5.746988,-2.088428,201.90001,-117.3,-20.7,x,,,,,
151176,-7.5485644,14.180176,1.5444051,-2.32471,3.6814258,-3.16313,211.50002,-117.3,-21.300001,x,,,,,
151216,-8.2226715,16.7169,0.9187476,-0.884152,-1.928366,1.783548,211.50002,-105.3,-16.5,x,,,,,
151236,-9.103736,17.275566,0.45399052,-0.68597996,-4.0625257,2.576236,228.3,-105.3,-18.300001,x,,,,,
151276,-7.0748353,15.147372,0.72136045,1.3795819,-11.417756,7.3628516,218.70001,-112.50001,-18.300001,x,,,,,
151296,-5.692527,14.554015,0.9366919,1.33385,-10.891838,8.818654,209.1,-126.9,-26.7,x,,,,,
151316,-5.5501685,13.84701,0.62984455,0.975616,-11.265316,8.925362,194.70001,-122.100006,-20.1,x,,,,,
151336,-6.5532546,11.101534,-0.03828115,1.75306,-9.855246,6.737848,192.3,-126.9,-24.900002,x,,,,,
151376,-4.2228894,9.3244505,-0.76801556,3.92533,-14.657105,8.102186,180.3,-131.70001,-24.900002,x,,,,,
151421,-2.9398727,7.128668,-1.560555,2.873494,-10.076283,5.9680257,173.1,-153.3,-27.900002,x,,,,,
151466,-2.0408638,5.1559925,-2.271747,3.079288,-12.073248,6.638762,151.5,-150.90001,-27.300001,x,,,,,
151486,-0.90558845,5.706882,-1.6921464,2.01983,-13.14795,8.109808,146.70001,-143.70001,-29.1,x,,,,,
151528,-0.76981,4.2139173,-2.384198,3.2927039,-7.66011,6.753092,127.50001,-162.90001,-26.7,x,,,,,
151550,0.9145606,6.4156814,-2.9147508,3.140264,-11.029034,9.29884,120.3,-177.3,-22.5,x,,,,,
151570,1.1047701,6.7709785,-2.2699525,2.568614,-11.105254,8.597616,113.100006,-172.5,-29.1,x,,,,,
151614,1.8416822,7.09577,-2.6605399,2.141782,-5.266802,5.724122,105.9,-165.3,-31.500002,x,,,,,
151640,2.3788147,8.127566,-2.9063766,2.59148,-3.7500238,5.10674,93.9,-167.70001,-29.1,x,,,,,
151660,2.9338913,9.203028,-3.296366,2.82014,-2.6905658,5.076252,93.9,-174.90001,-24.300001,x,,,,,
151700,1.7519608,7.8033733,-3.2855992,2.865872,-0.92226195,1.814036,96.3,-174.90001,-27.900002,x,,,,,
151762,1.8213453,8.965565,-3.619363,2.606724,1.21952,-1.211898,98.700005,-174.90001,-26.7,x,,,,,
151782,1.5414144,8.674868,-3.7365992,2.393308,2.500016,-2.309466,84.3,-170.1,-23.1,x,,,,,
151802,1.4504967,8.7843275,-4.261769,2.644834,3.323192,-2.179892,89.100006,-170.1,-20.7,x,,,,,
151822,1.447506,9.135438,-4.0063615,1.928366,2.339954,-1.722572,81.9,-170.1,-16.5,,,,,,
151842,1.3302699,8.784925,-3.66542,1.3948259,2.416174,-1.806414,84.3,-172.5,-21.900002,,,,,,
151906,0.8248392,8.94463,-3.589456,1.21952,2.82014,-0.213416,84.3,-167.70001,-20.1,,,,,,
151963,0.9953099,9.078614,-3.4997346,0.503052,2.507638,-0.960372,96.3,-177.3,-24.300001,,,,,,
152023,0.90977544,8.800478,-3.3615634,-0.7622,1.5929979,-0.69360197,101.100006,-167.70001,-18.900002,,,,,,
152122,0.64659256,8.852516,-3.1773355,-0.487808,-0.213416,-0.602138,89.100006,-162.90001,-17.1,,,,,,
152142,0.66274244,8.896778,-3.1181192,-0.480186,-0.20579399,-0.525918,91.5,-174.90001,-24.900002,,,,,,
152185,0.82603544,8.622231,-3.0379682,-0.510674,-0.388722,-0.03811,93.9,-170.1,-17.7,,,,,,
152205,1.083835,8.574978,-2.9225266,-0.67073596,-0.28201398,0.106708,98.700005,-179.70001,-17.1,,,,,,
152225,1.3984582,8.445779,-3.0529218,-0.64787,0.23628199,-0.106708,89.100006,-167.70001,-20.1,,,,,,
152248,1.9571238,7.854215,-3.552371,-1.18141,2.149404,-0.899396,105.9,-174.90001,-15.900001,x,,,,,
152313,3.4453034,6.8218207,-6.1477137,0.03811,3.7119138,1.5244,91.5,-172.5,-16.5,x,,,,,
152360,4.6254396,8.635988,-6.8810368,-0.655492,5.731744,-1.669218,89.100006,-160.5,-16.5,x,,,,,
152380,4.267152,7.460637,-6.3367267,-2.126538,4.603688,-4.672286,86.700005,-162.90001,-17.1,x,,,,,
152420,3.3137121,5.2600694,-5.455064,-1.6082419,6.189064,-6.562542,113.100006,-165.3,-23.1,x,,,,,
152444,2.7036061,5.4915504,-5.2152085,-2.93447,7.644866,-8.254626,113.100006,-162.90001,-21.900002,x,,,,,
152484,0.15073203,1.3039516,-3.12111,-5.251558,6.9588857,-14.108322,125.100006,-148.5,-21.900002,x,,,,,
152506,-3.5703154,2.255597,-2.6096978,-3.7195358,13.689112,-7.782062,141.90001,-153.3,-16.5,x,,,,,
152526,-3.128886,7.8033733,-2.6725028,-6.410102,11.516842,-2.2561119,149.1,-160.5,-21.300001,x,,,,,
152546,-3.0553143,10.732479,0.6615461,-7.286632,8.102186,-5.815586,144.3,-143.70001,-15.3,x,,,,,
152566,-2.6946342,10.19774,2.0175362,-2.850628,13.064108,-8.3842,146.70001,-141.3,-22.5,x,,,,,
152628,-5.810959,9.721618,-0.8475686,-2.7667859,13.132706,-10.160126,180.3,-148.5,-20.1,x,,,,,
152722,-6.535908,16.504559,0.97377676,-2.17227,-1.272874,-3.2622159,192.3,-126.9,-21.900002,x,,,,,
152785,-7.2608576,14.110192,1.7896438,-1.493912,-9.1768875,4.085392,204.3,-126.9,-13.500001,x,,,,,
152805,-6.998273,13.635267,0.7626323,0.503052,-10.884215,6.333882,187.5,-153.3,-20.1,x,,,,,
152825,-5.294163,13.758485,1.439132,1.8673899,-14.291249,8.46042,187.5,-136.5,-25.500002,x,,,,,
152848,-4.3664436,12.551432,1.4283655,1.958854,-13.818686,8.452798,168.3,-129.3,-21.300001,x,,,,,
152909,-3.4285555,9.143213,-0.21114446,4.009172,-11.364402,6.532054,153.90001,-153.3,-29.7,x,,,,,
152929,-3.1414468,8.542678,-0.79373574,3.833866,-10.426896,6.981752,153.90001,-148.5,-29.7,x,,,,,
152952,-3.0445478,7.573088,-1.158603,4.009172,-9.214998,6.5854077,141.90001,-150.90001,-29.1,x,,,,,
152972,-2.6719046,6.7458563,-1.6323322,3.940574,-8.72719,6.272906,125.100006,-158.1,-26.7,x,,,,,
152992,-1.7591385,6.2123127,-1.823738,3.6890478,-8.711946,6.219552,149.1,-158.1,-30.900002,x,,,,,
153032,-0.9378882,4.893408,-1.9020946,3.2774599,-6.6311398,4.9466777,117.9,-162.90001,-24.900002,x,,,,,
153052,0.10467502,4.600916,-2.8980026,3.7424018,-5.167716,4.794238,113.100006,-162.90001,-26.1,x,,,,,
153073,0.577208,4.0063615,-3.4506867,4.672286,-4.61131,4.679908,115.50001,-174.90001,-31.500002,x,,,,,
153095,1.3356533,4.3162,-3.5691192,4.23021,-6.455834,6.051868,103.50001,-162.90001,-25.500002,x,,,,,
153135,2.539715,5.672788,-3.773684,4.428382,-3.92533,6.9893737,81.9,-170.1,-24.900002,x,,,,,
153195,3.656448,9.3998165,-4.584766,3.041178,-0.40396598,5.091496,72.3,-167.70001,-26.7,x,,,,,
153215,3.8795552,10.655319,-5.1727405,2.957336,-0.083841994,3.8033779,65.100006,-155.70001,-17.1,x,,,,,
153235,2.857927,9.187476,-4.6338134,1.303362,-1.463424,-0.106708,67.5,-162.90001,-24.300001,x,,,,,
153259,1.9589182,6.7542305,-4.417286,2.606724,-0.007622,-2.7362978,69.9,-172.5,-17.1,,,,,,
153279,2.342926,7.8177285,-5.2983503,2.89636,0.251526,-0.731712,50.7,-174.90001,-27.300001,,,,,,
153301,2.179633,8.328543,-4.581775,1.692084,0.182928,-1.1280559,69.9,-177.3,-21.900002,,,,,,
153321,2.2185123,8.830384,-4.659534,1.280496,0.785066,-0.396344,65.100006,-170.1,-24.900002,,,,,,
153341,1.9894235,8.932667,-4.150514,0.137196,0.861286,-0.777444,69.9,-174.90001,-22.5,,,,,,
153361,1.953535,8.3309355,-4.023708,-0.548784,1.3719599,-0.907018,86.700005,-167.70001,-18.300001,,,,,,
153381,1.79084,8.14611,-3.8454611,-0.625004,1.303362,-0.34298998,74.700005,-170.1,-23.7,,,,,,
153401,1.9320018,8.661709,-3.6887476,-0.40396598,1.189032,0.03811,65.100006,-165.3,-23.7,,,,,,
153421,1.9756663,9.38606,-3.5864654,-0.28201398,1.158544,-0.221038,65.100006,-170.1,-19.5,,,,,,
153441,1.8303175,9.032557,-3.347208,-0.49543,1.44818,-1.18141,72.3,-174.90001,-21.900002,,,,,,
153461,1.7465775,8.698793,-3.3208897,-0.289636,1.745438,-1.288118,74.700005,-170.1,-14.700001,,,,,,
153482,1.5294516,8.507387,-3.1432414,-0.26677,1.974098,-1.1432999,69.9,-174.90001,-21.300001,,,,,,
153502,1.4756187,8.743055,-3.1958778,-0.19055,2.164648,-0.708846,81.9,-165.3,-18.900002,,,,,,
153524,1.434945,8.95121,-3.1982706,-0.34298998,2.164648,-0.46494198,77.100006,-167.70001,-20.1,,,,,,
153564,1.2190154,8.668288,-3.2329628,-1.036592,1.4024479,-1.166166,89.100006,-162.90001,-23.7,,,,,,
153584,1.2160246,8.709559,-3.1037638,-0.602138,0.731712,-0.792688,77.100006,-162.90001,-14.700001,,,,,,
153606,1.3440273,8.721522,-3.0529218,-0.632626,0.731712,-0.830798,69.9,-177.3,-13.500001,,,,,,
153626,1.3410366,8.80287,-2.9715743,-0.434454,0.60976,-0.579272,77.100006,-167.70001,-21.300001,,,,,,
153650,1.263278,9.067249,-3.0068648,-0.487808,0.640248,-0.95274997,89.100006,-172.5,-17.7,,,,,,
153670,1.3332607,8.687428,-3.062492,-0.510674,0.510674,-1.173788,91.5,-177.3,-20.7,,,,,,
153714,1.5551717,8.604286,-2.8896286,-0.594516,0.17530599,0.022866,91.5,-167.70001,-14.700001,,,,,,
153863,3.2628698,7.8787394,-6.3367267,-1.25763,3.635694,-2.614346,77.100006,-170.1,-17.1,,,,,,
153883,3.262272,7.019806,-5.8163424,-2.538126,2.408552,-3.460388,84.3,-172.5,-21.900002,,,,,,
153926,3.590054,6.7027903,-5.6668067,-3.7957559,4.5731997,-3.6661818,98.700005,-174.90001,-15.3,,,,,,
153967,2.8100758,6.0071497,-6.1883874,-3.6661818,3.7957559,-5.160094,96.3,-174.90001,-26.7,,,,,,
153987,1.9702829,6.0986657,-4.2527966,-6.66925,2.309466,-6.0594897,113.100006,-167.70001,-27.900002,x,,,,,
154007,1.3189052,4.8210325,-3.941164,-8.399444,5.8765616,-8.010722,120.3,-150.90001,-23.7,x,,,,,
154047,-0.9815526,3.0044723,-1.522872,-8.5899935,5.25918,-6.189064,127.50001,-150.90001,-27.900002,x,,,,,
154087,-1.9966012,7.425945,1.2321745,-11.257693,14.474177,-12.15709,137.1,-146.1,-26.7,x,,,,,
154107,-4.49983,7.9008703,0.6334334,-6.798824,17.599197,-14.504665,149.1,-138.90001,-29.1,x,,,,,
154127,-5.534019,11.161946,0.556273,-7.553402,16.570229,-10.571713,175.5,-146.1,-33.300003,x,,,,,
154169,-5.589646,9.51466,2.6497734,-5.9222937,14.885766,-9.801891,180.3,-148.5,-24.900002,x,,,,,
154189,-5.663816,10.651132,1.9750681,-4.580822,15.01534,-5.5793037,189.90001,-146.1,-28.500002,x,,,,,
154209,-6.4437943,12.933645,1.702913,-3.879598,13.247036,-3.1859958,187.5,-134.1,-26.7,x,,,,,
154229,-4.8640985,15.362704,1.5503865,-3.54423,8.224138,-3.147886,192.3,-129.3,-22.5,x,,,,,
154249,-5.419175,13.18666,3.5320342,-3.361302,5.03052,-6.21193,197.1,-134.1,-28.500002,x,,,,,
154271,-8.103043,13.145987,1.6227618,-0.434454,4.413138,-4.214966,201.90001,-122.100006,-29.1,x,,,,,
154291,-7.906852,17.584208,1.5862751,-2.606724,-1.9131219,0.11432999,209.1,-126.9,-29.1,x,,,,,
154311,-7.6197433,17.048868,3.3077307,-3.978684,-7.599134,-1.8826339,201.90001,-134.1,-21.300001,x,,,,,
154332,-8.48107,14.311767,3.9142475,-2.393308,-9.535122,0.07622,206.70001,-117.3,-29.1,x,,,,,
154352,-7.0012636,15.990156,3.694729,-0.983238,-12.400993,4.657042,197.1,-114.9,-21.300001,x,,,,,
154412,-4.6236453,11.945514,2.8597217,5.198204,-13.750088,7.5762677,185.1,-134.1,-35.100002,x,,,,,
154462,-4.3975472,9.256861,0.8003153,6.791202,-10.968058,4.984788,158.70001,-143.70001,-36.300003,x,,,,,
154483,-3.6797755,8.006144,-0.111852735,6.951264,-10.40403,4.9771657,151.5,-141.3,-36.300003,x,,,,,
154524,-2.5038264,6.898981,-0.8547463,6.379614,-9.5275,5.86894,149.1,-158.1,-33.9,x,,,,,
154544,-2.397357,6.081918,-0.80270785,5.480218,-8.445176,4.664664,141.90001,-146.1,-27.900002,x,,,,,
154564,-2.4446104,4.8593135,-1.6712115,6.318638,-5.670768,3.7805119,141.90001,-153.3,-30.300001,x,,,,,
154584,-1.8416822,4.5195684,-2.3315613,6.9588857,-6.1052217,5.0076537,125.100006,-148.5,-33.9,x,,,,,
154608,-0.62984455,5.397044,-2.2831118,6.471078,-7.4848037,6.5701637,125.100006,-146.1,-29.1,x,,,,,
154628,-0.33196935,5.7930145,-2.1898015,5.75461,-4.72564,5.5030837,125.100006,-167.70001,-31.500002,x,,,,,
154648,0.043664437,5.086608,-3.2664587,6.920776,-2.103672,4.222588,125.100006,-165.3,-28.500002,x,,,,,
154670,1.380514,5.395848,-3.831704,6.3719916,-3.376546,6.204308,113.100006,-172.5,-26.7,x,,,,,
154710,2.2872987,7.8057656,-3.0343792,3.056422,-1.097568,5.663146,108.3,-165.3,-26.7,x,,,,,
154730,2.556463,8.043228,-4.3365364,4.199722,2.40093,4.0015497,86.700005,-170.1,-23.7,x,,,,,
154770,4.2904797,10.411875,-4.3335457,1.089946,-2.7286758,3.12502,89.100006,-179.70001,-17.7,x,,,,,
154793,2.836992,7.5629196,-3.8771627,0.137196,-0.17530599,-1.3414719,84.3,-172.5,-22.5,x,,,,,
154813,2.2400453,6.171041,-4.0482316,1.211898,0.251526,-0.907018,84.3,-162.90001,-26.7,x,,,,,
154835,2.2017643,7.3075128,-4.4651375,1.67684,0.518296,1.013726,91.5,-177.3,-16.5,x,,,,,
154855,1.9014965,7.814738,-4.588953,2.2637339,-0.15244,0.746956,89.100006,-177.3,-24.300001,x,,,,,
154877,2.108454,8.573781,-4.145729,1.989342,-1.6463519,1.227142,74.700005,-167.70001,-18.300001,x,,,,,
154938,1.7980177,8.624025,-3.7844505,0.312502,1.288118,-0.983238,72.3,-162.90001,-27.900002,x,,,,,
154958,1.7005205,9.091773,-3.5296416,1.036592,0.975616,-0.053354,98.700005,-165.3,-23.1,x,,,,,
154978,1.53962,9.139625,-3.2652624,0.541162,1.227142,0.22865999,81.9,-170.1,-19.5,,,,,,
154998,1.6341265,8.957789,-3.1934853,0.80793196,1.8750119,0.365856,69.9,-167.70001,-20.1,,,,,,
155020,1.6562579,9.121082,-3.091203,0.754578,2.027452,0.434454,89.100006,-172.5,-17.1,,,,,,
155101,0.9660009,8.687428,-3.1408486,0.099086,1.71495,-0.83842,84.3,-162.90001,-17.7,,,,,,
155199,1.2710538,8.932069,-3.2443275,-0.358234,0.72409,-0.99086,89.100006,-155.70001,-14.700001,,,,,,
155244,1.2626798,8.545669,-3.171354,-0.94512796,0.045732,-1.425314,89.100006,-170.1,-24.900002,,,,,,
155264,1.2118376,8.728701,-3.100773,-0.99086,-0.19055,-0.967994,79.5,-165.3,-17.1,,,,,,
155304,0.8350076,8.568398,-3.2323647,-0.518296,-0.868908,-0.617382,98.700005,-170.1,-13.500001,,,,,,
155324,0.8631203,8.952406,-3.317301,0.083841994,-1.8369019,0.03811,84.3,-170.1,-20.7,,,,,,
155367,1.6975298,9.261645,-3.222196,-0.160062,-3.452766,0.46494198,89.100006,-170.1,-20.1,,,,,,
155388,2.1287909,9.174915,-3.1689615,-1.051836,-2.919226,0.297258,89.100006,-172.5,-22.5,,,,,,
155408,2.3710387,9.03794,-3.610989,-1.920744,-1.074702,-0.373478,91.5,-172.5,-26.7,,,,,,
155428,2.0103586,8.3423,-4.0320816,-2.195136,0.03811,-1.6158639,98.700005,-158.1,-20.7,x,,,,,
155450,1.6789873,8.124576,-5.0178213,-2.13416,1.8445239,-2.187514,86.700005,-170.1,-20.7,x,,,,,
155470,1.4929649,7.6430707,-5.8761563,-1.3719599,3.6966698,-3.54423,98.700005,-158.1,-17.7,x,,,,,
155490,2.2478213,6.8284,-6.596919,-1.189032,3.08691,-4.390272,98.700005,-158.1,-20.7,x,,,,,
155513,2.6832693,6.7332954,-6.270333,-2.187514,0.853664,-3.971062,98.700005,-170.1,-20.1,x,,,,,
155533,2.4320493,7.0180116,-5.827109,-2.606724,3.361302,-5.29729,103.50001,-167.70001,-23.1,x,,,,,
155553,2.7161672,7.0562925,-6.4061112,-2.2408679,4.5579557,-7.042728,101.100006,-162.90001,-30.900002,x,,,,,
155577,1.6448932,5.016625,-5.0716543,-4.397894,3.08691,-9.740916,125.100006,-160.5,-29.1,x,,,,,
155597,0.029309006,3.3023474,-3.8604147,-4.4360037,4.870458,-10.686044,132.3,-162.90001,-21.900002,x,,,,,
155617,-1.0078709,3.015837,-3.7419825,-3.605206,6.676872,-9.45128,127.50001,-153.3,-23.7,x,,,,,
155637,-1.3769251,3.8933127,-2.978154,-4.390272,4.53509,-6.981752,134.70001,-158.1,-20.7,x,,,,,
155657,-1.1418549,5.2397323,-0.7787821,-6.905532,1.18141,-6.3719916,153.90001,-146.1,-26.7,x,,,,,
155677,-1.0449557,4.780359,1.9445628,-6.74547,6.341504,-7.92688,173.1,-148.5,-20.1,x,,,,,
155700,-3.907668,5.7128634,-0.3283805,-5.3354,19.314148,-8.186028,168.3,-143.70001,-22.5,x,,,,,
155720,-4.3502936,8.046219,-1.6096027,-2.660078,16.966572,-6.44059,177.90001,-150.90001,-27.300001,x,,,,,
155740,-3.588858,11.000447,0.2966789,-3.422278,7.0808377,-5.838452,185.1,-141.3,-24.300001,x,,,,,
155783,-6.1393394,11.584235,-0.5652451,-1.94361,24.588572,-9.230242,175.5,-129.3,-30.300001,x,,,,,
155803,-5.995187,15.76346,0.15970418,-3.54423,9.230242,-6.181442,194.70001,-122.100006,-18.300001,x,,,,,
155823,-5.468821,16.167206,2.1467352,-3.6585598,7.66011,-5.121984,197.1,-129.3,-18.900002,x,,,,,
155843,-6.09089,15.999726,1.4331505,-2.888738,8.68908,-4.603688,192.3,-129.3,-17.1,x,,,,,
155904,-6.3026323,16.363398,0.019140575,-1.4024479,-4.53509,-0.312502,199.50002,-126.9,-24.300001,x,,,,,
155924,-6.369026,15.034922,-0.40374652,-1.173788,-6.981752,0.94512796,199.50002,-122.100006,-18.900002,x,,,,,
155946,-4.681665,15.67972,-0.074169725,-0.625004,-11.021412,5.076252,197.1,-126.9,-18.300001,x,,,,,
155966,-4.021315,14.558202,1.0724703,-1.41007,-12.644897,6.36437,189.90001,-122.100006,-28.500002,x,,,,,
155990,-3.9369771,12.695584,1.5593587,-0.846042,-11.6845255,8.010722,189.90001,-138.90001,-27.300001,x,,,,,
156010,-3.8885274,11.85639,1.4929649,0.373478,-11.722635,9.268352,192.3,-122.100006,-29.7,x,,,,,
156030,-3.3699374,11.1278515,1.9056835,0.94512796,-13.384232,9.306461,168.3,-138.90001,-30.300001,x,,,,,
156114,-2.894414,8.0175085,-0.18123733,3.39179,-8.452798,7.644866,151.5,-158.1,-32.100002,x,,,,,
156140,-2.6252494,6.873261,-0.27873462,2.911604,-8.285114,5.4421077,139.5,-158.1,-35.100002,x,,,,,
156160,-1.9858347,5.8474455,-1.267465,3.7424018,-6.6158957,4.87808,129.90001,-150.90001,-33.300003,x,,,,,
156200,-0.773997,5.684751,-1.6000324,3.84911,-6.829312,5.762232,129.90001,-160.5,-29.7,x,,,,,
156220,-0.0035888578,6.5287304,-1.9290111,3.978684,-6.242418,5.282046,125.100006,-153.3,-26.7,x,,,,,
156240,0.9654028,6.880439,-2.3106263,4.314052,-4.893324,3.6585598,110.700005,-170.1,-26.1,x,,,,,
156260,0.97796375,6.1644616,-2.627044,4.131124,-3.8186219,2.035074,103.50001,-172.5,-32.100002,x,,,,,
156280,0.71896785,5.2403307,-3.0116498,4.275942,-2.111294,1.539644,113.100006,-165.3,-32.100002,x,,,,,
156304,1.6155841,7.162762,-4.1259904,5.10674,-2.6829438,5.403998,101.100006,-165.3,-21.900002,x,,,,,
156324,1.8979076,8.2663355,-3.9943988,4.169234,-3.2088618,5.7165,110.700005,-172.5,-25.500002,x,,,,,
156345,1.5755086,8.13295,-3.756338,2.82014,0.0,1.280496,105.9,-179.70001,-27.900002,x,,,,,
156365,1.4487023,7.590434,-4.745068,4.1921,0.830798,0.449698,96.3,-160.5,-25.500002,,,,,,
156388,1.2740445,7.9331703,-4.8132563,3.109776,-1.44818,1.417692,93.9,-167.70001,-25.500002,,,,,,
156408,1.3625697,8.540883,-4.391566,2.621968,-2.36282,1.75306,103.50001,-174.90001,-26.1,,,,,,
156450,1.7136797,9.156971,-4.4190803,2.2561119,-1.150922,1.3490939,93.9,-160.5,-23.7,,,,,,
156474,1.4672447,8.479873,-4.118214,1.211898,-0.434454,-0.144818,84.3,-170.1,-20.7,,,,,,
156514,1.3870935,8.805263,-4.091298,0.983238,0.182928,-0.198172,86.700005,-167.70001,-22.5,,,,,,
156537,1.2333708,8.597707,-4.0231094,1.074702,0.28201398,-0.586894,84.3,-174.90001,-24.300001,,,,,,
156557,1.4026452,9.182093,-3.7246363,0.510674,-0.030488,-0.03811,96.3,-170.1,-21.900002,,,,,,
156577,1.0784518,8.732289,-3.4088168,-0.312502,0.785066,-0.82317597,86.700005,-170.1,-23.7,,,,,,
156640,0.7943339,9.13125,-3.5780911,0.47256398,1.1356779,-0.19055,81.9,-162.90001,-21.300001,,,,,,
156683,0.681883,8.747243,-3.5858672,0.160062,1.089946,0.213416,96.3,-172.5,-20.1,,,,,,
156703,0.93370116,8.83517,-3.4656403,-0.015244,0.746956,0.80030996,86.700005,-167.70001,-17.7,,,,,,
156746,1.3015591,9.064857,-3.1522136,-0.785066,0.442076,1.059458,89.100006,-165.3,-21.300001,,,,,,
156766,1.4756187,8.720924,-3.0929973,-1.036592,0.632626,0.80793196,96.3,-165.3,-17.7,,,,,,
156806,1.5276572,8.817823,-2.8896286,-0.891774,-0.160062,0.731712,86.700005,-162.90001,-18.300001,,,,,,
156828,1.5767049,8.743055,-2.8728807,-1.021348,-0.480186,0.11432999,93.9,-174.90001,-22.5,,,,,,
156848,1.6209675,8.607277,-3.012248,-0.95274997,-0.87653,-0.487808,86.700005,-167.70001,-24.300001,,,,,,
156871,1.8530469,8.366226,-3.0505292,-0.792688,-0.975616,-0.82317597,79.5,-165.3,-18.300001,,,,,,
156891,1.8392897,8.73528,-3.5709136,-1.6463519,0.26677,-1.089946,96.3,-170.1,-21.300001,,,,,,
156911,1.4481041,8.2663355,-4.39336,-1.9054999,1.585376,-2.301844,91.5,-172.5,-27.300001,,,,,,
156993,3.4034336,9.325048,-6.5610304,-2.2484899,-0.617382,-2.530504,98.700005,-165.3,-21.300001,,,,,,
157043,3.8053856,8.5576315,-4.853332,-4.161612,4.275942,-5.64028,91.5,-162.90001,-24.900002,x,,,,,
157063,3.480594,7.2070246,-4.5285406,-4.672286,5.83083,-7.522914,120.3,-167.70001,-24.300001,x,,,,,
157105,2.154511,5.494541,-3.221,-5.44973,8.429932,-9.1159115,117.9,-158.1,-21.900002,x,,,,,
157147,-0.27036062,2.9057786,-2.4200864,-5.739366,12.065626,-11.01379,132.3,-155.70001,-17.7,x,,,,,
157167,-1.6419024,2.368048,-2.5821831,-4.03966,13.49094,-9.992442,149.1,-150.90001,-15.900001,x,,,,,
157187,-2.3913755,3.217411,-2.3327575,-2.7972739,11.654037,-8.208894,161.1,-150.90001,-21.300001,x,,,,,
157230,-3.526651,5.334239,0.25660333,-1.539644,13.559538,-8.932983,173.1,-146.1,-21.300001,x,,,,,
157252,-4.17444,6.7470527,-1.6096027,0.396344,15.960467,-6.8674216,182.70001,-131.70001,-26.1,x,,,,,
157273,-3.8329,9.981212,-1.3835047,-1.41007,10.6708,-4.504602,182.70001,-131.70001,-23.1,x,,,,,
157293,-4.6403933,10.694797,0.8643166,-1.98172,9.024447,-6.272906,180.3,-126.9,-14.700001,x,,,,,
157336,-4.122401,12.733268,-0.14235802,-3.338436,11.997027,-6.28815,187.5,-126.9,-18.300001,x,,,,,
157357,-5.6662083,14.188549,-0.18362989,-2.500016,9.748538,-6.112844,189.90001,-131.70001,-14.700001,x,,,,,
157377,-5.383885,16.336481,-0.6753034,-3.521364,5.853696,-4.9009457,192.3,-124.50001,-13.500001,x,,,,,
157397,-5.0220084,15.652205,0.77758586,-4.336918,1.821658,-5.3658876,197.1,-124.50001,-19.5,x,,,,,
157418,-8.780141,16.657085,-0.85355,-1.097568,1.56251,-2.05794,199.50002,-119.700005,-12.900001,x,,,,,
157438,-8.230447,18.776905,-0.690257,-3.01069,-5.236314,1.509156,192.3,-134.1,-16.5,x,,,,,
157458,-7.1525936,16.972904,1.4140099,-3.117398,-9.786648,1.3948259,192.3,-117.3,-27.900002,x,,,,,
157478,-7.4953294,15.063633,1.4905723,-0.868908,-9.382682,4.184478,197.1,-141.3,-17.7,x,,,,,
157498,-6.830793,14.72628,0.778184,0.35061198,-10.343054,7.134192,201.90001,-124.50001,-24.900002,x,,,,,
157518,-5.5148783,14.466686,1.1071626,1.082324,-12.301908,9.245486,187.5,-119.700005,-27.300001,x,,,,,
157538,-4.4023323,13.488124,1.0987886,2.187514,-11.997027,9.67994,192.3,-129.3,-26.7,x,,,,,
157558,-3.920229,12.28167,0.8696999,2.7286758,-11.425378,8.772922,180.3,-143.70001,-30.900002,x,,,,,
157578,-3.8131614,10.185179,0.31223062,3.475632,-10.259212,7.58389,185.1,-138.90001,-28.500002,x,,,,,
157598,-3.4530795,8.42903,-0.3062492,3.528986,-8.963471,7.0351057,170.70001,-146.1,-27.900002,x,,,,,
157621,-3.1869059,7.3368216,-1.2363615,4.26832,-8.376577,6.93602,168.3,-143.70001,-30.900002,x,,,,,
157641,-2.5708184,6.979132,-1.501937,4.0472817,-9.275973,7.339986,149.1,-143.70001,-24.300001,x,,,,,
157663,-1.9690866,6.978534,-1.2441374,2.332332,-10.1982355,7.0655937,144.3,-167.70001,-23.7,x,,,,,
157683,-1.7693069,6.03287,-1.4612633,1.6463519,-7.721086,4.9466777,137.1,-153.3,-33.9,x,,,,,
157703,-1.4618614,4.1923842,-2.3776183,2.301844,-5.9680257,3.2469718,125.100006,-155.70001,-20.1,x,,,,,
157723,-0.72435117,3.401639,-3.008061,2.97258,-7.797306,4.359784,125.100006,-158.1,-35.100002,x,,,,,
157743,-0.85833514,3.107951,-2.7999072,3.948196,-7.759196,5.266802,129.90001,-165.3,-29.1,x,,,,,
157764,0.30565107,5.0692616,-2.7508595,4.61131,-10.000064,7.667732,125.100006,-172.5,-27.900002,x,,,,,
157784,0.72076225,6.1776204,-2.01634,3.7271578,-7.8887696,6.6006517,122.700005,-167.70001,-26.7,x,,,,,
157804,1.1448456,6.105245,-2.8417773,3.643316,-4.03966,4.9161897,113.100006,-174.90001,-25.500002,x,,,,,
157826,1.4253747,6.894196,-3.091203,3.490876,-3.452766,4.809482,113.100006,-170.1,-23.7,x,,,,,
157846,1.5952473,8.379385,-3.262272,3.170752,-2.484772,4.4969797,110.700005,-167.70001,-20.1,x,,,,,
157866,1.6383137,8.768776,-3.6582425,2.599102,-1.6158639,2.7515419,96.3,-162.90001,-27.300001,x,,,,,
157886,1.6436969,8.428432,-3.6367092,2.164648,-1.272874,1.318606,98.700005,-177.3,-24.300001,,,,,,
157950,1.0264133,8.182596,-4.655347,2.446662,0.11432999,-0.373478,105.9,-167.70001,-19.5,,,,,,
157990,1.0515354,9.042726,-4.7301145,1.8902559,-0.7622,0.49543,93.9,-160.5,-25.500002,,,,,,
158010,1.0832369,8.950013,-4.7600217,1.432936,-0.510674,-0.053354,96.3,-177.3,-21.300001,,,,,,
158030,1.0108616,8.624623,-4.48368,1.3643379,-0.716468,-0.129574,101.100006,-170.1,-20.7,,,,,,
158072,0.96839345,9.198242,-4.1517105,0.487808,0.221038,0.663114,108.3,-160.5,-27.900002,,,,,,
158092,0.8858497,9.051698,-3.8358908,-0.045732,0.632626,0.28201398,86.700005,-172.5,-15.3,,,,,,
158116,0.60651696,8.5678,-3.6869533,-0.22865999,1.417692,-0.106708,96.3,-167.70001,-23.1,,,,,,
158136,0.79134315,8.732887,-3.648672,0.060976,1.25763,0.11432999,108.3,-165.3,-21.900002,,,,,,
158156,0.8714943,9.012818,-3.3208897,-0.137196,0.594516,0.358234,79.5,-167.70001,-23.1,,,,,,
158219,1.0449557,8.698793,-3.095988,-0.716468,0.57164997,-0.35061198,84.3,-167.70001,-18.900002,,,,,,
158247,1.2955776,8.588735,-2.874077,-0.274392,0.53354,0.23628199,81.9,-167.70001,-21.900002,,,,,,
158288,1.5701253,8.921303,-3.0313885,-0.083841994,0.45731997,0.320124,93.9,-158.1,-23.7,,,,,,
158308,1.6060139,8.823805,-3.1462321,-0.30488,0.56402797,-0.16768399,91.5,-167.70001,-24.900002,,,,,,
158349,2.652764,9.213795,-3.6893458,-1.471046,1.1356779,-1.798792,96.3,-167.70001,-18.300001,,,,,,
158419,2.3453186,7.830888,-4.9227166,-3.16313,1.18141,-4.9009457,105.9,-155.70001,-15.3,,,,,,
158439,2.179035,7.217193,-5.03756,-2.911604,2.01983,-5.4421077,108.3,-172.5,-17.7,,,,,,
158479,3.2742345,8.282486,-5.1398425,-2.606724,2.416174,-3.109776,105.9,-158.1,-25.500002,,,,,,
158501,3.6516628,9.235926,-5.4658303,-2.93447,5.236314,-3.7195358,113.100006,-167.70001,-24.900002,x,,,,,
158521,3.5966337,8.853712,-5.7266207,-3.361302,6.608274,-5.137228,129.90001,-162.90001,-25.500002,x,,,,,
158542,2.5169857,6.706379,-5.3354354,-4.80186,9.596098,-7.789684,120.3,-160.5,-26.1,x,,,,,
158562,2.0546212,5.6069922,-5.602207,-4.146368,10.78513,-8.506152,125.100006,-153.3,-25.500002,x,,,,,
158582,0.92054206,5.1344595,-4.7552366,-4.809482,8.795788,-8.788166,129.90001,-155.70001,-28.500002,x,,,,,
158602,0.04605701,4.858117,-3.5583525,-4.61131,8.6814575,-8.872007,144.3,-148.5,-26.1,x,,,,,
158622,-0.73691213,4.0219135,-2.6766899,-5.3963757,9.664696,-10.182992,161.1,-143.70001,-18.300001,x,,,,,
158642,-2.5474908,2.2268863,-1.2441374,-5.5793037,10.632689,-10.983302,161.1,-143.70001,-19.5,x,,,,,
158662,-3.0577068,4.0476336,-1.347018,-3.841488,13.22417,-8.064075,168.3,-134.1,-22.5,x,,,,,
158683,-6.0609827,5.0716543,-0.7692119,-5.3354,13.7577095,-8.361334,180.3,-146.1,-16.5,x,,,,,
158703,-5.1535997,7.4032154,-0.85414815,-1.958854,10.480249,-4.237832,180.3,-124.50001,-18.300001,x,,,,,
158723,-3.137858,12.298418,3.16298,-7.3628516,5.769854,-3.536608,189.90001,-122.100006,-18.300001,x,,,,,
158743,-5.016625,9.375891,1.4379357,-6.0137577,17.629686,-11.227205,194.70001,-141.3,-21.300001,x,,,,,
158786,-6.79311,12.060357,0.31761393,-4.0320377,5.586926,-1.966476,199.50002,-117.3,-25.500002,x,,,,,
158806,-3.8861349,15.2849455,2.5259578,-5.86894,4.61131,-2.614346,194.70001,-119.700005,-21.900002,x,,,,,
158826,-5.150011,12.508964,2.7227468,-4.321674,2.7591639,-4.489358,211.50002,-124.50001,-20.7,x,,,,,
158846,-7.726213,11.2139845,2.2914858,-1.684462,2.7972739,-1.1280559,206.70001,-126.9,-20.7,x,,,,,
158869,-4.1762342,16.656487,2.0474434,-0.731712,1.25763,3.2241058,192.3,-126.9,-21.900002,x,,,,,
158889,-4.3413215,16.230011,1.7274369,-1.493912,-0.716468,1.798792,194.70001,-117.3,-17.1,x,,,,,
158909,-6.915131,14.488219,1.4564781,0.853664,-2.301844,2.05794,199.50002,-122.100006,-17.1,x,,,,,
158929,-7.4923387,15.70544,-0.53892684,2.126538,-2.919226,3.932952,187.5,-122.100006,-20.1,x,,,,,
158949,-6.5071974,16.96513,-0.37383935,1.425314,-8.849142,4.5731997,185.1,-129.3,-21.300001,x,,,,,
158972,-6.668098,14.111987,-0.59754485,1.71495,-11.692148,6.318638,180.3,-134.1,-23.7,x,,,,,
158993,-5.568113,13.673549,-0.72076225,1.8673899,-13.864418,8.53664,187.5,-136.5,-18.900002,x,,,,,
159013,-3.8508444,13.368495,-0.5909653,1.94361,-14.512288,9.321706,177.90001,-131.70001,-27.300001,x,,,,,
159036,-3.175541,12.264323,-0.027514577,1.8521459,-15.083938,9.466524,170.70001,-143.70001,-23.1,x,,,,,
159077,-2.7490652,10.152879,-0.94087887,3.490876,-11.615928,5.823208,141.90001,-143.70001,-27.300001,x,,,,,
159139,-1.9128612,7.3834767,-1.3458217,2.088428,-8.894874,3.8262439,151.5,-148.5,-29.1,x,,,,,
159160,-2.0277047,6.413289,-1.6197711,1.425314,-6.70736,3.147886,137.1,-148.5,-29.1,x,,,,,
159180,-1.7555497,5.1356554,-2.2663636,1.8292799,-5.625036,2.62959,141.90001,-150.90001,-25.500002,x,,,,,
159201,-1.263278,4.137355,-2.3656554,2.7820299,-7.0808377,3.7805119,125.100006,-167.70001,-24.300001,x,,,,,
159222,-1.033591,4.2527966,-2.2029605,3.407034,-7.1113257,5.724122,127.50001,-160.5,-30.300001,x,,,,,
159242,-0.18422803,5.383885,-2.359674,3.7195358,-6.32626,6.806446,125.100006,-167.70001,-29.1,x,,,,,
159262,0.5526841,6.288277,-2.7048025,3.92533,-5.22107,6.4329677,120.3,-160.5,-35.7,x,,,,,
159284,0.85235375,6.270931,-2.9003952,3.6966698,-4.5122237,5.5488157,113.100006,-162.90001,-24.300001,x,,,,,
159304,1.1310884,5.9269986,-2.9984908,3.2469718,-4.100636,6.13571,103.50001,-160.5,-29.1,x,,,,,
159326,2.104267,7.010236,-3.0421553,2.7286758,-3.7728899,7.987856,89.100006,-170.1,-23.1,x,,,,,
159387,2.4984431,8.522939,-3.8687887,2.2408679,0.129574,2.103672,84.3,-179.70001,-26.1,,,,,,
159407,2.5301447,8.621633,-3.785647,2.17227,-0.388722,1.3567159,72.3,-182.1,-26.1,,,,,,
159427,2.715569,9.028968,-4.1355605,2.599102,0.053354,0.449698,67.5,-172.5,-22.5,,,,,,
159511,1.6945391,8.133548,-4.596729,0.87653,-0.81555396,-1.6311079,93.9,-184.5,-16.5,,,,,,
159567,1.5910603,8.90934,-3.7922266,-0.449698,0.53354,0.221038,84.3,-177.3,-24.300001,,,,,,
159607,1.74897,8.839955,-3.0672772,-0.95274997,0.891774,0.510674,81.9,-160.5,-20.7,,,,,,
159744,1.6885576,8.74485,-2.9225266,0.129574,-0.34298998,-0.72409,81.9,-165.3,-20.1,,,,,,
159765,1.6586505,8.715541,-2.7753835,-0.182928,-0.518296,-0.739334,69.9,-177.3,-23.1,,,,,,
159805,1.2477262,8.695205,-3.2066445,-0.106708,-0.45731997,-0.769822,86.700005,-165.3,-20.1,,,,,,
159825,1.3356533,9.283179,-3.2299721,0.23628199,-0.884152,-0.792688,77.100006,-165.3,-21.900002,,,,,,
159867,1.3661586,8.755617,-2.8477588,-0.083841994,-1.1128119,-1.166166,89.100006,-174.90001,-21.900002,,,,,,
159887,1.3039516,8.628212,-2.8914232,-0.20579399,-0.830798,-1.036592,91.5,-162.90001,-21.300001,,,,,,
159909,1.121518,8.535501,-3.2700477,-0.015244,-0.442076,-0.655492,91.5,-167.70001,-19.5,,,,,,
159929,1.2555021,9.250879,-3.1898966,0.045732,-0.68597996,-0.396344,91.5,-170.1,-23.1,x,,,,,
159949,1.5282553,9.164148,-3.5798857,-1.1432999,0.449698,-1.196654,91.5,-170.1,-29.7,x,,,,,
159970,1.2453337,8.482863,-4.150514,-1.48629,1.806414,-1.996964,93.9,-174.90001,-18.900002,x,,,,,
159990,0.933103,7.7800455,-4.638599,-0.80030996,2.378064,-2.446662,96.3,-167.70001,-21.300001,x,,,,,
160030,1.6658282,8.213101,-5.996383,-0.708846,4.169234,-2.317088,93.9,-162.90001,-24.300001,x,,,,,
160106,2.4900692,7.3792896,-5.489756,-4.4360037,7.3780956,-7.820172,108.3,-165.3,-20.1,x,,,,,
160127,1.7705032,6.0334682,-4.9011836,-4.893324,8.46042,-9.009204,113.100006,-162.90001,-20.1,x,,,,,
160171,0.56464696,4.559046,-2.9817426,-6.379614,10.144882,-12.553433,137.1,-158.1,-25.500002,x,,,,,
160191,-0.43784064,4.1265883,-2.6198661,-4.5427117,11.936051,-13.826307,139.5,-148.5,-29.7,x,,,,,
160213,-1.3954675,3.381302,-1.9936105,-6.4786997,12.469592,-12.713495,153.90001,-150.90001,-25.500002,x,,,,,
160233,-1.6137897,3.8131614,-1.7770828,-5.3354,13.193682,-10.6631775,156.3,-153.3,-22.5,x,,,,,
160253,-1.3900843,5.0949817,-1.4648521,-5.4116197,11.250072,-9.382682,173.1,-141.3,-26.1,x,,,,,
160273,-3.3795078,4.3700323,-0.23925719,-4.9009457,12.7058735,-9.710428,185.1,-141.3,-23.7,x,,,,,
160293,-3.526651,6.5568433,-1.5001426,-2.507638,14.420824,-6.3719916,182.70001,-136.5,-21.300001,x,,,,,
160353,-6.145919,11.697284,-0.33316565,-2.926848,16.326324,-7.157058,197.1,-126.9,-30.300001,x,,,,,
160403,-7.4947314,15.352535,1.1891083,-3.475632,7.0808377,-4.53509,213.90001,-112.50001,-16.5,x,,,,,
160424,-7.9684606,16.356817,-0.32060462,-2.55337,4.641798,-3.62045,197.1,-110.100006,-18.900002,x,,,,,
160464,-7.379888,16.905315,1.4720298,-2.13416,-3.932952,-0.617382,211.50002,-110.100006,-21.900002,x,,,,,
160484,-8.182596,15.810115,1.1771454,-1.707328,-5.9527817,0.983238,216.3,-114.9,-23.7,x,,,,,
160504,-7.291363,15.794563,1.2226043,-0.739334,-9.550365,3.589962,201.90001,-117.3,-30.300001,x,,,,,
160524,-5.44669,15.791573,1.7711014,-0.312502,-11.570196,5.5335717,230.70001,-126.9,-24.300001,x,,,,,
160548,-4.9753532,14.790281,2.079145,1.059458,-11.829344,6.5244317,189.90001,-126.9,-20.1,x,,,,,
160568,-5.476597,12.815811,1.606612,2.812518,-11.455866,6.93602,204.3,-131.70001,-21.300001,x,,,,,
160592,-3.8305075,11.618329,1.187912,4.138746,-13.064108,9.192132,192.3,-131.70001,-28.500002,x,,,,,
160612,-3.459061,10.892183,0.38520408,4.580822,-11.669282,9.306461,189.90001,-129.3,-25.500002,x,,,,,
160632,-4.1092424,9.919603,-0.029309006,4.4817357,-11.417756,8.468041,168.3,-150.90001,-25.500002,x,,,,,
160654,-3.347208,9.37948,-1.3607752,5.5183277,-10.55647,7.896392,177.90001,-150.90001,-31.500002,x,,,,,
160674,-2.8854418,8.214297,-1.117331,4.786616,-13.125084,7.103704,161.1,-150.90001,-28.500002,x,,,,,
160694,-2.6677177,6.9719543,-0.7129864,4.291186,-11.623549,6.798824,158.70001,-143.70001,-18.300001,x,,,,,
160715,-2.1772404,6.2476034,-0.8876442,3.483254,-9.75616,6.5396757,156.3,-153.3,-22.5,x,,,,,
160735,-2.1880069,5.2929673,-1.0174412,2.36282,-8.437553,5.52595,149.1,-150.90001,-27.900002,x,,,,,
160755,-2.2932801,3.9262104,-1.3960657,2.538126,-5.83083,4.131124,144.3,-162.90001,-29.7,x,,,,,
160775,-2.0450509,3.6325223,-2.6049128,3.894842,-3.2317278,3.993928,139.5,-153.3,-27.300001,x,,,,,
160795,-1.3882898,4.530933,-3.514688,4.443626,-7.0960817,6.051868,137.1,-177.3,-35.7,x,,,,,
160819,-1.0904146,5.534617,-1.9481517,3.6814258,-8.475664,6.181442,127.50001,-160.5,-29.7,x,,,,,
160839,-0.4360462,6.330745,-2.0923042,3.2622159,-5.5183277,5.190582,122.700005,-160.5,-27.300001,x,,,,,
