time,sensor_accX,sensor_accY,sensor_accZ,sensor_gyroX,sensor_gyroY,sensor_gyroZ,sensor_magX,sensor_magY,sensor_magZ,label_Boxing_slip_left,label_Boxing_slip_right,label_Boxing_pullback,label_Boxing_roll_left,label_Boxing_roll_right,label_Boxing_recording_cut
271389,1.9720774,8.351871,-2.6593437,-1.3414719,-0.297258,1.1051899,105.9,-148.5,-19.5,,,,,,
271409,1.8626173,8.38417,-2.5923517,-1.036592,-0.274392,1.265252,103.50001,-167.70001,-24.300001,,,,,,
271430,1.5868733,9.082801,-2.857927,-0.69360197,0.17530599,1.33385,103.50001,-162.90001,-24.300001,,,,,,
271450,1.7304276,10.8682575,-3.3065343,-0.28201398,0.35061198,1.684462,103.50001,-158.1,-20.7,,,,,,
271471,1.6891557,11.42154,-3.6432889,-1.234764,-0.586894,0.434454,91.5,-167.70001,-24.900002,,,,,,
271534,0.3200065,9.821507,-2.535528,-1.021348,-0.41921,1.3719599,110.700005,-167.70001,-21.300001,,,,,,
271603,-0.061608724,9.249084,-1.7459793,-1.242386,0.091464,-1.6234859,113.100006,-167.70001,-23.7,,,,,,
271705,-0.8906349,8.858498,-1.7047075,0.16768399,1.722572,0.030488,115.50001,-167.70001,-29.1,,,,,,
271725,-0.815867,9.301124,-1.740596,0.487808,1.493912,0.55640596,113.100006,-162.90001,-24.300001,,,,,,
271765,-0.7315289,9.516455,-2.1981754,0.327746,0.327746,0.091464,105.9,-167.70001,-24.900002,,,,,,
271823,0.046655152,9.868761,-1.7340164,0.182928,-1.051836,-0.56402797,110.700005,-160.5,-31.500002,,,,,,
271843,0.009570288,9.654626,-1.9272166,-0.40396598,-0.15244,-1.150922,113.100006,-162.90001,-26.1,,,,,,
271887,-0.061010584,9.069642,-2.431451,0.716468,0.099086,-0.388722,103.50001,-170.1,-23.1,,,,,,
271907,-0.12501188,8.650942,-2.5666316,1.082324,0.144818,0.198172,110.700005,-165.3,-24.900002,,,,,,
271929,0.2895012,9.231739,-2.6515677,1.3719599,-0.259148,1.1051899,113.100006,-170.1,-28.500002,,,,,,
271949,0.5347398,9.630102,-2.7783742,0.69360197,0.03811,1.082324,96.3,-158.1,-21.300001,,,,,,
271970,0.49645868,9.2706175,-2.8818529,0.060976,0.144818,0.754578,103.50001,-172.5,-29.1,,,,,,
271991,0.68128484,9.064857,-2.832207,-0.182928,-0.03811,0.861286,101.100006,-170.1,-26.7,,,,,,
272011,0.7183697,9.142017,-2.7628224,-0.274392,-0.007622,0.960372,91.5,-167.70001,-18.900002,,,,,,
272071,0.593956,9.3782835,-2.8435717,-0.426832,-0.289636,-0.213416,96.3,-155.70001,-24.300001,,,,,,
272122,0.64120924,9.310096,-2.515191,-0.625004,-0.28201398,-0.449698,101.100006,-167.70001,-18.900002,,,,,,
272142,0.6501814,9.362134,-2.4924617,-0.785066,-0.160062,-0.41921,110.700005,-162.90001,-20.7,,,,,,
272183,0.3493155,9.067847,-2.4619565,-1.021348,0.57164997,-0.182928,101.100006,-167.70001,-20.1,,,,,,
272204,0.31522134,9.33761,-2.4930599,-0.899396,0.56402797,0.083841994,96.3,-167.70001,-29.1,,,,,,
272224,0.16927446,8.975734,-2.2867005,-0.899396,0.47256398,-0.083841994,98.700005,-162.90001,-26.7,,,,,,
272245,0.38161522,9.277198,-2.3650572,-0.72409,0.099086,0.22865999,105.9,-167.70001,-19.5,,,,,,
272305,0.46415895,9.251477,-2.2226992,-0.243904,0.22865999,-0.15244,93.9,-160.5,-17.7,,,,,,
272325,0.4091298,9.252075,-2.2394474,-0.17530599,0.35061198,-0.144818,105.9,-160.5,-27.900002,,,,,,
272345,0.4133168,9.063661,-2.2657657,-0.144818,0.46494198,-0.20579399,108.3,-162.90001,-15.900001,,,,,,
272367,0.4372425,9.145008,-2.3417296,0.137196,0.81555396,-0.11432999,101.100006,-172.5,-25.500002,,,,,,
272387,0.26677176,9.407593,-2.6390069,0.221038,0.983238,-0.221038,105.9,-165.3,-23.1,,,,,,
272408,0.37802637,9.230542,-2.556463,0.213416,0.792688,-0.289636,101.100006,-162.90001,-21.900002,,,,,,
272428,0.25959405,9.04751,-2.552874,0.045732,0.868908,0.320124,105.9,-177.3,-22.5,,,,,,
272450,0.28232348,9.300525,-2.6754935,-0.19055,0.57164997,0.708846,108.3,-155.70001,-19.5,,,,,,
272470,0.3774282,9.287366,-2.5618463,-0.320124,0.312502,0.746956,110.700005,-170.1,-17.1,,,,,,
272493,0.5490953,9.392041,-2.6252494,-0.46494198,0.144818,0.3811,89.100006,-167.70001,-21.900002,,,,,,
272513,0.6573591,9.039137,-2.4990413,-0.617382,0.106708,0.17530599,93.9,-158.1,-28.500002,,,,,,
272534,0.7333233,9.02837,-2.4882748,-0.320124,0.30488,0.312502,103.50001,-158.1,-25.500002,,,,,,
272574,0.711192,9.204823,-2.6557548,-0.045732,0.777444,0.16768399,105.9,-167.70001,-23.7,,,,,,
272602,0.7751933,9.042128,-2.7227468,0.0,0.87653,-0.17530599,93.9,-167.70001,-18.900002,,,,,,
272622,0.7500713,9.134241,-2.748467,-0.053354,0.975616,-0.045732,91.5,-158.1,-23.1,,,,,,
272665,0.67590153,9.145606,-2.669512,-0.3811,0.983238,-0.28201398,93.9,-177.3,-24.300001,,,,,,
272687,0.5796005,9.214991,-2.6204643,-0.510674,1.059458,-0.251526,101.100006,-155.70001,-21.900002,,,,,,
272707,0.4928698,9.308899,-2.594146,-0.640248,0.998482,-0.373478,105.9,-170.1,-24.900002,,,,,,
272727,0.41271865,9.103138,-2.5241632,-0.785066,0.83842,-0.45731997,103.50001,-172.5,-17.7,,,,,,
272747,0.4163075,9.134241,-2.4924617,-0.586894,0.754578,-0.289636,98.700005,-162.90001,-25.500002,,,,,,
272770,0.44322395,9.100745,-2.4147031,-0.487808,0.617382,0.045732,110.700005,-167.70001,-22.5,,,,,,
272790,0.5108141,9.100147,-2.3919737,-0.35061198,0.640248,0.28201398,93.9,-158.1,-20.7,,,,,,
272813,0.5371324,9.212,-2.459564,-0.312502,0.632626,0.426832,93.9,-172.5,-28.500002,,,,,,
272833,0.5634507,9.197644,-2.5181818,-0.28201398,0.57164997,0.388722,93.9,-165.3,-16.5,,,,,,
272875,0.77220255,9.293347,-2.510406,-0.22865999,0.49543,0.274392,89.100006,-162.90001,-27.300001,,,,,,
272925,0.86611104,9.239514,-2.4487972,-0.56402797,0.72409,0.030488,103.50001,-172.5,-23.7,,,,,,
272968,0.8170633,9.210804,-2.3728333,-0.518296,0.60976,-0.23628199,93.9,-177.3,-20.1,,,,,,
272989,0.7034161,9.15099,-2.4458065,-0.60976,0.57164997,-0.312502,93.9,-165.3,-27.900002,,,,,,
273032,0.6406111,9.470398,-2.485284,-0.434454,0.297258,-0.365856,98.700005,-170.1,-20.7,,,,,,
273074,0.5796005,9.096559,-2.4176939,-0.434454,-0.045732,-0.34298998,98.700005,-174.90001,-23.7,,,,,,
273143,0.6471907,9.27301,-2.4272642,-0.41921,0.198172,0.030488,98.700005,-170.1,-21.300001,,,,,,
273206,0.7500713,9.278394,-2.3536925,-0.480186,0.35061198,0.11432999,96.3,-167.70001,-24.300001,,,,,,
273228,0.778184,9.199439,-2.301056,-0.449698,0.480186,0.007622,86.700005,-172.5,-20.7,,,,,,
273248,0.80809116,9.255664,-2.3459167,-0.3811,0.518296,0.0,96.3,-167.70001,-21.900002,,,,,,
273268,0.82902616,9.118092,-2.3267763,-0.3811,0.46494198,0.060976,108.3,-170.1,-23.7,,,,,,
273289,0.78595984,9.203028,-2.346515,-0.312502,0.46494198,0.22865999,96.3,-167.70001,-26.1,,,,,,
273309,0.74528617,9.159364,-2.359674,-0.33536798,0.35061198,0.19055,93.9,-165.3,-24.300001,,,,,,
273329,0.80988556,9.134839,-2.3483093,-0.26677,0.182928,0.11432999,93.9,-162.90001,-23.1,,,,,,
273393,0.9438696,9.192261,-2.3590758,-0.297258,0.083841994,-0.19055,96.3,-160.5,-22.5,,,,,,
273414,1.0144504,9.122278,-2.363263,-0.28201398,0.160062,-0.327746,91.5,-170.1,-26.1,,,,,,
273434,0.93729,9.184485,-2.439227,-0.373478,0.449698,-0.449698,89.100006,-158.1,-24.900002,,,,,,
273454,0.9677953,9.197046,-2.4613583,-0.3811,0.503052,-0.487808,103.50001,-172.5,-30.300001,,,,,,
273474,0.8320169,9.1797,-2.5409114,-0.320124,0.625004,-0.594516,89.100006,-179.70001,-21.300001,,,,,,
273498,0.73272514,9.207813,-2.5421076,-0.198172,0.602138,-0.640248,96.3,-170.1,-25.500002,,,,,,
273519,0.77698773,9.28258,-2.56065,-0.16768399,0.594516,-0.655492,103.50001,-162.90001,-26.1,,,,,,
273539,0.76622117,9.142615,-2.4715269,-0.251526,0.68597996,-0.525918,98.700005,-160.5,-20.1,,,,,,
273559,0.8320169,9.420752,-2.4093199,-0.28201398,0.81555396,-0.320124,91.5,-174.90001,-21.300001,,,,,,
273579,0.65795726,9.217383,-2.4912655,-0.708846,1.036592,-0.373478,96.3,-167.70001,-17.1,,,,,,
273599,0.6914533,9.063661,-2.4912655,-0.434454,0.93750596,-0.20579399,103.50001,-174.90001,-26.1,,,,,,
273620,0.68427557,9.217981,-2.4703305,-0.221038,0.846042,-0.068598,93.9,-172.5,-19.5,,,,,,
273642,0.7201641,9.230542,-2.4739194,-0.26677,0.67835796,0.053354,96.3,-160.5,-20.7,,,,,,
273662,0.78655803,9.197644,-2.405731,-0.30488,0.617382,0.068598,81.9,-160.5,-19.5,,,,,,
273683,0.8517556,9.159364,-2.3435242,-0.518296,0.579272,-0.106708,120.3,-177.3,-20.1,,,,,,
273703,0.87508315,9.17013,-2.3698425,-0.46494198,0.586894,-0.137196,91.5,-155.70001,-27.900002,,,,,,
273723,0.9049903,9.166541,-2.3644593,-0.41921,0.55640596,-0.22865999,98.700005,-165.3,-28.500002,,,,,,
273743,0.8643166,9.097157,-2.32558,-0.396344,0.541162,-0.274392,89.100006,-158.1,-27.300001,,,,,,
273805,0.75844526,9.183289,-2.4200864,-0.23628199,0.35061198,-0.434454,86.700005,-170.1,-15.3,,,,,,
273825,0.81227815,9.207813,-2.397357,-0.16768399,0.312502,-0.33536798,96.3,-174.90001,-18.300001,,,,,,
273847,0.82184845,9.109717,-2.3590758,-0.251526,0.33536798,-0.297258,105.9,-179.70001,-24.300001,,,,,,
273867,0.83859646,9.249084,-2.359674,-0.243904,0.41158798,-0.23628199,103.50001,-160.5,-23.7,,,,,,
273887,0.88046646,9.243103,-2.414105,-0.28201398,0.525918,-0.34298998,91.5,-165.3,-21.300001,,,,,,
273911,0.8685036,9.188672,-2.392572,-0.26677,0.525918,-0.434454,89.100006,-179.70001,-18.300001,,,,,,
273931,0.91276616,9.226356,-2.4051328,-0.17530599,0.64787,-0.40396598,98.700005,-182.1,-14.700001,,,,,,
273951,0.861924,9.20243,-2.4541807,-0.213416,0.68597996,-0.480186,93.9,-167.70001,-20.7,,,,,,
273973,0.87508315,9.212598,-2.3943663,-0.160062,0.72409,-0.53354,98.700005,-165.3,-19.5,,,,,,
273993,0.84697044,9.2377205,-2.4577694,-0.213416,0.777444,-0.49543,98.700005,-162.90001,-23.1,,,,,,
274013,0.8559426,9.119885,-2.4577694,-0.312502,0.792688,-0.55640596,96.3,-165.3,-14.700001,,,,,,
274034,0.90379405,9.206018,-2.4087217,-0.243904,0.82317597,-0.46494198,96.3,-170.1,-22.5,,,,,,
274054,0.8433816,9.198841,-2.421881,-0.388722,0.891774,-0.548784,103.50001,-167.70001,-19.5,,,,,,
274116,0.8439797,8.804067,-2.2657657,-0.625004,0.81555396,-0.69360197,103.50001,-162.90001,-22.5,,,,,,
274165,1.0012913,9.316077,-2.2669618,-0.022866,1.059458,-0.92226195,103.50001,-170.1,-20.7,,,,,,
274185,0.78655803,9.171327,-2.2448306,-0.129574,1.196654,-1.272874,91.5,-158.1,-20.1,,,,,,
274226,1.0425632,9.182691,-2.0061715,-0.07622,1.5929979,-1.760682,110.700005,-162.90001,-18.300001,,,,,,
274266,0.9671972,9.179102,-2.028303,0.160062,2.583858,-2.187514,98.700005,-165.3,-15.3,,,,,,
274306,0.48928094,8.9679575,-2.0635931,0.22865999,2.957336,-2.85825,117.9,-167.70001,-22.5,,x,,,,
274408,-1.2943814,9.774853,-1.1352754,-0.777444,-3.498498,-2.035074,115.50001,-158.1,-17.7,,x,,,,
274428,-1.8925244,9.571484,-1.2752408,-0.068598,-6.0747337,-3.041178,127.50001,-162.90001,-17.7,,x,,,,
274470,-2.5486872,7.952909,-0.36426908,2.637212,-14.184542,-3.1936178,141.90001,-167.70001,-20.1,,x,,,,
274490,-2.2113345,8.01392,-0.7387066,4.260698,-15.686075,-1.8521459,129.90001,-158.1,-24.900002,,x,,,,
274510,-1.1017793,8.836965,-0.5401231,4.260698,-18.384264,-0.70122397,137.1,-160.5,-22.5,,x,,,,
274530,-1.3835047,7.4534597,-0.47851437,3.147886,-17.522978,-1.8826339,132.3,-167.70001,-21.900002,,x,,,,
274554,-1.7716994,6.175826,-1.6060139,3.96344,-17.240963,-1.920744,151.5,-146.1,-22.5,,x,,,,
274574,-1.0246189,5.7834444,-1.2919888,4.199722,-20.785194,-0.487808,134.70001,-155.70001,-25.500002,,x,,,,
274597,-1.1298921,6.086105,-0.8834572,2.827762,-18.21658,0.67835796,139.5,-162.90001,-21.300001,,x,,,,
274617,-1.506124,6.1201987,-2.2304752,2.964958,-15.068694,0.518296,134.70001,-165.3,-26.7,,x,,,,
274637,-1.556368,5.953317,-3.2084389,2.7286758,-14.618996,0.47256398,132.3,-155.70001,-24.300001,,x,,,,
274657,-2.2316713,6.3935504,-3.853237,3.2698379,-11.135742,1.158544,141.90001,-153.3,-23.7,,x,,,,
274677,-0.8110819,9.793993,-5.355174,3.452766,-11.836966,2.583858,134.70001,-153.3,-24.900002,,x,,,,
274697,-2.3656554,9.422546,-5.032177,2.446662,-6.204308,1.1432999,137.1,-160.5,-27.900002,,x,,,,
274758,-1.5121055,13.759681,-9.876536,2.545748,5.3658876,4.009172,125.100006,-153.3,-24.300001,,x,,,,
274778,-0.9510473,14.314757,-10.521335,-0.548784,5.884184,0.792688,134.70001,-160.5,-28.500002,,x,,,,
274798,-1.4528893,11.495111,-10.277292,-0.64787,2.560992,-2.149404,132.3,-160.5,-23.1,,x,,,,
274819,-1.1412568,11.390436,-8.69341,-2.7286758,-0.91463995,-0.23628199,127.50001,-160.5,-32.7,,x,,,,
274839,-0.74408984,12.172808,-6.596919,-4.207344,2.7134318,-1.44818,127.50001,-162.90001,-23.7,,x,,,,
274859,-1.0102634,11.39881,-7.065863,-1.532022,12.439104,-3.993928,117.9,-148.5,-24.300001,,x,,,,
274883,-1.6759967,10.0260725,-8.478079,-1.539644,15.259244,-4.26832,134.70001,-148.5,-21.900002,,x,,,,
274903,-2.2328677,9.186279,-8.016911,-3.452766,9.786648,-2.987824,129.90001,-146.1,-18.300001,,x,,,,
274923,-1.7711014,9.161756,-6.0215054,-5.586926,4.603688,-1.966476,132.3,-158.1,-27.900002,,x,,,,
274943,-2.0115547,8.371011,-3.886733,-6.875044,6.0976,-1.6158639,134.70001,-155.70001,-27.300001,,x,,,,
274963,-2.1263983,7.3278494,-3.5774932,-5.899428,12.568678,-1.303362,139.5,-153.3,-22.5,,x,,,,
274983,-1.7938308,7.019806,-4.339527,-5.22107,13.384232,-0.083841994,134.70001,-162.90001,-26.1,,x,,,,
275007,-1.4463097,7.01203,-3.104362,-5.091496,7.4238276,0.26677,125.100006,-148.5,-23.7,,x,,,,
275027,-0.8397927,7.015619,-2.0229194,-3.894842,6.920776,-0.221038,127.50001,-160.5,-18.900002,,x,,,,
275049,-0.91934574,7.2991385,-1.7471756,-2.881116,7.8582816,-1.250008,144.3,-160.5,-26.1,,x,,,,
275073,-1.6562579,6.3827834,-1.912263,-1.783548,8.757678,-3.2698379,134.70001,-162.90001,-26.1,,x,,,,
275093,-1.0186375,6.133956,-1.9720774,0.144818,5.304912,-3.7271578,146.70001,-162.90001,-29.7,,x,,,,
275113,-0.0681883,7.434319,-1.0431614,-0.137196,1.547266,-3.064044,158.70001,-158.1,-25.500002,,x,,,,
275133,0.46236452,8.353664,0.15671346,-0.846042,3.6738038,-3.460388,144.3,-153.3,-16.5,,x,,,,
275153,-0.4019521,7.866178,-0.7668193,-2.13416,8.818654,-3.8262439,158.70001,-153.3,-21.900002,,x,,,,
275193,-2.1539128,7.7866254,-1.0054784,-2.583858,9.474146,-2.484772,151.5,-160.5,-20.7,,x,,,,
275233,-2.2896912,9.007435,-0.8906349,-1.463424,6.051868,-1.318606,161.1,-155.70001,-26.1,,x,,,,
275365,-2.3070374,9.99796,-1.8931226,-1.699706,2.012208,-1.478668,170.70001,-134.1,-20.1,,,,,,
275385,-2.3112245,9.249084,-1.9714792,-1.516778,2.347576,-1.33385,161.1,-150.90001,-20.7,,,,,,
275427,-2.1616888,9.515259,-2.5217707,-0.625004,1.501534,0.007622,165.90001,-143.70001,-21.300001,,,,,,
275447,-1.8524488,9.382471,-2.4661434,-0.23628199,0.53354,0.15244,168.3,-141.3,-21.300001,,,,,,
275467,-1.5790974,9.237122,-2.1575017,-0.40396598,-0.243904,0.213416,163.5,-148.5,-21.900002,,,,,,
275487,-1.3236904,8.94463,-2.1180243,-0.53354,0.213416,0.182928,156.3,-148.5,-26.1,,,,,,
275507,-1.351205,8.871656,-2.288495,-0.754578,0.60976,0.28201398,168.3,-150.90001,-21.300001,,,,,,
275549,-1.2704557,9.139625,-2.7430837,-0.57164997,-0.045732,0.198172,170.70001,-131.70001,-21.900002,,,,,,
275569,-1.2680631,9.015809,-2.6934378,-0.510674,-0.830798,0.160062,163.5,-150.90001,-15.3,,,,,,
275589,-1.2566984,8.887208,-2.4822934,-0.57164997,-1.166166,0.060976,163.5,-146.1,-23.1,,,,,,
275609,-0.9983006,9.172523,-2.4081235,-0.663114,-1.242386,0.26677,156.3,-146.1,-20.1,,,,,,
275632,-1.0353855,9.033753,-2.2376528,-1.06708,-0.792688,0.11432999,173.1,-143.70001,-21.300001,,,,,,
275653,-1.1412568,9.30531,-2.2149234,-0.785066,-1.006104,0.28201398,161.1,-141.3,-24.900002,,,,,,
275673,-1.0814425,9.150392,-2.0336862,-0.69360197,-0.67073596,0.045732,163.5,-153.3,-17.7,,,,,,
275693,-1.0311985,9.034949,-1.9361888,-0.56402797,-0.28201398,-0.060976,149.1,-148.5,-24.300001,,,,,,
275717,-1.1101533,9.143811,-1.9852365,-0.33536798,0.030488,-0.106708,163.5,-153.3,-24.300001,,,,,,
275737,-1.2333708,8.881825,-1.9732736,-0.198172,0.541162,-0.243904,153.90001,-134.1,-19.5,,,,,,
275757,-1.2142302,8.991883,-1.9774606,0.15244,0.480186,-0.121952,163.5,-153.3,-20.1,,,,,,
275778,-1.4750205,8.93805,-1.8961133,0.289636,0.60976,-0.182928,173.1,-158.1,-20.7,,,,,,
275798,-1.6102009,9.2484865,-1.9331981,0.56402797,0.769822,0.015244,161.1,-136.5,-21.900002,,,,,,
275818,-1.6753985,9.7132435,-1.7190629,0.57164997,0.274392,0.068598,153.90001,-148.5,-18.300001,,,,,,
275838,-1.991816,9.747936,-1.1388642,0.030488,-0.099086,-0.03811,156.3,-153.3,-19.5,,,,,,
275902,-5.0399528,9.435705,0.7554546,-1.509156,-0.243904,-1.33385,168.3,-146.1,-18.900002,,x,,,,
275922,-5.429942,7.912833,1.1304902,0.0,-2.660078,-1.3795819,158.70001,-143.70001,-23.7,,x,,,,
275942,-5.5244484,7.137042,0.7602397,2.7744079,-4.009172,-0.129574,168.3,-150.90001,-25.500002,,x,,,,
275962,-5.1643662,7.00246,0.34752107,4.626554,-7.134192,1.082324,151.5,-138.90001,-21.300001,,x,,,,
275982,-4.391566,6.7709785,0.06519759,6.112844,-9.512256,1.951232,161.1,-131.70001,-23.1,,x,,,,
276002,-4.2061415,5.784641,-0.54789895,7.0960817,-10.678422,1.8826339,158.70001,-146.1,-20.7,,x,,,,
276025,-3.899892,4.542896,-1.5162925,8.658592,-12.00465,2.355198,151.5,-148.5,-23.7,,x,,,,
276045,-2.4254696,5.342613,-2.5367243,9.60372,-14.093078,5.091496,165.90001,-155.70001,-20.1,,x,,,,
276067,-1.7262406,6.6352,-2.748467,7.103704,-14.71046,5.632658,151.5,-160.5,-15.3,,x,,,,
276088,-1.5826863,5.2223864,-3.8000023,7.225656,-10.6708,3.6585598,149.1,-148.5,-17.7,,x,,,,
276150,2.271149,6.974347,-5.547776,4.626554,-20.708973,7.766818,137.1,-158.1,-23.1,,x,,,,
276172,2.6294365,8.342898,-6.375606,6.996996,-8.6204815,6.128088,129.90001,-148.5,-25.500002,,x,,,,
276192,2.4661434,11.101534,-8.390151,4.969544,-2.7439198,5.571682,132.3,-158.1,-17.7,,x,,,,
276214,1.8315138,12.666874,-10.125962,3.01069,-1.3490939,2.881116,113.100006,-167.70001,-16.5,,x,,,,
276234,1.799214,11.514851,-10.682834,1.94361,-3.407034,-1.33385,120.3,-148.5,-14.700001,,x,,,,
276254,0.7925394,10.777938,-10.1451025,0.93750596,-3.6738038,-1.79117,132.3,-158.1,-23.1,,x,,,,
276278,0.9354956,12.863663,-10.46152,0.327746,2.2027578,0.442076,122.700005,-141.3,-22.5,,x,,,,
276298,0.84517604,12.537675,-11.177498,0.777444,8.0945635,-2.2561119,125.100006,-148.5,-12.3,,x,,,,
276318,0.93429935,12.279875,-12.340287,0.55640596,10.304944,-3.628072,129.90001,-155.70001,-17.7,,x,,,,
276378,-1.2931851,10.646347,-9.580456,-7.705842,5.739366,-4.939056,137.1,-153.3,-12.3,,x,,,,
276442,-1.7962234,8.347085,-6.236837,-9.6418295,1.798792,-0.548784,139.5,-150.90001,-23.7,,x,,,,
276566,-1.1669769,6.269735,-1.1795379,-4.03966,3.2698379,-1.21952,144.3,-158.1,-24.300001,,x,,,,
276628,-0.2966789,7.7160444,-0.5580674,-3.041178,3.8186219,-0.602138,149.1,-153.3,-23.1,,x,,,,
276648,-0.56464696,7.299737,0.5054308,-3.528986,5.205826,-1.288118,153.90001,-155.70001,-32.7,,x,,,,
276688,-1.627547,7.130462,-0.7877543,-2.560992,7.957368,-1.326228,149.1,-155.70001,-26.7,,x,,,,
276750,-1.0389743,9.8562,-0.954038,-1.41007,6.486322,0.19055,146.70001,-150.90001,-27.300001,,x,,,,
276865,-2.5756037,10.605075,-1.3254849,-0.960372,1.8369019,-0.716468,151.5,-165.3,-21.900002,,x,,,,
276886,-2.5127985,9.930369,-1.2525114,-1.166166,1.265252,-1.006104,156.3,-153.3,-20.7,,x,,,,
276927,-2.162885,9.149195,-1.5629476,-0.72409,0.30488,-0.015244,163.5,-153.3,-26.1,,,,,,
276947,-1.7657181,9.216187,-2.0109568,-0.320124,0.487808,0.426832,146.70001,-146.1,-26.1,,,,,,
276967,-1.5408163,9.358545,-2.0480416,-0.30488,-0.731712,0.541162,149.1,-136.5,-20.1,,,,,,
276987,-1.2172209,9.078614,-1.8769727,-0.57164997,-0.960372,0.22865999,149.1,-153.3,-26.7,,,,,,
277007,-1.1352754,8.6437645,-2.028303,-0.525918,-0.327746,0.221038,149.1,-150.90001,-21.900002,,,,,,
277027,-1.0246189,9.290955,-2.4344418,-0.20579399,-0.47256398,0.967994,151.5,-155.70001,-20.1,,,,,,
277047,-1.0814425,9.359143,-2.3411317,-0.099086,-0.92988396,0.60976,163.5,-148.5,-21.300001,,,,,,
277110,-0.761436,9.104933,-2.26756,-0.708846,-0.83842,-0.03811,137.1,-158.1,-21.900002,,,,,,
277130,-0.7710063,8.89618,-2.2849061,-0.82317597,-0.365856,-0.030488,161.1,-146.1,-24.900002,,,,,,
277150,-0.6459944,9.0540905,-2.3698425,-0.41921,-0.312502,0.20579399,156.3,-146.1,-21.300001,,,,,,
277170,-0.4940661,9.246094,-2.1826236,-0.45731997,-0.312502,0.030488,141.90001,-148.5,-24.900002,,,,,,
277215,-0.42348522,9.0977545,-2.020527,-0.365856,1.059458,-0.327746,156.3,-148.5,-28.500002,,,,,,
277235,-0.4982531,9.125269,-2.1066597,-0.327746,1.3414719,-0.41158798,153.90001,-167.70001,-22.5,,,,,,
277255,-0.5473008,9.232935,-2.1987736,-0.16768399,1.478668,-0.434454,144.3,-155.70001,-23.1,,,,,,
277276,-0.58079684,9.019996,-2.0402656,-0.182928,1.318606,-0.68597996,141.90001,-160.5,-20.1,,,,,,
277297,-0.49227166,8.862684,-1.999592,-0.007622,1.5244,-0.594516,141.90001,-150.90001,-27.300001,,,,,,
277357,-0.6286483,9.091773,-1.8596265,0.365856,1.707328,-0.884152,151.5,-150.90001,-24.900002,,,,,,
277465,-5.084215,9.252075,0.055029154,-0.87653,3.140264,-1.6006199,161.1,-150.90001,-28.500002,,x,,,,
277485,-5.4365215,10.335911,-0.3355582,0.87653,0.259148,-0.30488,141.90001,-153.3,-20.1,,x,,,,
277525,-5.374315,8.826796,-0.79134315,1.8597679,-4.245454,0.617382,151.5,-146.1,-21.300001,,x,,,,
277547,-4.990307,8.371011,-1.2860074,3.3003259,-6.150954,1.471046,161.1,-150.90001,-28.500002,,x,,,,
277567,-3.9561176,8.834572,-2.447003,4.771372,-8.003099,2.431418,149.1,-153.3,-22.5,,x,,,,
277587,-3.965688,7.6909223,-3.1258953,6.189064,-9.763782,1.8445239,146.70001,-146.1,-13.500001,,x,,,,
277650,-2.0031807,5.492747,-1.8434767,6.9283977,-21.326355,5.5335717,144.3,-141.3,-19.5,,x,,,,
277705,-2.1431463,4.1618786,-2.6228569,7.385718,-22.362947,6.70736,132.3,-158.1,-26.1,,x,,,,
277725,-0.78177285,4.602112,-2.113239,5.83083,-23.452894,6.9131536,125.100006,-162.90001,-19.5,,x,,,,
277768,-0.72315484,6.0974693,-4.3855844,8.033587,-10.7241535,6.0976,113.100006,-165.3,-19.5,,x,,,,
277808,0.9139625,10.466904,-9.28258,10.122016,-2.01983,6.219552,120.3,-162.90001,-17.1,,x,,,,
277828,1.8841504,12.614237,-10.926876,9.359816,-1.173788,5.60217,101.100006,-155.70001,-15.900001,,x,,,,
277868,2.4356382,14.16582,-12.022076,0.891774,-1.8978779,-0.95274997,91.5,-160.5,-15.3,,x,,,,
277888,2.1060615,10.618833,-11.320454,1.8673899,-2.317088,-2.980202,81.9,-158.1,-24.900002,,x,,,,
277908,3.3370397,11.758294,-10.449557,-0.121952,0.64787,0.47256398,93.9,-153.3,-12.900001,,x,,,,
277953,3.061894,11.011214,-12.17221,-0.22865999,13.140327,-3.155508,108.3,-162.90001,-15.900001,,x,,,,
277973,1.673604,10.765377,-11.2462845,-5.434486,12.439104,-5.266802,81.9,-155.70001,-2.7,,x,,,,
277995,0.74708056,9.143213,-11.1446,-5.213448,13.666245,-7.3933396,98.700005,-160.5,-11.1,,x,,,,
278015,0.63223714,7.676567,-10.606271,-7.43145,10.983302,-6.9131536,113.100006,-162.90001,-15.900001,,x,,,,
278035,0.4079335,8.058182,-9.141419,-10.754642,8.19365,-4.550334,117.9,-153.3,-12.900001,,x,,,,
278055,-0.539525,7.512078,-7.3978324,-10.998546,7.766818,-5.167716,113.100006,-158.1,-20.7,,x,,,,
278075,-0.73990285,6.29366,-6.2613606,-10.091528,6.0137577,-5.731744,127.50001,-160.5,-22.5,,x,,,,
278095,-0.9241309,5.2020493,-4.192982,-10.632689,2.164648,-5.015276,115.50001,-162.90001,-17.1,,x,,,,
278115,-0.6334334,4.968774,-1.7023149,-9.878112,2.2637339,-3.567096,127.50001,-160.5,-21.900002,,x,,,,
278135,-0.3911855,4.7713866,-0.9049903,-8.025966,8.978716,-3.6890478,129.90001,-162.90001,-24.900002,,x,,,,
278158,-0.6501814,4.4119024,-1.6125934,-6.577786,11.7150135,-3.7652678,132.3,-155.70001,-23.1,,x,,,,
278178,-0.93729,5.03756,-1.0407687,-5.5793037,8.986338,-3.2622159,120.3,-165.3,-20.1,,x,,,,
278198,-0.8134744,5.6955175,-0.42827037,-4.862836,8.6204815,-3.597584,132.3,-165.3,-23.1,,x,,,,
278218,-0.48090696,6.6794624,0.16688189,-4.138746,8.064075,-3.330814,137.1,-158.1,-29.1,,x,,,,
278240,-1.0916109,6.241622,0.66274244,-5.289668,11.6845255,-4.5731997,144.3,-167.70001,-18.900002,,x,,,,
278260,-1.5850788,7.045526,-0.3588858,-4.30643,11.66166,-2.987824,137.1,-155.70001,-22.5,,x,,,,
278282,-1.6789873,8.8919935,-0.5801987,-3.917708,10.36592,-1.669218,153.90001,-143.70001,-24.300001,,x,,,,
278302,-2.24184,8.807655,-0.13757288,-3.536608,8.80341,-3.16313,149.1,-148.5,-23.1,,x,,,,
278323,-2.8710864,7.811149,-0.36127836,-2.987824,8.986338,-3.2698379,139.5,-155.70001,-24.300001,,x,,,,
278343,-3.756338,8.24899,-0.83141875,-1.8826339,8.742434,-2.7439198,153.90001,-146.1,-21.900002,,x,,,,
278365,-4.079933,9.503296,-1.9134594,-0.060976,7.972612,-1.585376,156.3,-150.90001,-26.7,,x,,,,
278425,-3.4285555,10.480661,-2.2137272,1.089946,3.025934,-1.21952,161.1,-150.90001,-20.1,,x,,,,
278447,-3.0391645,11.137423,-2.77,1.02897,1.989342,-0.548784,144.3,-158.1,-24.300001,,,,,,
278467,-2.8926194,11.087776,-2.573211,0.487808,0.365856,-0.99086,153.90001,-150.90001,-20.7,,,,,,
278487,-2.5899591,10.489634,-2.5157893,-0.045732,-0.022866,-0.983238,161.1,-148.5,-15.3,,,,,,
278509,-2.4051328,10.105027,-2.4164977,-0.7622,-0.442076,-0.602138,161.1,-146.1,-22.5,,,,,,
278529,-1.9601145,9.921995,-2.459564,-0.625004,-0.541162,-0.510674,161.1,-146.1,-20.1,,,,,,
278551,-1.8016067,9.172523,-2.037275,-0.853664,-1.082324,-0.47256398,173.1,-153.3,-26.7,,,,,,
278611,-1.2614836,8.575576,-1.9780588,-0.46494198,-0.80793196,0.20579399,170.70001,-158.1,-27.300001,,,,,,
278635,-1.0814425,8.883619,-1.8889354,-0.983238,-0.80030996,0.731712,163.5,-150.90001,-27.300001,,,,,,
278695,-0.4593738,8.938648,-2.0522285,-0.69360197,-0.365856,0.64787,151.5,-150.90001,-23.7,,,,,,
278727,-0.40314835,8.859694,-2.3441224,-0.33536798,0.33536798,-0.15244,158.70001,-150.90001,-20.1,,,,,,
278747,-0.3271842,8.939845,-2.2998598,-0.11432999,0.46494198,-0.525918,158.70001,-141.3,-23.1,,,,,,
278787,-0.11424531,9.4321165,-2.275934,-0.17530599,1.783548,-2.073184,170.70001,-153.3,-22.5,,,,,,
278809,-0.3134269,8.87704,-2.3237855,-0.632626,3.490876,-3.2622159,170.70001,-146.1,-20.7,,,,,,
278829,-0.7961283,8.41647,-2.4954524,-0.320124,4.4817357,-3.7195358,158.70001,-150.90001,-17.1,,,,,,
278849,-1.9906198,7.8464394,-2.5839777,0.312502,5.114362,-3.422278,168.3,-146.1,-21.300001,,x,,,,
278869,-2.6204643,9.048707,-2.8340013,1.463424,3.574718,-1.44818,168.3,-143.70001,-18.900002,,x,,,,
278889,-2.485284,9.684533,-2.037873,0.7622,1.1432999,-1.051836,168.3,-148.5,-18.900002,,x,,,,
278912,-2.949443,9.235926,-1.1394624,-0.160062,1.532022,-0.45731997,173.1,-143.70001,-14.700001,,x,,,,
278932,-3.572708,10.093662,-1.5976399,0.030488,2.164648,0.81555396,173.1,-126.9,-16.5,,x,,,,
278954,-4.092494,10.344285,-1.4899741,-0.47256398,0.830798,0.868908,173.1,-138.90001,-21.900002,,x,,,,
278974,-4.421473,10.103233,-1.3894861,-0.69360197,-0.541162,1.234764,156.3,-146.1,-21.300001,,x,,,,
278994,-4.4830813,9.985997,-1.1364716,-0.81555396,-2.606724,1.8826339,168.3,-150.90001,-20.7,,x,,,,
279014,-4.1397476,9.491931,-0.67590153,-0.579272,-3.7957559,2.423796,156.3,-141.3,-17.7,,x,,,,
279034,-4.271339,9.468603,-0.9211402,0.053354,-3.368924,2.964958,156.3,-155.70001,-23.1,,x,,,,
279054,-4.438221,9.091773,-2.1054633,1.432936,-3.490876,2.576236,156.3,-136.5,-26.7,,x,,,,
279074,-3.7958152,8.195755,-2.9727705,3.88722,-7.721086,3.2469718,158.70001,-143.70001,-15.900001,,x,,,,
279095,-2.622259,7.410393,-1.2913907,4.809482,-15.251621,6.166198,153.90001,-146.1,-19.5,,x,,,,
279116,-1.2375578,8.037846,-0.42707407,4.939056,-17.050413,6.951264,139.5,-162.90001,-24.900002,,x,,,,
279136,-0.98035634,6.4318314,0.15133017,4.375028,-16.250103,5.419242,141.90001,-155.70001,-14.700001,,x,,,,
279156,-1.2949796,5.473008,-0.81168,6.66925,-15.983334,4.9619217,129.90001,-146.1,-24.900002,,x,,,,
279198,0.7387066,6.8768497,-0.44083136,8.826276,-19.611406,5.663146,132.3,-150.90001,-18.900002,,x,,,,
279218,0.15611531,5.998776,-1.116733,7.16468,-16.836998,4.565578,139.5,-155.70001,-17.7,,x,,,,
279261,0.03229972,4.34192,-3.0283978,6.006136,-14.291249,2.93447,117.9,-150.90001,-13.500001,,x,,,,
279323,1.0240208,9.78203,-7.5820603,4.923812,-1.25763,3.864354,98.700005,-160.5,-17.1,,x,,,,
279363,1.4522911,12.1423025,-11.859381,8.475664,7.865904,2.149404,108.3,-155.70001,-17.1,,x,,,,
279385,1.7639236,11.6673765,-12.700968,-1.06708,-0.213416,-2.416174,105.9,-155.70001,-20.1,,x,,,,
279405,1.8685987,8.963771,-11.549542,1.089946,-1.1051899,-2.423796,113.100006,-150.90001,-16.5,,x,,,,
279447,2.9691818,13.093349,-12.333708,-1.730194,9.588476,-0.60976,96.3,-148.5,-18.300001,,x,,,,
279487,1.9660959,10.538083,-12.413859,-4.4207597,7.6524878,-4.321674,110.700005,-158.1,-17.1,,x,,,,
279507,0.6124984,11.825287,-11.205012,-7.225656,8.262248,-4.4207597,101.100006,-155.70001,-12.3,,x,,,,
279527,-0.8553445,9.805956,-10.704965,-6.0442457,9.832379,-7.3628516,113.100006,-150.90001,-11.700001,,x,,,,
279570,-1.2471281,8.413479,-7.7046795,-12.309529,2.36282,-3.528986,117.9,-153.3,-16.5,,x,,,,
279630,-2.0737617,4.485474,-3.8137596,-9.199754,7.0046177,-3.551852,122.700005,-148.5,-22.5,,x,,,,
279650,-1.9062816,4.702002,-2.2155216,-9.154022,3.536608,-2.461906,125.100006,-155.70001,-23.7,,x,,,,
279691,-1.0730685,5.3862777,-0.8182596,-5.320156,8.53664,-3.7500238,139.5,-158.1,-14.700001,,x,,,,
279711,-1.0862277,5.334837,-0.6077133,-5.289668,7.461938,-4.054904,141.90001,-150.90001,-24.900002,,x,,,,
279731,-0.77459514,5.5453835,0.30325848,-4.375028,6.1052217,-3.8033779,153.90001,-141.3,-26.7,,x,,,,
279754,-0.3074455,7.4456835,1.4062341,-5.44973,7.6372437,-3.3003259,158.70001,-162.90001,-26.1,,x,,,,
279774,-0.63223714,6.713557,0.14415246,-4.756128,11.1890955,-3.528986,141.90001,-158.1,-24.900002,,x,,,,
279794,-1.4839927,7.4666185,0.052636582,-3.993928,10.114394,-2.93447,153.90001,-146.1,-29.1,,x,,,,
279814,-1.7316239,8.607876,-0.46535522,-3.033556,10.465006,-2.507638,158.70001,-160.5,-23.7,,x,,,,
279835,-1.9966012,9.089979,-0.6615461,-2.644834,9.245486,-3.2241058,165.90001,-143.70001,-27.900002,,x,,,,
279855,-2.857927,8.570192,-0.4827014,-2.2865999,8.757678,-3.650938,161.1,-148.5,-25.500002,,x,,,,
279875,-3.5673246,8.793898,-0.75784713,-1.996964,8.361334,-2.980202,168.3,-143.70001,-24.900002,,x,,,,
279918,-3.8717794,9.751525,-1.4804039,-0.3811,6.112844,-1.669218,173.1,-148.5,-18.900002,,x,,,,
279938,-3.76531,11.055476,-1.8291212,-0.907018,4.824726,-0.35061198,168.3,-136.5,-23.1,,x,,,,
279981,-3.68157,9.637877,-1.8374952,-0.099086,1.570132,-0.91463995,175.5,-150.90001,-29.7,,x,,,,
280001,-3.221,10.578756,-2.1431463,0.510674,0.81555396,0.121952,168.3,-141.3,-25.500002,,x,,,,
280064,-2.5050228,10.043419,-2.2059512,0.67073596,-2.6981878,-0.23628199,173.1,-131.70001,-24.300001,,,,,,
280108,-1.8895336,9.844237,-1.9427683,-0.358234,-0.998482,-0.106708,163.5,-143.70001,-18.900002,,,,,,
280128,-1.9445628,8.9141245,-1.8177565,-0.625004,-1.29574,-0.137196,153.90001,-143.70001,-26.1,,,,,,
280170,-1.2034637,8.6652975,-2.003779,-0.083841994,-0.83842,1.722572,149.1,-150.90001,-19.5,,,,,,
280246,-0.55328226,9.196448,-2.4045348,-0.33536798,-1.1204339,1.516778,156.3,-153.3,-22.5,,,,,,
280301,-0.66992015,9.097157,-2.3991516,-0.602138,-0.92226195,0.579272,153.90001,-153.3,-20.1,,,,,,
280404,-0.5580674,8.652138,-2.0277047,-0.434454,1.082324,-0.16768399,163.5,-143.70001,-26.1,,,,,,
280424,-0.21951847,9.203028,-1.8093824,-0.35061198,0.983238,-0.083841994,137.1,-150.90001,-26.1,,,,,,
280467,-1.1346772,8.524734,-1.8422804,0.769822,3.7652678,-1.684462,163.5,-155.70001,-23.7,,,,,,
280509,-1.27225,9.168934,-0.83082056,1.501534,2.408552,-1.8902559,156.3,-150.90001,-23.7,,x,,,,
280645,-6.2816973,9.021193,0.027514577,1.493912,-4.26832,1.089946,163.5,-146.1,-18.300001,,x,,,,
280664,-5.279808,9.812535,0.07177716,2.2865999,-6.654006,3.16313,170.70001,-146.1,-18.300001,,x,,,,
280706,-5.4060163,6.550264,-0.97616935,4.969544,-7.77444,1.814036,156.3,-143.70001,-21.900002,,x,,,,
280726,-4.5835695,5.4502788,-1.7292314,6.272906,-11.7455015,3.955818,165.90001,-158.1,-19.5,,x,,,,
280746,-3.8376853,5.167357,-1.0569186,6.0594897,-15.647965,5.5945477,158.70001,-153.3,-18.900002,,x,,,,
280786,-2.6413994,4.2354503,-2.179633,7.682976,-15.3049755,5.9222937,146.70001,-158.1,-14.700001,,x,,,,
280842,-0.8553445,2.2029605,-4.233058,10.068662,-9.977198,5.44973,132.3,-146.1,-18.300001,,x,,,,
280890,0.7853617,7.455254,-6.0633755,7.538158,-12.492457,5.929916,117.9,-165.3,-23.7,,x,,,,
280910,1.1448456,8.814833,-8.109622,8.742434,-6.3872356,5.312534,115.50001,-155.70001,-15.3,,x,,,,
280952,2.4960506,12.02387,-11.438288,7.789684,-1.730194,6.242418,108.3,-146.1,-19.5,,x,,,,
280973,3.0236127,12.483842,-12.120171,5.739366,-2.995446,1.9131219,113.100006,-153.3,-8.1,,x,,,,
281013,3.5589507,11.221761,-12.687809,2.47715,1.516778,0.442076,101.100006,-155.70001,-16.5,,x,,,,
281084,2.7311208,9.326843,-12.26552,-5.86894,8.338468,-6.112844,108.3,-155.70001,-10.5,,x,,,,
281120,0.3618765,8.080912,-11.243892,-7.271388,9.047314,-2.576236,113.100006,-136.5,-9.900001,,x,,,,
281140,0.878672,9.738366,-10.224058,-9.138778,7.5610237,-1.471046,113.100006,-153.3,-18.300001,,x,,,,
281180,-0.9145606,6.887018,-7.4540577,-11.059522,7.644866,-7.9649897,120.3,-158.1,-12.3,,x,,,,
281200,-1.3936732,5.2193956,-6.727912,-9.763782,5.152472,-6.21193,132.3,-160.5,-19.5,,x,,,,
281220,-0.81945586,6.673481,-4.489661,-12.04276,-0.81555396,-3.2469718,134.70001,-148.5,-19.5,,x,,,,
281240,-1.5671346,6.12618,-1.4630578,-11.958918,1.204276,-5.388754,134.70001,-165.3,-18.300001,,x,,,,
281260,-1.8997021,4.638599,-1.6012287,-7.911636,10.945191,-6.4024796,134.70001,-155.70001,-13.500001,,x,,,,
281280,-1.4786094,4.8587155,-2.756841,-6.4482117,10.602201,-4.207344,139.5,-153.3,-20.7,,x,,,,
281300,-1.4863852,5.4161844,-1.1639862,-6.3567476,4.984788,-3.0488,144.3,-158.1,-12.3,,x,,,,
281320,-1.631136,5.5878515,0.20815375,-5.823208,6.78358,-1.821658,144.3,-148.5,-18.900002,,x,,,,
281340,-2.2376528,6.1016564,-0.2769402,-6.280528,11.760746,-0.861286,149.1,-143.70001,-23.7,,x,,,,
281362,-1.5485922,6.10704,-0.7542583,-5.4268637,9.618964,-1.288118,149.1,-150.90001,-22.5,,x,,,,
281382,-1.5946492,6.1931725,-0.17585403,-5.061008,8.5899935,-1.1356779,146.70001,-160.5,-21.900002,,x,,,,
281404,-2.4200864,7.2321467,-0.2936882,-4.352162,10.929948,-1.158544,153.90001,-153.3,-24.900002,,x,,,,
281424,-2.9446578,7.4953294,-0.8045023,-3.62045,9.954331,-1.9054999,156.3,-153.3,-26.1,,x,,,,
281444,-4.082326,8.396731,-0.94985104,-2.7286758,7.8430376,-1.684462,156.3,-143.70001,-25.500002,,x,,,,
281466,-4.188197,9.628905,-1.0700778,-2.47715,6.067112,-1.71495,161.1,-146.1,-27.300001,,x,,,,
281486,-3.6851587,9.999754,-0.7201641,-2.088428,3.170752,-2.469528,153.90001,-150.90001,-16.5,,x,,,,
281529,-3.3071325,9.966856,-0.7171734,-2.614346,4.222588,-2.339954,173.1,-158.1,-26.1,,x,,,,
281549,-3.212626,10.229441,-1.3589808,-1.539644,3.635694,-1.783548,158.70001,-143.70001,-27.900002,,x,,,,
281569,-2.9990888,10.672665,-1.3500087,-0.899396,1.3719599,-1.661596,165.90001,-155.70001,-17.7,,,,,,
281589,-3.087614,10.362228,-1.1944915,-0.884152,0.853664,-1.8826339,168.3,-148.5,-17.1,,,,,,
281613,-2.8088794,10.316172,-1.4199914,-0.221038,-0.198172,-1.6387299,170.70001,-148.5,-21.300001,,,,,,
281633,-2.8034961,10.276694,-1.2973721,-0.015244,-0.746956,-1.471046,163.5,-131.70001,-25.500002,,,,,,
281654,-2.580987,9.654028,-1.1310884,-0.121952,-1.06708,-1.3490939,165.90001,-143.70001,-24.900002,,,,,,
281674,-2.1581,9.275403,-1.146042,-0.15244,-0.716468,0.11432999,168.3,-150.90001,-28.500002,,,,,,
281718,-1.53962,9.329236,-1.535433,0.16768399,-0.160062,2.118916,163.5,-136.5,-24.300001,,,,,,
281738,-1.1185274,9.308301,-1.2854092,0.137196,-0.579272,2.065562,158.70001,-136.5,-26.7,,,,,,
281761,-1.0120579,9.015211,-1.8560376,0.015244,0.083841994,1.814036,158.70001,-148.5,-18.900002,,,,,,
281782,-0.8840553,8.607277,-1.7842605,-0.16768399,-1.440558,1.585376,161.1,-150.90001,-20.7,,,,,,
281802,-0.5030382,9.128858,-1.6060139,-0.297258,-1.8521459,1.8597679,141.90001,-143.70001,-26.7,,,,,,
281822,-0.27335134,9.322059,-1.9170482,-0.17530599,-0.586894,0.91463995,153.90001,-150.90001,-27.900002,,,,,,
281843,-0.5473008,8.984706,-2.318402,0.198172,-0.716468,0.243904,173.1,-153.3,-27.900002,,,,,,
281863,-0.71657526,8.906349,-2.1521184,0.70122397,-1.310984,0.525918,151.5,-150.90001,-20.7,,,,,,
281883,-0.60651696,9.250281,-1.991816,0.518296,-1.250008,0.67835796,168.3,-136.5,-24.300001,,,,,,
281905,-0.37683007,9.497912,-2.225092,0.426832,-0.70122397,0.449698,141.90001,-143.70001,-25.500002,,,,,,
281925,-0.17106889,9.386658,-2.0408638,0.312502,-0.579272,0.07622,146.70001,-148.5,-21.900002,,,,,,
281947,-0.111254595,9.246094,-1.9284129,0.083841994,-0.11432999,-0.015244,161.1,-155.70001,-28.500002,,,,,,
281967,0.086132586,8.893189,-1.836897,-0.060976,0.426832,-0.144818,151.5,-134.1,-26.1,,,,,,
281989,-0.025720147,9.099549,-1.786055,0.137196,1.303362,0.015244,151.5,-153.3,-21.900002,,,,,,
282009,-0.80749303,8.782534,-1.8895336,0.17530599,1.692084,-0.548784,158.70001,-155.70001,-21.900002,,,,,,
282029,-1.4714317,8.313589,-1.8392897,1.3490939,0.060976,-0.663114,161.1,-146.1,-20.7,,,,,,
282049,-1.8961133,8.762197,-0.6555647,2.2180018,-2.2713559,0.93750596,156.3,-146.1,-23.7,,,,,,
282069,-2.3710387,10.983101,0.52516955,1.211898,-3.056422,2.187514,149.1,-148.5,-18.900002,,,,,,
282089,-3.0403607,11.541168,1.5258627,-0.625004,-0.93750596,0.55640596,141.90001,-150.90001,-23.1,,,,,,
282109,-4.7384887,10.709152,0.61309654,-0.998482,2.042696,-0.525918,141.90001,-153.3,-17.7,,,,,,
282131,-6.133358,10.987288,-0.535338,0.259148,-0.144818,-0.007622,146.70001,-170.1,-20.7,,x,,,,
282151,-6.5089917,9.33761,-0.34034336,1.585376,-3.948196,0.091464,151.5,-141.3,-29.1,,x,,,,
282172,-5.88154,8.116202,0.11962859,2.042696,-7.5610237,2.2713559,151.5,-155.70001,-21.900002,,x,,,,
282193,-5.342015,7.2794,0.29129562,2.888738,-9.542744,3.567096,137.1,-155.70001,-29.7,,x,,,,
282213,-4.061391,7.113714,-0.117236026,5.289668,-11.303426,4.8857017,132.3,-155.70001,-27.300001,,x,,,,
282233,-3.7288232,6.6860423,0.77997845,5.625036,-15.076316,4.679908,125.100006,-155.70001,-20.1,,x,,,,
282254,-3.267057,5.4078107,0.6681257,6.890288,-15.144914,4.100636,134.70001,-153.3,-20.7,,x,,,,
282274,-3.1450357,3.8167503,0.33137122,8.490908,-16.73029,3.948196,129.90001,-155.70001,-21.900002,,x,,,,
282294,-2.823833,3.8855367,0.38520408,9.245486,-17.683039,5.22107,134.70001,-162.90001,-23.7,,x,,,,
282314,-1.2525114,5.1344595,-1.2650723,10.487872,-15.442172,5.60217,122.700005,-141.3,-13.500001,,x,,,,
282334,-0.7644267,5.0555043,-2.087519,10.381164,-14.649484,4.61131,120.3,-160.5,-20.1,,x,,,,
282398,1.8428785,5.0315785,-11.335407,10.983302,-5.152472,6.501566,120.3,-158.1,-14.1,,x,,,,
282464,2.2394474,9.597204,-9.728795,5.114362,-3.483254,0.87653,96.3,-155.70001,-9.3,,x,,,,
282586,3.6091948,11.998748,-14.101819,-0.99086,9.60372,-3.8262439,105.9,-162.90001,-7.5000005,,x,,,,
282646,0.5203844,9.902855,-11.068038,-7.339986,5.167716,-5.838452,113.100006,-148.5,-6.9,,x,,,,
282681,-0.2865105,8.325552,-9.191663,-8.95585,4.8857017,-5.617414,108.3,-155.70001,-6.3,,x,,,,
282701,-0.90977544,7.823112,-7.5156665,-9.405548,4.0777698,-5.52595,125.100006,-155.70001,-12.3,,x,,,,
282741,-2.0516305,4.9131465,-4.9771476,-7.972612,5.045764,-6.280528,120.3,-153.3,-13.500001,,x,,,,
282761,-1.8685987,5.1990585,-3.4285555,-7.400962,1.951232,-4.352162,132.3,-158.1,-14.700001,,x,,,,
282781,-1.957722,4.9083614,-1.5043296,-7.9192576,1.8292799,-5.205826,129.90001,-167.70001,-18.300001,,x,,,,
282801,-1.9182445,4.0763445,-0.619078,-6.654006,5.44973,-5.243936,146.70001,-158.1,-15.3,,x,,,,
282823,-2.1395574,3.6893458,-0.539525,-5.899428,8.6814575,-4.657042,151.5,-150.90001,-15.900001,,x,,,,
282843,-1.5294516,5.376109,-1.0742648,-4.222588,8.437553,-2.926848,146.70001,-143.70001,-16.5,,x,,,,
282864,-2.0438545,5.3737164,1.2226043,-6.661628,5.320156,-4.222588,149.1,-146.1,-24.900002,,x,,,,
282885,-1.0395725,6.0615807,0.22011662,-5.3811316,10.51836,-2.644834,153.90001,-143.70001,-20.7,,x,,,,
282905,-1.1358736,6.840363,-0.074169725,-6.295772,10.686044,-2.111294,153.90001,-153.3,-16.5,,x,,,,
282927,-1.4588706,7.4696093,-0.7082013,-5.403998,10.846106,-2.2484899,158.70001,-153.3,-18.900002,,x,,,,
282947,-1.6915483,7.79799,-1.0072727,-4.397894,9.710428,-2.40093,156.3,-146.1,-24.300001,,x,,,,
282970,-2.0761542,8.369815,-0.8852516,-4.253076,8.323224,-2.522882,156.3,-143.70001,-24.900002,,x,,,,
282990,-2.7634206,8.024088,-1.1568085,-3.1936178,8.666214,-3.2469718,153.90001,-141.3,-18.900002,,x,,,,
283012,-3.1067545,8.805263,-2.0360787,-1.8673899,7.9649897,-1.67684,161.1,-141.3,-13.500001,,x,,,,
283032,-3.1809244,9.127064,-1.9026928,-1.9054999,4.9314337,-1.280496,161.1,-150.90001,-19.5,,x,,,,
283056,-3.2700477,9.871154,-1.2854092,-1.669218,3.910086,-0.41158798,163.5,-131.70001,-18.900002,,x,,,,
283118,-3.174943,9.688122,-1.8506544,-1.669218,1.3414719,-2.088428,161.1,-150.90001,-22.5,,x,,,,
283224,-2.4236753,8.473891,-2.1748478,-0.41921,-1.463424,0.198172,158.70001,-141.3,-9.900001,,x,,,,
283244,-1.7764846,8.862684,-2.0348823,-0.388722,-1.6311079,0.967994,168.3,-143.70001,-18.900002,,x,,,,
283287,-1.1663787,8.846535,-2.1557074,-0.68597996,-0.94512796,0.312502,165.90001,-146.1,-26.1,,x,,,,
283310,-0.8272317,8.917713,-2.1198187,-0.525918,-1.1432999,0.46494198,156.3,-148.5,-20.7,,x,,,,
283330,-0.9354956,8.988295,-2.0803413,-0.57164997,0.30488,0.083841994,156.3,-136.5,-21.900002,,,,,,
283350,-1.1340791,8.888405,-2.310028,-0.426832,0.80030996,-0.137196,151.5,-141.3,-17.7,,,,,,
283370,-1.1974822,8.865077,-2.68626,0.03811,0.792688,-0.20579399,165.90001,-153.3,-17.1,,,,,,
283433,-1.0180393,8.833974,-2.4541807,0.11432999,0.525918,-0.602138,170.70001,-141.3,-17.1,,,,,,
283489,-1.6963334,9.45664,-1.9385813,0.449698,0.426832,-0.365856,153.90001,-153.3,-21.300001,,,,,,
283584,-4.6876464,8.442788,0.836802,0.213416,-1.996964,1.539644,158.70001,-146.1,-24.300001,,,,,,
283647,-3.9943988,7.2183895,0.96899164,3.643316,-7.9192576,1.745438,158.70001,-143.70001,-18.900002,,x,,,,
283707,-2.7664113,5.828903,-0.6388167,5.434486,-10.21348,2.370442,139.5,-148.5,-20.7,,x,,,,
283747,-1.644295,5.004064,-1.7059038,4.9619217,-12.759228,2.7667859,146.70001,-138.90001,-21.900002,,x,,,,
283767,-1.9894235,2.6886528,-3.5505767,5.929916,-6.0747337,1.98172,153.90001,-143.70001,-17.7,,x,,,,
283791,-0.6555647,4.0009785,-6.5400953,10.868972,-3.2469718,5.510706,129.90001,-153.3,-16.5,,x,,,,
283832,0.4677478,8.61266,-7.576079,6.25004,-15.907114,5.701256,144.3,-148.5,-23.7,,x,,,,
283852,0.24284604,7.7040815,-7.4749928,7.5152917,-11.6845255,3.96344,120.3,-155.70001,-17.7,,x,,,,
283874,0.46116823,11.065047,-9.841247,7.6219997,-4.8857017,5.960404,132.3,-155.70001,-11.1,,x,,,,
283894,1.5342367,12.747025,-11.967047,7.8125496,-2.05794,3.986306,117.9,-160.5,-17.1,,x,,,,
283957,2.3315613,14.783104,-12.163238,2.103672,-1.989342,-1.189032,129.90001,-150.90001,-16.5,,x,,,,
284067,-0.45877567,9.924388,-8.899769,-8.711946,1.8369019,-2.05794,127.50001,-148.5,-7.5000005,,x,,,,
284087,-1.0646945,8.824403,-7.238726,-8.429932,4.786616,-2.881116,139.5,-155.70001,-12.3,,x,,,,
284129,-0.55208594,7.628117,-5.3312483,-6.920776,3.536608,-2.378064,132.3,-153.3,-18.300001,,x,,,,
284307,-0.33077306,6.57718,-0.6053207,-3.6585598,4.702774,-0.907018,158.70001,-150.90001,-18.900002,,x,,,,
284347,-1.2046599,7.1813045,-1.6215656,-3.7576458,7.5610237,-1.8826339,146.70001,-148.5,-22.5,,x,,,,
284423,-3.108549,8.863881,-1.4857872,-1.3490939,7.134192,-0.365856,153.90001,-155.70001,-21.300001,,x,,,,
284443,-2.8124683,9.834068,-1.2094451,-1.471046,3.2469718,0.655492,144.3,-150.90001,-21.900002,,x,,,,
284486,-3.4291537,9.015211,-2.53493,-0.34298998,4.26832,-0.03811,146.70001,-158.1,-19.5,,x,,,,
284506,-2.5582576,10.53569,-2.5337336,-0.68597996,-0.312502,1.768304,146.70001,-148.5,-21.900002,,x,,,,
284526,-1.8608228,11.954486,-1.9062816,-1.722572,-1.6006199,1.501534,151.5,-150.90001,-19.5,,x,,,,
284546,-1.9822458,9.90465,-1.7399979,-2.347576,-0.22865999,-0.785066,161.1,-153.3,-20.1,,x,,,,
284566,-1.1639862,8.634193,-1.263278,-2.317088,-1.6311079,-0.045732,156.3,-158.1,-17.1,,x,,,,
284590,-0.98753405,8.840553,-0.41989636,-1.8597679,-0.49543,1.051836,153.90001,-155.70001,-23.1,,x,,,,
284610,-1.313522,9.159364,-1.4786094,-0.503052,3.2774599,1.006104,149.1,-155.70001,-26.1,,,,,,
284630,-1.3841028,9.843638,-2.4248717,0.19055,2.042696,1.3414719,156.3,-155.70001,-15.3,,,,,,
284650,-1.1986785,10.112803,-1.711287,-0.655492,-0.846042,1.4024479,129.90001,-150.90001,-15.3,,,,,,
284670,-1.0048802,9.499108,-1.6742022,-1.554888,0.396344,0.777444,139.5,-153.3,-16.5,,,,,,
284694,-0.9743749,8.605483,-2.506817,-1.044214,0.373478,0.67073596,153.90001,-138.90001,-23.7,,,,,,
284714,-0.7082013,8.658718,-2.6007257,-0.632626,-1.432936,1.33385,149.1,-155.70001,-28.500002,,,,,,
284734,-0.16090046,9.2377205,-2.087519,-0.792688,-2.385686,1.798792,134.70001,-146.1,-19.5,,,,,,
284758,0.17465775,9.116895,-1.9110668,-0.99086,-1.432936,1.21952,139.5,-170.1,-21.300001,,,,,,
284778,0.0891233,8.672475,-1.723848,-1.25763,-0.64787,0.7622,141.90001,-160.5,-17.7,,,,,,
284799,-0.04426258,9.10254,-2.00019,-1.036592,0.503052,0.69360197,139.5,-148.5,-26.1,,,,,,
284820,-0.2506219,9.027772,-2.2292788,-0.716468,0.548784,-0.007622,151.5,-153.3,-24.300001,,,,,,
284840,-0.14235802,8.907545,-2.0510323,-0.121952,-0.091464,-0.20579399,139.5,-153.3,-11.1,,,,,,
284923,-0.19080761,9.1797,-1.9487498,0.297258,0.099086,-0.41921,146.70001,-148.5,-22.5,,,,,,
284982,-0.51559925,9.037342,-1.7752883,-0.007622,0.846042,-0.617382,129.90001,-150.90001,-10.5,,,,,,
285084,-4.002773,8.176016,1.6604449,-2.080806,0.33536798,-2.088428,144.3,-165.3,-29.1,,,,,,
285104,-4.7414794,7.140033,0.98514146,-0.251526,0.487808,-1.669218,137.1,-153.3,-20.1,,x,,,,
285147,-3.978847,7.509685,0.8816627,2.606724,-6.654006,-1.745438,153.90001,-141.3,-18.900002,,x,,,,
285170,-3.9292011,5.25648,-0.059814297,4.748506,-8.285114,-2.660078,158.70001,-155.70001,-24.900002,,x,,,,
285190,-2.936882,4.3191905,-0.24164976,6.318638,-12.675385,-0.525918,153.90001,-146.1,-21.300001,,x,,,,
285210,-2.0468452,4.52555,-0.54371196,7.286632,-12.469592,1.9054999,163.5,-155.70001,-23.7,,x,,,,
285250,-0.89900887,6.3193803,-2.4117124,6.9588857,-14.192163,4.34454,139.5,-150.90001,-18.900002,,x,,,,
285290,-2.7592335,4.8377805,-6.257772,9.420792,-0.297258,2.01983,141.90001,-143.70001,-23.1,,x,,,,
285328,0.20217232,12.811625,-11.013008,0.907018,-20.716595,6.829312,127.50001,-146.1,-17.1,,x,,,,
285348,0.18662061,10.239012,-6.546077,-0.47256398,-26.273033,2.606724,127.50001,-146.1,-23.7,,x,,,,
285388,0.8667092,12.320549,-9.614551,3.460388,0.87653,3.2545938,127.50001,-153.3,-17.7,,x,,,,
285408,0.535338,13.937329,-10.300022,0.792688,-8.102186,1.097568,120.3,-155.70001,-23.1,,x,,,,
285428,-0.19559275,12.066339,-8.289065,0.777444,-6.966508,-0.34298998,125.100006,-167.70001,-23.7,,x,,,,
285448,0.24404234,11.8402405,-8.534304,1.6387299,-3.025934,0.182928,129.90001,-155.70001,-23.7,,x,,,,
285468,0.93848634,13.065835,-9.650438,0.731712,2.560992,1.204276,115.50001,-153.3,-23.1,,x,,,,
285488,0.89601815,12.357634,-9.824498,-1.059458,3.35368,-0.617382,117.9,-158.1,-23.7,,x,,,,
285508,0.8062967,11.146993,-8.982313,-2.7134318,2.118916,-0.60976,103.50001,-155.70001,-21.300001,,x,,,,
285528,0.63283527,10.48425,-7.49832,-4.786616,3.2469718,-0.449698,122.700005,-148.5,-20.7,,x,,,,
285548,0.5796005,9.562511,-6.7261176,-4.832348,5.990892,-1.6311079,122.700005,-160.5,-23.1,,x,,,,
285568,0.6178817,9.013416,-6.4192705,-4.30643,7.225656,-2.2789779,127.50001,-150.90001,-27.900002,,x,,,,
285631,-0.4384388,7.8625894,-2.9512374,-5.4573517,13.468074,-3.58234,129.90001,-162.90001,-26.1,,x,,,,
285685,-1.2656705,6.719538,-2.510406,-3.650938,8.666214,-2.7362978,139.5,-155.70001,-23.1,,x,,,,
285705,-1.7208574,6.565217,-1.8775707,-3.2622159,9.56561,-4.093014,144.3,-150.90001,-24.300001,,x,,,,
285745,-1.7441849,5.9670744,-1.8817577,-1.8978779,7.6524878,-3.894842,151.5,-158.1,-14.700001,,x,,,,
285765,-1.3733363,7.187286,-1.5725179,-2.111294,7.103704,-3.102154,165.90001,-148.5,-24.300001,,x,,,,
285809,-1.5174887,7.0521054,-2.3094301,-2.164648,8.277492,-2.13416,151.5,-143.70001,-17.7,,x,,,,
285829,-0.94745845,8.445779,-1.9971994,-2.903982,6.9436417,-1.3490939,149.1,-153.3,-21.300001,,x,,,,
285851,-1.3326626,8.765785,-1.4654503,-3.589962,7.218034,-1.8673899,156.3,-141.3,-14.700001,,x,,,,
285871,-2.2567935,8.823805,-1.8584303,-4.03966,8.551884,-2.309466,153.90001,-150.90001,-22.5,,x,,,,
285895,-2.8525438,8.3847685,-1.9613107,-3.932952,7.1265697,-3.1859958,165.90001,-162.90001,-20.1,,x,,,,
285915,-2.899199,7.686735,-1.4953574,-2.89636,4.733262,-2.827762,170.70001,-146.1,-21.900002,,x,,,,
285935,-2.4404233,8.879433,-1.1143403,-2.050318,3.7424018,-0.92226195,168.3,-138.90001,-18.300001,,x,,,,
285957,-2.2890933,11.225349,-1.7071,-2.080806,3.483254,-0.243904,163.5,-150.90001,-26.7,,x,,,,
285978,-2.5385187,10.212095,-1.155014,-2.111294,1.074702,-1.974098,173.1,-148.5,-22.5,,x,,,,
285998,-2.4158995,9.406995,-0.58797455,-2.13416,0.70122397,-2.118916,170.70001,-153.3,-22.5,,x,,,,
286018,-2.719158,9.330432,-0.8362039,-1.67684,1.79117,-2.149404,180.3,-138.90001,-18.300001,,,,,,
286038,-3.128886,9.476379,-1.5180869,-0.82317597,1.821658,-1.669218,168.3,-136.5,-23.1,,,,,,
286098,-2.8340013,9.939342,-1.794429,0.373478,-0.983238,-0.289636,161.1,-134.1,-24.300001,,,,,,
286118,-2.8375902,9.645654,-1.865608,-0.213416,-0.548784,-0.327746,173.1,-141.3,-20.7,,,,,,
286138,-2.5875664,9.20243,-2.0049753,-0.30488,-0.449698,0.251526,177.90001,-134.1,-27.300001,,,,,,
286158,-2.1150336,9.53081,-1.8859448,-0.426832,-0.891774,0.95274997,185.1,-134.1,-18.900002,,,,,,
286221,-1.5408163,8.810048,-2.338141,-0.053354,-0.083841994,0.899396,165.90001,-150.90001,-21.300001,,,,,,
286241,-1.3374476,9.132447,-2.4105163,0.243904,-0.060976,0.92226195,168.3,-143.70001,-21.300001,,,,,,
286281,-1.3069423,8.914722,-2.3913755,0.045732,-0.46494198,0.106708,170.70001,-136.5,-21.300001,,,,,,
286346,-0.90319586,8.920704,-2.0474434,0.022866,0.11432999,-0.259148,168.3,-141.3,-23.1,,,,,,
286366,-0.790745,8.994276,-1.9906198,0.053354,0.442076,-0.289636,177.90001,-155.70001,-20.1,,,,,,
286388,-0.88285905,8.788515,-1.8028029,-0.17530599,0.868908,-0.23628199,165.90001,-148.5,-25.500002,,,,,,
286408,-1.1424531,9.19585,-1.8249342,0.015244,1.280496,-0.26677,165.90001,-138.90001,-23.7,,x,,,,
286430,-1.5121055,9.271216,-1.6783892,-0.274392,1.082324,-0.81555396,165.90001,-138.90001,-12.900001,,x,,,,
286450,-1.9726756,9.031361,-1.5378256,-0.449698,0.92226195,-0.785066,180.3,-143.70001,-14.700001,,x,,,,
286474,-2.8244312,8.5360985,-1.4134119,-0.625004,0.70122397,-0.663114,170.70001,-134.1,-16.5,,x,,,,
286494,-3.2784216,9.253272,-1.5575643,-0.015244,0.129574,0.64787,161.1,-146.1,-20.1,,x,,,,
286514,-3.8221335,10.167832,-1.3314662,-0.19055,-1.280496,0.95274997,156.3,-141.3,-26.1,,x,,,,
286536,-4.108644,9.899864,-1.192697,-0.137196,-2.568614,0.525918,161.1,-143.70001,-21.900002,,x,,,,
286556,-3.9519305,10.024278,-1.0784518,0.594516,-4.474114,1.463424,165.90001,-134.1,-25.500002,,x,,,,
286578,-3.8771627,9.746141,-0.29488447,0.754578,-6.722604,1.577754,153.90001,-146.1,-21.900002,,x,,,,
286598,-3.7264307,9.210205,0.10228245,1.318606,-7.339986,1.509156,177.90001,-146.1,-20.1,,x,,,,
286618,-3.2700477,8.808253,-0.18004103,1.768304,-8.513774,1.29574,168.3,-150.90001,-20.7,,x,,,,
286640,-3.0266035,7.7250166,0.23925719,2.545748,-10.853727,1.250008,156.3,-146.1,-17.7,,x,,,,
286660,-2.6916435,7.128668,0.6459944,2.881116,-11.981784,1.539644,156.3,-146.1,-20.7,,x,,,,
286682,-2.6994193,6.0645714,0.17705032,3.7957559,-11.58544,1.1432999,151.5,-150.90001,-27.300001,,x,,,,
286702,-2.6689138,4.99569,-0.32060462,5.823208,-12.820204,1.3414719,153.90001,-148.5,-24.300001,,x,,,,
286724,-1.6837724,5.7415743,-0.18841504,6.21193,-14.8629,3.147886,153.90001,-143.70001,-21.300001,,x,,,,
286744,-1.7250444,5.084215,-1.1496308,5.914672,-12.965022,2.7210538,163.5,-150.90001,-29.7,,x,,,,
286764,-2.271149,3.0397625,-2.3142152,6.920776,-9.832379,1.204276,144.3,-148.5,-22.5,,x,,,,
286784,-1.5133017,3.6450832,-5.249901,11.143364,-5.929916,4.329296,141.90001,-143.70001,-25.500002,,x,,,,
286805,-0.4635608,7.0634704,-6.6316113,9.123534,-12.141846,7.370474,141.90001,-150.90001,-19.5,,x,,,,
286825,-0.2338739,7.8434486,-5.8851285,8.628104,-11.905563,5.5488157,134.70001,-162.90001,-23.7,,x,,,,
286849,0.47671995,9.364527,-7.7561197,10.304944,-3.856732,5.5945477,134.70001,-162.90001,-18.300001,,x,,,,
286869,0.5664414,11.0518875,-10.076915,8.1250515,1.3567159,4.893324,125.100006,-150.90001,-14.1,,x,,,,
286889,0.99291736,10.718123,-11.642255,7.972612,1.158544,2.637212,120.3,-148.5,-12.3,,x,,,,
286909,1.5922565,12.319951,-12.251762,5.815586,-2.088428,2.873494,110.700005,-146.1,-12.900001,,x,,,,
286929,1.5641439,13.541957,-12.084283,3.2241058,-0.28201398,1.18141,108.3,-148.5,-15.3,,x,,,,
286952,1.7956252,12.965945,-13.111294,1.798792,4.30643,-1.71495,122.700005,-134.1,-12.3,,x,,,,
287014,0.12620817,10.30062,-11.432306,-6.6158957,3.7805119,-2.179892,115.50001,-150.90001,-12.3,,x,,,,
287064,0.20217232,9.808349,-6.673481,-11.471109,3.033556,-1.554888,134.70001,-153.3,-18.300001,,x,,,,
287084,-0.799119,8.327347,-5.2313585,-11.074766,8.551884,-2.7972739,129.90001,-143.70001,-20.7,,x,,,,
287126,-1.58149,6.500618,-5.176329,-8.6204815,9.60372,-1.8445239,137.1,-155.70001,-24.300001,,x,,,,
287146,-1.5264609,6.2523885,-3.1246989,-9.016826,3.7728899,-1.6234859,144.3,-155.70001,-18.300001,,x,,,,
287189,-0.995908,4.8886223,-1.1400605,-6.59303,8.750056,-3.025934,146.70001,-148.5,-26.1,,x,,,,
287209,-0.72076225,4.7372923,-1.3524013,-5.388754,8.95585,-2.888738,134.70001,-158.1,-21.900002,,x,,,,
287249,-0.58976895,5.9640837,-0.8224466,-3.2088618,5.9222937,-2.522882,146.70001,-160.5,-20.7,,x,,,,
287307,-1.5677327,7.3027277,-1.5671346,-3.018312,11.036655,-2.042696,149.1,-143.70001,-19.5,,x,,,,
287328,-1.4839927,8.357254,-2.0863228,-2.332332,6.829312,-2.2027578,161.1,-148.5,-29.1,,x,,,,
287348,-1.3039516,9.107325,-0.43365365,-2.637212,2.469528,-2.500016,161.1,-146.1,-26.7,,x,,,,
287372,-1.8422804,8.904554,0.39178365,-3.650938,7.8887696,-4.070148,149.1,-148.5,-30.900002,,x,,,,
287392,-2.2376528,8.947022,-0.5885727,-2.957336,8.300358,-3.414656,173.1,-143.70001,-20.7,,x,,,,
287414,-2.7508595,9.734179,-0.4133168,-2.576236,6.82169,-2.484772,165.90001,-150.90001,-24.300001,,x,,,,
287434,-3.045744,10.7582,-0.67709786,-2.09605,6.4634557,-1.79117,165.90001,-131.70001,-23.1,,x,,,,
287454,-3.3167028,10.462717,-0.5335435,-1.8673899,5.228692,-2.568614,173.1,-136.5,-30.300001,,x,,,,
287474,-3.4829865,9.737767,-0.6083114,-1.21952,4.11588,-1.974098,165.90001,-131.70001,-21.900002,,x,,,,
287496,-3.832302,9.829284,-0.88226086,-0.785066,4.054904,-0.967994,177.90001,-141.3,-23.7,,x,,,,
287516,-4.054811,9.837059,-1.4971519,-0.15244,3.460388,-0.868908,175.5,-141.3,-20.1,,x,,,,
287536,-4.4938483,9.341199,-1.8632153,0.289636,1.692084,-1.227142,161.1,-141.3,-21.300001,,x,,,,
287556,-4.330555,9.287366,-2.0976875,0.67835796,-0.099086,-0.975616,168.3,-150.90001,-20.1,,x,,,,
287576,-4.3855844,9.122876,-1.9170482,0.34298998,-1.6006199,-1.013726,168.3,-141.3,-30.300001,,x,,,,
287596,-4.047035,8.649746,-2.0480416,0.92226195,-1.974098,-0.60976,173.1,-134.1,-21.300001,,,,,,
287616,-3.6408963,8.781935,-1.8099806,0.716468,-3.330814,0.518296,175.5,-136.5,-23.1,,,,,,
287638,-3.117521,8.950611,-1.6072102,0.41921,-2.01983,1.554888,170.70001,-138.90001,-21.900002,,,,,,
287658,-2.9081712,9.011622,-1.7800735,0.442076,-1.501534,1.707328,177.90001,-134.1,-26.7,,,,,,
287678,-2.259186,8.987098,-1.87458,0.548784,-1.974098,1.699706,173.1,-143.70001,-17.7,,,,,,
287698,-1.6742022,9.670177,-1.7130815,0.640248,-1.94361,1.48629,163.5,-138.90001,-19.5,,,,,,
287718,-1.234567,9.821507,-1.9834421,1.059458,-0.868908,0.121952,168.3,-146.1,-20.1,,,,,,
287739,-1.1849213,9.371704,-2.0683784,1.3490939,-1.074702,-0.716468,163.5,-148.5,-23.1,,,,,,
287759,-1.0407687,9.862182,-2.3495057,1.8521459,-0.47256398,-1.082324,163.5,-138.90001,-26.7,,,,,,
287779,-1.1556122,10.0476055,-2.8639085,1.692084,0.487808,-1.8978779,173.1,-136.5,-30.900002,,,,,,
287799,-1.4857872,8.73528,-3.2664587,1.79117,0.426832,-2.7439198,165.90001,-155.70001,-23.1,,,,,,
287819,-1.1065645,8.540883,-3.5619414,1.585376,-0.861286,-1.56251,180.3,-141.3,-23.1,,,,,,
287840,-0.6430037,9.448266,-3.2903845,0.541162,-1.33385,-0.320124,175.5,-141.3,-23.7,,,,,,
287860,-0.3074455,9.480566,-3.5667264,0.0,0.022866,-0.365856,173.1,-143.70001,-21.900002,,,,,,
287880,0.2033686,9.584643,-3.8735738,-0.121952,-0.03811,0.46494198,180.3,-136.5,-17.1,,,,,,
287900,0.049047723,8.915321,-3.4285555,-0.594516,-1.570132,0.320124,168.3,-146.1,-15.900001,,,,,,
287920,0.3104362,8.206522,-3.0684733,-0.34298998,-1.775926,0.388722,170.70001,-150.90001,-18.900002,,,,,,
287940,0.55746925,8.283682,-2.7526538,-0.47256398,-1.989342,0.853664,177.90001,-143.70001,-20.7,,,,,,
287960,0.40314835,8.253775,-2.4649472,-0.487808,-1.8826339,1.059458,180.3,-146.1,-21.900002,,,,,,
287980,0.6830793,8.364431,-2.2753358,-0.40396598,-1.8445239,1.775926,168.3,-143.70001,-20.1,,,,,,
288001,0.5861801,8.820216,-1.9858347,-0.243904,-1.806414,3.170752,173.1,-138.90001,-24.900002,,,,,,
288021,-0.10228245,9.228748,-2.012153,0.83842,0.64787,1.935988,149.1,-155.70001,-21.300001,,,,,,
288041,-0.33615634,9.483557,-2.2831118,0.739334,0.94512796,1.6387299,144.3,-143.70001,-23.7,,,,,,
288081,-0.87089616,9.604382,-2.7263358,0.541162,1.570132,-0.07622,161.1,-150.90001,-21.300001,,,,,,
288101,-1.070676,9.650438,-2.9225266,0.060976,1.150922,-0.708846,161.1,-146.1,-17.7,,,,,,
288121,-0.9893285,9.359741,-2.8214405,-0.259148,0.91463995,-1.006104,156.3,-148.5,-23.7,,,,,,
288145,-0.96001947,9.407593,-2.6079032,-0.67835796,1.044214,-1.3490939,158.70001,-150.90001,-22.5,,,,,,
288208,-1.3398403,8.740065,-2.3686461,-0.777444,2.59148,-1.71495,168.3,-153.3,-23.7,,,,,,
288228,-1.5156943,9.011622,-2.329767,-0.55640596,2.865872,-1.8750119,163.5,-153.3,-21.900002,,,,,,
288250,-1.6179768,8.695205,-2.3106263,-0.45731997,2.987824,-2.042696,163.5,-146.1,-24.900002,,,,,,
288270,-1.7352128,8.53251,-2.3782165,-0.015244,2.903982,-1.67684,163.5,-155.70001,-26.7,,,,,,
288292,-1.8931226,8.880031,-2.4709287,0.510674,2.6829438,-1.310984,170.70001,-146.1,-18.900002,,,,,,
288312,-1.8518506,9.149793,-2.6378105,0.739334,2.2027578,-1.234764,173.1,-141.3,-21.300001,,,,,,
288332,-1.673604,8.917115,-2.472723,0.785066,1.3643379,-1.29574,168.3,-138.90001,-11.700001,,,,,,
288352,-1.753157,9.238916,-2.5044246,0.739334,1.6387299,-1.02897,168.3,-134.1,-23.7,,,,,,
288375,-1.8333082,9.293945,-2.8411791,0.40396598,1.1204339,-1.1204339,173.1,-131.70001,-15.3,,,,,,
288395,-1.7675124,9.194056,-2.5738091,0.30488,-0.16768399,-0.960372,168.3,-150.90001,-26.1,,,,,,
288419,-1.9930124,9.00923,-1.9050853,0.022866,-1.3414719,-0.60976,168.3,-141.3,-17.7,,,,,,
288439,-2.6300347,9.2377205,-1.3410366,-0.320124,-0.365856,-0.129574,168.3,-141.3,-18.900002,,,,,,
288459,-2.866301,9.362134,-1.3715419,-0.182928,-0.17530599,0.129574,177.90001,-143.70001,-17.1,,,,,,
288479,-3.5739043,10.113999,-1.1059663,-0.312502,-1.737816,0.92226195,165.90001,-141.3,-18.300001,,,,,,
288499,-4.22588,10.869454,-0.56703955,-0.30488,-1.539644,0.87653,175.5,-143.70001,-20.7,,,,,,
288519,-5.689536,9.639074,-1.3195034,0.80030996,0.106708,-0.022866,170.70001,-129.3,-24.300001,,x,,,,
288540,-6.680659,9.542773,-2.1820257,1.996964,-2.492394,1.6082419,173.1,-143.70001,-23.7,,x,,,,
288560,-6.1058435,10.509372,-2.0348823,2.187514,-7.4085836,3.338436,180.3,-138.90001,-18.300001,,x,,,,
288582,-5.9413543,9.974632,-1.1980804,1.471046,-10.160126,2.987824,165.90001,-143.70001,-17.7,,x,,,,
288602,-6.2685385,8.354861,-1.5826863,1.996964,-9.855246,2.301844,149.1,-148.5,-24.900002,,x,,,,
288622,-5.7290134,6.9635806,-2.2705507,3.094532,-13.361365,2.36282,168.3,-148.5,-21.300001,,x,,,,
288644,-4.1971693,6.869074,-1.4086267,3.871976,-18.551947,4.176856,175.5,-146.1,-24.900002,,x,,,,
288664,-3.74916,6.701594,-1.9601145,5.343022,-17.5306,3.84911,163.5,-146.1,-17.1,,x,,,,
288684,-2.6994193,6.560432,-2.506817,6.486322,-20.594643,4.756128,153.90001,-146.1,-24.900002,,x,,,,
288704,-1.3583827,6.993488,-1.6514727,5.79272,-22.157154,5.79272,161.1,-153.3,-23.7,,x,,,,
288724,-1.4068322,5.852231,-2.1287909,5.495462,-17.60682,4.5884438,141.90001,-158.1,-24.300001,,x,,,,
288744,0.26079035,5.513682,-4.0177264,7.103704,-13.269901,5.0838737,137.1,-143.70001,-25.500002,,x,,,,
288764,1.6849687,6.6220407,-5.004662,5.8613176,-16.806509,6.4939437,134.70001,-150.90001,-25.500002,,x,,,,
288784,1.481002,5.9096527,-3.6151762,5.000032,-16.12815,5.701256,151.5,-155.70001,-24.300001,,x,,,,
288804,2.4428158,7.518059,-4.719348,6.4177237,-10.449761,6.577786,134.70001,-155.70001,-21.900002,,x,,,,
288824,2.477508,8.801076,-5.739182,4.83997,-6.0290017,5.160094,129.90001,-160.5,-21.300001,,x,,,,
288844,2.505621,10.653524,-6.8044744,2.088428,-2.583858,4.0472817,129.90001,-155.70001,-21.300001,,x,,,,
288864,1.5085166,10.543467,-7.291961,0.899396,-0.099086,0.312502,117.9,-158.1,-18.900002,,x,,,,
288886,-0.012561003,9.39563,-7.698698,0.64787,3.01069,-2.157026,98.700005,-160.5,-23.7,,x,,,,
288946,-0.50602895,11.441278,-9.809545,1.471046,5.266802,-2.027452,117.9,-153.3,-17.7,,x,,,,
289047,-1.9206371,9.342395,-8.599502,-6.158576,9.016826,-2.2713559,134.70001,-160.5,-18.300001,,x,,,,
289087,-1.3308681,8.70298,-5.0722523,-8.605238,2.179892,-0.259148,137.1,-158.1,-18.300001,,x,,,,
289287,-0.09450659,7.5419846,-0.7315289,-2.980202,7.35523,-3.422278,144.3,-141.3,-19.5,,x,,,,
289307,-0.21533147,7.6550336,-0.68846256,-4.100636,10.609824,-4.0015497,158.70001,-158.1,-19.5,,x,,,,
289347,-1.6042194,7.3822803,-1.6209675,-4.131124,9.900978,-2.82014,165.90001,-136.5,-18.300001,,x,,,,
289367,-2.2478213,8.420058,-0.9486548,-4.390272,8.833898,-2.507638,175.5,-148.5,-20.1,,x,,,,
289387,-3.4746125,8.076126,-0.89841074,-4.0472817,10.426896,-3.323192,173.1,-143.70001,-17.7,,x,,,,
289407,-3.5547638,8.790309,-1.5587605,-3.2469718,9.489389,-2.2103798,168.3,-141.3,-21.300001,,x,,,,
289430,-3.869985,9.86577,-1.6107991,-2.568614,7.6524878,-2.2103798,173.1,-146.1,-27.300001,,x,,,,
289450,-4.292274,9.658215,-1.9511424,-2.088428,6.0747337,-2.492394,170.70001,-148.5,-23.7,,x,,,,
289491,-3.7880394,10.460922,-2.4912655,-0.67073596,3.01069,-2.179892,165.90001,-146.1,-15.3,,,,,,
289527,-3.3944614,10.143907,-1.7836623,-1.059458,0.754578,-2.050318,175.5,-136.5,-16.5,,,,,,
289569,-3.162382,9.835265,-2.162885,-0.365856,1.417692,-1.730194,177.90001,-141.3,-17.1,,,,,,
289708,-1.5707234,8.613258,-2.2286806,0.091464,-1.1432999,0.99086,185.1,-141.3,-16.5,,,,,,
289728,-1.4337487,8.832179,-2.4063292,0.28201398,-0.95274997,1.013726,182.70001,-134.1,-20.1,,,,,,
289770,-1.2746427,8.761,-2.8034961,0.731712,-1.3567159,0.777444,182.70001,-131.70001,-15.900001,,,,,,
289790,-1.2572966,8.655727,-2.4428158,0.358234,-1.493912,0.617382,165.90001,-134.1,-24.900002,,,,,,
289810,-1.0617038,8.812441,-2.527154,0.221038,-0.746956,0.503052,182.70001,-131.70001,-19.5,,,,,,
289830,-1.0611056,8.865675,-2.5462947,-0.03811,-0.67835796,0.22865999,180.3,-143.70001,-21.900002,,,,,,
289851,-1.1155367,8.726308,-2.4320493,-0.091464,-0.510674,-0.030488,168.3,-143.70001,-21.300001,,,,,,
289871,-1.1693695,8.629409,-2.1975772,-0.274392,-0.55640596,-0.30488,168.3,-138.90001,-22.5,,,,,,
289894,-1.3236904,8.641372,-2.079145,-0.015244,-0.213416,-0.327746,180.3,-143.70001,-18.900002,,,,,,
289914,-1.5402181,9.00265,-1.9864328,0.182928,-0.274392,-0.144818,175.5,-138.90001,-16.5,,,,,,
289934,-2.1622868,8.785524,-1.5432088,-0.045732,-0.34298998,-0.60976,185.1,-138.90001,-30.300001,,,,,,
289954,-3.1767373,9.004444,-1.4164026,1.204276,0.20579399,0.396344,182.70001,-143.70001,-20.7,,,,,,
289978,-4.374818,11.242695,-0.38221335,1.265252,-3.35368,1.432936,185.1,-143.70001,-17.7,,,,,,
289998,-6.029281,10.71633,2.5714166,-0.099086,-4.68753,0.69360197,185.1,-148.5,-17.1,,,,,,
290020,-7.3146906,10.108616,1.1693695,1.1204339,3.559474,1.250008,177.90001,-148.5,-25.500002,,x,,,,
290102,-4.7169557,8.043827,-2.8800583,6.692116,-13.940638,7.835416,168.3,-150.90001,-16.5,,x,,,,
290124,-3.1599894,6.903766,-2.8094776,6.714982,-16.478764,6.981752,151.5,-143.70001,-25.500002,,x,,,,
290144,-1.4032434,6.103451,-2.883049,7.6524878,-17.728771,7.4848037,146.70001,-148.5,-17.7,,x,,,,
290186,0.14654502,4.902978,-2.3746276,7.027484,-16.676935,6.082356,129.90001,-148.5,-15.900001,,x,,,,
290207,0.10646945,4.0314837,-2.7466726,7.218034,-15.907114,4.778994,132.3,-158.1,-17.1,,x,,,,
290227,0.72076225,3.6379056,-3.1061563,7.9802337,-15.518392,5.061008,129.90001,-162.90001,-14.1,,x,,,,
290248,0.5120104,3.217411,-3.287992,7.766818,-13.315634,5.37351,120.3,-158.1,-18.900002,,x,,,,
290268,0.9283179,4.0296893,-4.5883546,8.445176,-7.553402,5.556438,122.700005,-155.70001,-12.900001,,x,,,,
290311,2.6533623,8.478079,-8.661709,7.599134,-1.6234859,5.0076537,117.9,-150.90001,-17.7,,x,,,,
290352,1.6125934,9.176111,-10.551242,5.785098,2.126538,1.288118,98.700005,-162.90001,-11.1,,x,,,,
290427,2.4751155,11.729584,-12.3372965,-1.9054999,-0.625004,-1.166166,103.50001,-150.90001,-10.5,,x,,,,
290447,1.4104211,11.673956,-11.322248,-2.97258,2.93447,-2.2408679,113.100006,-136.5,-7.5000005,,x,,,,
290489,0.91934574,10.863473,-12.235015,-4.169234,7.16468,-2.911604,105.9,-155.70001,-12.3,,x,,,,
290513,0.736314,10.349668,-10.383762,-7.5000477,2.865872,-3.6738038,110.700005,-146.1,-11.700001,,x,,,,
290554,-0.67410713,8.617446,-7.8745522,-10.487872,9.1159115,-3.7881339,117.9,-150.90001,-6.3,,x,,,,
290578,-1.4385339,7.217791,-7.5455737,-10.55647,9.253108,-3.513742,96.3,-153.3,-13.500001,,x,,,,
290598,-1.7256424,6.7470527,-6.156686,-11.532085,3.6585598,-2.644834,115.50001,-155.70001,-18.300001,,x,,,,
290618,-1.9200389,5.880942,-3.5033233,-11.669282,-0.099086,-3.12502,117.9,-165.3,-17.7,,x,,,,
290638,-1.7274369,5.0943837,-1.5342367,-9.626586,1.6158639,-3.16313,120.3,-155.70001,-17.7,,x,,,,
290662,-0.9103736,5.565122,-0.67709786,-7.50767,5.0991178,-2.01983,129.90001,-153.3,-20.7,,x,,,,
290683,-0.27753833,6.878046,0.24284604,-8.0945635,3.7119138,-1.6387299,132.3,-167.70001,-18.900002,,x,,,,
290703,-0.36426908,6.723127,1.1699677,-8.559505,6.303394,-3.39179,125.100006,-153.3,-24.300001,,x,,,,
290724,-0.21533147,6.2523885,0.12740445,-8.1555395,8.72719,-4.146368,141.90001,-155.70001,-17.7,,x,,,,
290744,-0.32419348,6.2978473,0.21353704,-7.218034,6.158576,-4.207344,139.5,-155.70001,-29.1,,x,,,,
290764,-0.47073853,6.334334,0.539525,-5.67839,5.75461,-4.15399,134.70001,-158.1,-29.1,,x,,,,
290784,-0.48808467,7.187884,0.32359535,-4.123502,5.884184,-3.323192,141.90001,-155.70001,-35.7,,x,,,,
290847,-2.0911078,8.8166275,-1.6658282,-1.1356779,7.9040136,-3.12502,158.70001,-146.1,-31.500002,,x,,,,
290871,-2.2304752,8.742457,-1.079648,-1.280496,3.6814258,-3.16313,168.3,-153.3,-23.7,,x,,,,
290891,-2.2143252,9.285571,-1.2668668,-1.051836,5.3963757,-2.2332458,161.1,-153.3,-32.100002,,x,,,,
290911,-2.5133967,9.445874,-1.9977975,-1.013726,6.8674216,-2.40093,175.5,-150.90001,-24.300001,,x,,,,
290956,-2.3824034,9.210205,-2.1305852,0.091464,3.2927039,-1.79117,165.90001,-143.70001,-25.500002,,x,,,,
290976,-2.3608704,9.352564,-1.8464674,0.137196,3.864354,-1.661596,158.70001,-134.1,-24.300001,,x,,,,
291016,-2.5863702,9.981212,-2.5582576,-0.015244,3.170752,-0.449698,165.90001,-136.5,-26.1,,x,,,,
291036,-2.5522761,9.540978,-2.3363464,-0.251526,2.187514,-0.67835796,180.3,-150.90001,-29.7,,x,,,,
291056,-2.4446104,9.307703,-2.1323798,-0.259148,1.775926,-0.67835796,170.70001,-143.70001,-23.7,,x,,,,
291079,-2.3530943,9.561316,-2.6132867,0.327746,2.919226,-0.731712,173.1,-150.90001,-25.500002,,x,,,,
291099,-2.8124683,8.923695,-2.91176,0.785066,2.545748,-0.899396,158.70001,-146.1,-18.300001,,x,,,,
291119,-2.920134,8.520547,-2.9769576,1.1356779,1.318606,-0.17530599,165.90001,-143.70001,-26.1,,x,,,,
291139,-2.7377005,9.031361,-2.8645067,1.234764,0.289636,0.70122397,173.1,-146.1,-18.300001,,x,,,,
291199,-2.4063292,8.759804,-3.4937532,0.396344,-0.625004,1.196654,153.90001,-150.90001,-15.3,,,,,,
291219,-2.2077458,8.8602915,-2.6216607,-0.129574,-1.730194,1.310984,163.5,-153.3,-19.5,,,,,,
291242,-1.9361888,9.158167,-2.5827813,-0.007622,-0.28201398,1.196654,170.70001,-138.90001,-17.1,,,,,,
291262,-1.9858347,9.237122,-2.9069748,-0.16768399,0.34298998,0.632626,161.1,-143.70001,-19.5,,,,,,
291345,-1.8476636,9.443481,-3.4817903,-0.091464,0.182928,-0.30488,168.3,-143.70001,-23.1,,,,,,
291461,-0.14355431,9.182691,-2.6976247,-0.853664,-0.022866,1.29574,153.90001,-150.90001,-23.1,,,,,,
291503,0.6250594,9.366919,-3.0134442,-0.541162,0.160062,-0.22865999,151.5,-131.70001,-31.500002,,,,,,
291543,0.2536126,6.8624945,-2.4260678,-0.45731997,0.091464,-1.585376,149.1,-138.90001,-20.7,,,,,,
291827,-2.0187325,8.716738,-1.8691968,-0.716468,2.195136,-1.29574,168.3,-153.3,-26.1,,,,,,
291885,-2.1138372,8.855507,-1.7244462,-0.22865999,1.75306,-0.525918,165.90001,-160.5,-23.7,,x,,,,
291984,-3.9112568,10.847322,-1.263278,-1.150922,-1.98172,2.027452,158.70001,-143.70001,-17.1,,x,,,,
292004,-4.8216305,8.948817,-0.5957504,-2.195136,-1.585376,0.7622,153.90001,-148.5,-18.300001,,x,,,,
292046,-5.363548,9.347778,-0.86611104,0.251526,-6.1052217,3.2622159,144.3,-148.5,-15.900001,,x,,,,
292067,-4.472315,9.32146,-1.0892184,1.8292799,-10.1982355,4.367406,149.1,-136.5,-28.500002,,x,,,,
292109,-2.5205746,8.303421,0.17286332,4.138746,-16.84462,5.686012,139.5,-160.5,-23.1,,x,,,,
292129,-2.0426583,7.6532393,0.13278773,4.9009457,-17.469624,4.8857017,139.5,-165.3,-26.7,,x,,,,
292149,-1.991816,6.5239453,0.053832866,6.143332,-18.277555,3.7652678,134.70001,-165.3,-26.7,,x,,,,
292169,-2.0055733,5.6721897,-0.3828115,7.568646,-18.590057,3.018312,134.70001,-153.3,-18.900002,,x,,,,
292189,-1.472628,5.099169,-0.71478087,9.085423,-19.474209,2.8048959,110.700005,-158.1,-21.300001,,x,,,,
292211,-0.8685036,4.883837,-0.8003153,9.626586,-19.664759,3.094532,127.50001,-162.90001,-20.7,,x,,,,
292231,-0.82603544,4.3479013,-1.2112396,9.961954,-17.065659,2.7972739,115.50001,-167.70001,-18.900002,,x,,,,
292251,-1.1950897,4.92152,-3.1139324,11.35678,-12.469592,2.85825,120.3,-155.70001,-23.1,,x,,,,
292313,0.9731786,8.615651,-9.098352,6.5854077,-11.448244,2.660078,117.9,-162.90001,-16.5,,x,,,,
292345,1.2872037,11.220564,-9.988988,6.730226,-3.864354,4.169234,105.9,-153.3,-16.5,,x,,,,
292366,2.329767,11.877325,-10.973531,4.733262,-0.015244,2.187514,101.100006,-160.5,-18.900002,,x,,,,
292406,2.3339539,11.709247,-12.540666,3.033556,6.257662,-1.013726,98.700005,-153.3,-17.1,,x,,,,
292448,2.3435242,11.541168,-12.468888,-1.9054999,4.0320377,-3.109776,98.700005,-148.5,-17.1,,x,,,,
292468,1.276437,10.663692,-10.934053,-4.359784,5.3963757,-4.53509,101.100006,-155.70001,-15.900001,,x,,,,
292489,0.635826,9.64984,-10.375986,-5.228692,9.009204,-4.199722,93.9,-153.3,-17.7,,x,,,,
292532,-0.35948393,8.13295,-8.141324,-8.605238,7.3476076,-3.475632,105.9,-170.1,-8.1,,x,,,,
292587,-0.73571587,7.510283,-3.368143,-9.192132,4.428382,-2.82014,117.9,-153.3,-12.3,,x,,,,
292607,-0.41092423,6.994086,-2.5361261,-7.9649897,10.350676,-4.336918,113.100006,-165.3,-18.900002,,x,,,,
292647,-0.94805664,5.6703954,-3.12111,-6.257662,11.39489,-4.76375,125.100006,-160.5,-20.7,,x,,,,
292667,-0.9145606,5.6045995,-2.3489075,-5.3811316,8.833898,-3.986306,125.100006,-158.1,-12.900001,,x,,,,
292687,-0.66214424,6.363643,-1.6789873,-4.908568,8.597616,-3.35368,120.3,-153.3,-23.7,,x,,,,
292707,-0.7201641,6.4073076,-1.5695271,-4.824726,9.824758,-3.7347798,125.100006,-155.70001,-17.7,,x,,,,
292727,-0.46714967,6.724921,-1.8309157,-4.336918,9.725672,-3.2774599,134.70001,-162.90001,-17.7,,x,,,,
292747,-0.73451954,6.456355,-1.1454438,-5.495462,7.4238276,-3.46801,134.70001,-167.70001,-16.5,,x,,,,
292767,-0.2560052,7.092779,-1.0940034,-4.80186,8.506152,-2.484772,134.70001,-153.3,-13.500001,,x,,,,
292787,-0.4007558,7.952311,-1.4134119,-4.855214,9.062558,-2.7210538,132.3,-155.70001,-21.900002,,x,,,,
292810,-0.9845433,8.37759,-1.7956252,-3.62045,8.72719,-3.102154,137.1,-162.90001,-18.300001,,x,,,,
292830,-1.4702355,8.475088,-1.5037315,-3.559474,7.385718,-3.7728899,144.3,-162.90001,-19.5,,x,,,,
292852,-1.723848,8.347085,-1.1747528,-3.041178,6.78358,-3.7805119,132.3,-158.1,-22.5,,x,,,,
292872,-2.476312,8.6324,-1.5073203,-2.919226,7.8582816,-3.39179,153.90001,-150.90001,-24.300001,,x,,,,
292895,-2.6958303,9.288562,-2.0827339,-2.408552,7.73633,-2.8048959,149.1,-162.90001,-20.7,,x,,,,
292915,-2.2436342,10.272508,-2.4649472,-1.722572,5.5183277,-2.027452,151.5,-158.1,-21.900002,,x,,,,
292937,-2.021125,10.46511,-1.7800735,-1.8826339,2.995446,-2.179892,153.90001,-148.5,-26.7,,x,,,,
292957,-2.2573917,9.686926,-1.7800735,-1.768304,3.589962,-2.09605,161.1,-155.70001,-16.5,,x,,,,
292977,-2.2890933,9.385462,-1.9744699,-1.196654,3.041178,-1.6082419,156.3,-150.90001,-21.900002,,x,,,,
292999,-2.1491277,10.07512,-1.3254849,-1.471046,1.318606,-0.907018,153.90001,-153.3,-23.1,,x,,,,
293019,-2.313617,9.971044,-1.7603347,-1.29574,2.987824,-1.1432999,144.3,-153.3,-15.3,,x,,,,
293041,-2.484686,9.394434,-1.945759,-1.1204339,2.164648,-1.25763,168.3,-146.1,-23.7,,x,,,,
293062,-2.5169857,8.995472,-1.7896438,-0.846042,0.861286,-0.769822,156.3,-141.3,-21.300001,,x,,,,
293123,-1.7017168,9.342395,-1.9385813,-0.327746,-0.632626,1.051836,158.70001,-143.70001,-20.7,,x,,,,
293143,-1.4881797,9.112708,-1.9607127,-0.480186,-0.82317597,0.960372,151.5,-146.1,-25.500002,,x,,,,
293163,-1.2130339,9.108521,-2.0031807,-0.41921,-1.3414719,1.1204339,156.3,-150.90001,-23.1,,,,,,
293186,-1.1269014,9.194056,-1.9134594,-0.503052,-1.288118,0.92226195,153.90001,-146.1,-19.5,,,,,,
293206,-1.0688815,9.299329,-2.2221012,-0.40396598,-1.1432999,0.602138,149.1,-148.5,-20.1,,,,,,
293228,-0.7596416,9.225758,-1.9948068,-0.541162,-2.027452,0.56402797,163.5,-153.3,-21.300001,,,,,,
293248,-0.6591536,9.067847,-1.7812698,-0.785066,-1.006104,0.068598,161.1,-138.90001,-18.900002,,,,,,
293308,-0.4384388,9.211402,-2.300458,0.312502,0.022866,-0.40396598,156.3,-162.90001,-17.7,,,,,,
293328,-0.20935003,9.443481,-2.26756,0.243904,0.3811,-0.739334,163.5,-148.5,-31.500002,,,,,,
293348,-0.31641763,9.323853,-2.2735415,-0.20579399,1.227142,-1.150922,151.5,-143.70001,-28.500002,,,,,,
293368,-0.5538804,9.062464,-2.4990413,-0.26677,2.157026,-1.425314,163.5,-148.5,-17.1,,,,,,
293392,-0.7506694,8.764589,-2.467938,-0.503052,2.195136,-1.493912,163.5,-150.90001,-12.900001,,,,,,
293412,-0.640013,9.039735,-2.4529843,-0.442076,2.637212,-1.3795819,161.1,-150.90001,-14.700001,,,,,,
293433,-0.8810646,9.222168,-2.515191,-0.45731997,3.338436,-1.684462,156.3,-153.3,-22.5,,,,,,
293453,-1.2190154,8.910536,-2.6378105,-0.15244,3.50612,-1.760682,156.3,-141.3,-18.900002,,,,,,
293473,-1.3206997,8.50978,-2.2579896,0.007622,2.93447,-1.33385,158.70001,-148.5,-23.7,,,,,,
293494,-1.5258627,8.796888,-1.8638135,-0.030488,2.812518,-0.67835796,158.70001,-143.70001,-22.5,,,,,,
293514,-1.5838826,9.635485,-1.9888253,0.259148,3.475632,-0.30488,156.3,-134.1,-19.5,,,,,,
293534,-2.1682682,9.23473,-1.6526691,-0.327746,2.6677,-0.83842,149.1,-141.3,-12.900001,,,,,,
293554,-2.62824,9.597802,-1.6341265,-0.358234,1.722572,-0.243904,161.1,-148.5,-17.1,,,,,,
293598,-4.8682857,8.606679,-1.108359,-0.442076,-2.027452,0.144818,168.3,-148.5,-18.300001,,,,,,
293618,-4.8551264,9.251477,-1.3153164,0.33536798,-4.176856,1.798792,163.5,-150.90001,-17.7,,,,,,
293638,-5.0895987,9.206616,-1.5802938,1.326228,-6.318638,2.408552,161.1,-160.5,-25.500002,,x,,,,
293658,-4.8503413,9.477575,-2.2191105,2.599102,-8.925362,3.346058,158.70001,-150.90001,-21.900002,,x,,,,
293678,-4.878454,8.539687,-2.3195984,3.346058,-11.669282,3.643316,144.3,-148.5,-22.5,,x,,,,
293698,-4.250404,7.8691688,-2.7466726,4.4207597,-14.397958,4.756128,156.3,-148.5,-29.7,,x,,,,
293718,-3.1593912,7.7746625,-2.2514102,4.5579557,-18.971157,5.8918056,144.3,-162.90001,-27.900002,,x,,,,
293738,-1.8871411,7.7459517,-1.196286,4.504602,-21.60837,6.4939437,151.5,-158.1,-29.1,,x,,,,
293762,-1.0880221,7.257867,-0.3995595,4.740884,-21.3416,6.158576,137.1,-160.5,-25.500002,,x,,,,
293782,-1.0186375,6.547273,-0.7387066,5.746988,-19.253172,5.647902,129.90001,-155.70001,-21.300001,,x,,,,
293804,0.07058087,5.9012785,-0.7267437,6.9588857,-20.175434,5.5640597,127.50001,-162.90001,-26.7,,x,,,,
293825,0.4533924,5.982028,-0.26258478,5.914672,-15.503148,5.18296,113.100006,-158.1,-21.300001,,x,,,,
293845,0.111852735,6.069357,-2.8561327,6.3719916,-8.993959,3.856732,117.9,-170.1,-22.5,,x,,,,
293865,1.6460894,7.6412764,-5.268443,5.586926,-5.5030837,3.2469718,113.100006,-162.90001,-15.900001,,x,,,,
293887,1.5611532,7.388262,-6.6692944,3.147886,-4.83997,0.94512796,120.3,-150.90001,-21.900002,,x,,,,
293907,1.5336386,6.772175,-7.609575,5.556438,-5.5335717,1.989342,115.50001,-153.3,-21.300001,,x,,,,
293968,2.6132867,11.9497,-9.050501,4.786616,-0.259148,0.731712,105.9,-167.70001,-23.1,,x,,,,
293988,2.3112245,11.834259,-10.137327,4.093014,4.283564,-0.830798,113.100006,-155.70001,-14.1,,x,,,,
294008,2.033088,12.296623,-11.4729805,3.498498,7.5000477,-1.6006199,96.3,-150.90001,-22.5,,x,,,,
294028,2.1389592,12.597489,-12.40369,1.9054999,7.195168,-2.32471,117.9,-158.1,-13.500001,,x,,,,
294048,2.1287909,12.7577915,-12.043609,-1.737816,4.9543,-3.6890478,103.50001,-160.5,-18.900002,,x,,,,
294068,1.2913907,11.409577,-10.777938,-4.5731997,4.519846,-5.75461,120.3,-153.3,-20.1,,x,,,,
294088,0.28770676,9.367517,-9.5661,-5.9070497,5.9070497,-5.94516,122.700005,-150.90001,-13.500001,,x,,,,
294112,-0.27753833,9.06067,-8.523538,-7.5915117,7.416206,-4.283564,117.9,-153.3,-18.300001,,x,,,,
294132,-1.0078709,8.868666,-7.5049,-8.582372,9.626586,-3.7957559,110.700005,-158.1,-13.500001,,x,,,,
294152,-1.9702829,7.785429,-6.851728,-8.300358,10.327809,-4.207344,125.100006,-160.5,-21.300001,,x,,,,
294172,-2.4583676,6.8379703,-5.8629975,-7.942124,8.033587,-3.407034,132.3,-172.5,-17.1,,x,,,,
294192,-1.7998122,6.7422676,-3.9387715,-8.6509695,4.329296,-2.195136,105.9,-160.5,-17.1,,x,,,,
294212,-1.6586505,7.183697,-1.9768625,-8.490908,6.143332,-1.806414,127.50001,-155.70001,-21.300001,,x,,,,
294253,-1.8123732,5.2953596,-2.3309631,-5.655524,10.1677475,-2.027452,134.70001,-155.70001,-30.300001,,x,,,,
294273,-1.0234226,6.293062,-1.4205896,-4.298808,6.905532,-0.87653,134.70001,-150.90001,-21.300001,,x,,,,
294296,-1.0575168,6.074142,-0.20097604,-3.567096,6.722604,-1.6082419,132.3,-158.1,-18.300001,,x,,,,
294317,-0.89900887,5.937167,-0.2978752,-3.6585598,8.864386,-1.493912,129.90001,-158.1,-27.300001,,x,,,,
294337,-1.4080286,5.8588104,-1.1568085,-2.2637339,10.945191,-0.891774,139.5,-148.5,-27.300001,,x,,,,
294357,-1.1568085,7.7094646,-2.1407537,-0.426832,9.634208,0.35061198,137.1,-162.90001,-24.300001,,x,,,,
294378,-1.0084691,8.781935,-1.9529368,-0.510674,7.3323636,-0.068598,129.90001,-150.90001,-22.5,,x,,,,
294398,-0.64659256,9.019398,-1.397262,-1.280496,6.234796,-0.586894,139.5,-158.1,-22.5,,x,,,,
294421,-0.66992015,8.878835,-1.0688815,-2.6905658,6.74547,-1.1280559,151.5,-160.5,-17.7,,x,,,,
294441,-1.3583827,8.097061,-1.2537076,-2.995446,7.85066,-1.8750119,125.100006,-155.70001,-14.700001,,x,,,,
294505,-1.9439646,10.952596,-1.6460894,-1.6234859,3.993928,-4.0167937,141.90001,-150.90001,-26.1,,x,,,,
294525,-2.137763,10.486643,-1.5850788,-1.082324,3.041178,-4.0625257,156.3,-150.90001,-20.1,,x,,,,
294545,-2.4864802,10.194151,-1.7376053,-0.57164997,2.85825,-3.437522,153.90001,-143.70001,-23.1,,x,,,,
294567,-2.689849,9.857994,-2.0683784,-0.068598,2.2561119,-2.6905658,149.1,-158.1,-15.900001,,x,,,,
294587,-2.740093,9.654626,-2.0911078,0.434454,0.80793196,-1.730194,163.5,-143.70001,-18.900002,,x,,,,
294609,-2.6491752,9.255664,-1.8955151,0.40396598,-0.083841994,-0.99086,156.3,-138.90001,-21.900002,,x,,,,
294649,-1.9529368,9.269422,-1.6795855,0.045732,-1.1204339,0.594516,158.70001,-153.3,-23.1,,x,,,,
294765,-0.69504213,8.878835,-1.8297193,-0.548784,-1.3872039,1.189032,153.90001,-150.90001,-18.900002,,,,,,
294867,-0.3995595,8.790309,-2.3453186,0.312502,-0.81555396,0.33536798,141.90001,-167.70001,-18.900002,,,,,,
294887,-0.593956,9.322059,-2.1275945,0.11432999,-0.861286,0.33536798,141.90001,-146.1,-24.900002,,,,,,
294927,-0.62027425,8.843544,-2.3865905,-0.030488,-0.57164997,-0.81555396,149.1,-150.90001,-26.7,,,,,,
294947,-0.5724228,9.103138,-2.4027402,0.053354,-0.3811,-0.57164997,132.3,-158.1,-17.7,,,,,,
294989,-0.4163075,9.264636,-2.4027402,-0.068598,0.56402797,-0.640248,137.1,-158.1,-26.7,,,,,,
295011,-0.45757937,8.856703,-2.3895812,-0.053354,0.861286,-0.586894,158.70001,-155.70001,-24.300001,,,,,,
295032,-0.49047723,8.802272,-2.3231874,0.28201398,1.059458,-0.327746,146.70001,-153.3,-22.5,,,,,,
295052,-0.5425157,9.217981,-2.2065494,0.56402797,1.196654,-0.17530599,144.3,-155.70001,-23.7,,,,,,
295074,-0.8553445,9.206616,-1.9403758,0.20579399,1.432936,-0.426832,139.5,-150.90001,-26.7,,,,,,
295094,-1.5784993,9.405798,-1.7220536,0.243904,1.8369019,0.144818,151.5,-143.70001,-19.5,,,,,,
295117,-3.1593912,9.576269,-1.12092,-0.64787,1.6158639,0.68597996,139.5,-150.90001,-20.1,,,,,,
295159,-5.4149885,10.460922,-1.6221638,-0.708846,2.035074,0.510674,144.3,-160.5,-21.900002,,x,,,,
295179,-6.0011683,9.388453,-1.422384,-0.983238,-0.525918,1.044214,146.70001,-153.3,-22.5,,x,,,,
295202,-5.886325,8.310598,-1.907478,0.26677,-2.2332458,2.355198,141.90001,-160.5,-13.500001,,x,,,,
295222,-4.471119,8.469107,-2.4990413,1.478668,-6.0747337,4.474114,129.90001,-162.90001,-27.300001,,x,,,,
295282,-1.4469079,8.504995,-1.9176464,3.475632,-14.573264,3.84911,117.9,-160.5,-21.300001,,x,,,,
295302,-1.4756187,6.220687,-0.9277198,3.445144,-15.670832,1.669218,125.100006,-158.1,-20.7,,x,,,,
295323,-1.8620191,4.8300047,-1.7346146,5.289668,-14.054968,3.12502,141.90001,-158.1,-26.1,,x,,,,
295343,1.2190154,6.5065994,-1.430758,5.251558,-16.303457,5.403998,120.3,-162.90001,-23.7,,x,,,,
295363,1.1603974,6.4671216,-1.1699677,5.853696,-15.442172,4.314052,115.50001,-155.70001,-18.300001,,x,,,,
295385,-0.22908875,5.112926,-2.0719674,6.654006,-10.823239,3.1783738,120.3,-165.3,-21.300001,,x,,,,
295405,0.99889874,4.356275,-3.343619,7.0503497,-9.039692,3.902464,115.50001,-162.90001,-18.900002,,x,,,,
295425,1.5611532,4.7911253,-4.2366467,7.339986,-8.567128,4.4360037,105.9,-177.3,-16.5,,x,,,,
295445,2.853142,6.943842,-5.5447855,8.483286,-5.4421077,6.532054,105.9,-167.70001,-17.7,,x,,,,
295467,3.2527015,11.035738,-6.9145327,6.5854077,-6.577786,5.0381417,89.100006,-158.1,-18.900002,,x,,,,
295487,2.9021897,10.867062,-7.79799,5.823208,-2.995446,2.51526,91.5,-167.70001,-11.1,,x,,,,
295509,3.7084863,11.456232,-9.451856,5.0076537,0.26677,1.585376,96.3,-158.1,-17.1,,x,,,,
295551,3.4231722,11.636871,-10.53569,1.928366,-0.503052,-1.775926,86.700005,-160.5,-14.1,,x,,,,
295585,4.4794927,11.5920105,-10.483054,-0.617382,1.951232,-2.09605,84.3,-165.3,-13.500001,,x,,,,
295647,1.9302074,8.457742,-9.159364,-4.367406,5.67839,-6.3872356,103.50001,-148.5,-8.700001,,x,,,,
295690,0.849363,7.8924966,-7.125677,-5.312534,4.375028,-5.190582,115.50001,-148.5,-18.300001,,x,,,,
295769,-1.3296719,7.3996267,-3.8646019,-6.280528,3.2698379,-4.641798,125.100006,-162.90001,-13.500001,,x,,,,
295790,-1.8273268,6.538301,-3.008061,-5.266802,6.13571,-5.304912,134.70001,-158.1,-20.1,,x,,,,
295830,-1.5994343,5.449681,-3.1743448,-3.536608,3.399412,-1.920744,151.5,-155.70001,-22.5,,x,,,,
295850,-0.5347398,6.4240556,-1.7124833,-4.1921,0.144818,-0.46494198,149.1,-162.90001,-15.3,,x,,,,
295873,-0.46116823,6.2948565,-0.45698124,-5.015276,3.414656,-1.56251,146.70001,-158.1,-15.900001,,x,,,,
295893,-0.6364241,6.2446127,-1.5091147,-4.298808,10.434518,-2.126538,134.70001,-143.70001,-20.7,,x,,,,
295913,-1.9008983,6.9223084,-2.894414,-4.214966,9.207376,-2.835384,137.1,-150.90001,-16.5,,x,,,,
295933,-1.9690866,7.038348,-2.7514577,-3.7728899,7.271388,-2.942092,139.5,-148.5,-21.300001,,x,,,,
295953,-1.1442475,10.027867,-1.1645844,-4.702774,1.722572,-1.4024479,144.3,-153.3,-27.300001,,x,,,,
295974,-2.740093,9.082203,0.63462967,-6.0747337,7.149436,-5.152472,144.3,-165.3,-24.900002,,x,,,,
295994,-2.8471606,8.829786,-2.2083437,-2.865872,13.978747,-4.695152,151.5,-148.5,-22.5,,x,,,,
296018,-3.0098555,9.880724,-2.9225266,-3.483254,7.728708,-3.361302,144.3,-150.90001,-19.5,,x,,,,
296038,-3.196476,9.397425,-1.4164026,-3.056422,3.7119138,-3.7271578,153.90001,-150.90001,-17.1,,x,,,,
296058,-2.7921314,10.06555,-1.6436969,-1.051836,5.4268637,-2.926848,156.3,-148.5,-25.500002,,x,,,,
296079,-2.9129562,10.586533,-2.2765322,-1.1051899,5.0228977,-2.881116,168.3,-150.90001,-21.300001,,,,,,
296120,-3.0660808,9.332227,-2.0139475,-0.129574,1.6539739,-2.538126,175.5,-143.70001,-18.300001,,,,,,
296142,-3.1115398,10.373593,-1.9445628,-0.3811,1.166166,-1.6311079,156.3,-143.70001,-18.300001,,,,,,
296162,-3.2676551,9.178504,-1.9888253,-0.868908,1.577754,-1.56251,165.90001,-148.5,-23.1,,,,,,
296182,-3.3448155,8.812441,-2.1616888,-0.716468,0.663114,-0.053354,163.5,-143.70001,-12.3,,,,,,
296202,-2.9560225,9.701879,-2.4075255,-0.396344,-0.007622,1.173788,158.70001,-141.3,-20.1,,,,,,
296222,-2.4158995,9.922594,-2.4996395,-0.426832,-1.013726,1.25763,156.3,-146.1,-16.5,,,,,,
296242,-2.0157418,9.616344,-2.2603822,-1.1051899,-1.692084,1.288118,158.70001,-150.90001,-20.1,,,,,,
296326,-0.92233646,9.294543,-2.6252494,0.121952,-3.01069,2.606724,156.3,-138.90001,-12.900001,,,,,,
296366,-0.66034985,9.029567,-2.2161198,-0.40396598,-2.919226,0.92226195,156.3,-150.90001,-26.1,,,,,,
296385,-0.6196761,8.941639,-2.4589658,-0.396344,-1.5929979,0.907018,158.70001,-141.3,-23.1,,,,,,
296429,-0.93370116,8.624025,-2.460162,-0.068598,-1.074702,0.983238,153.90001,-155.70001,-15.3,,,,,,
296449,-0.57660985,9.171327,-2.731719,0.022866,-0.221038,0.868908,139.5,-143.70001,-20.7,,,,,,
296494,-0.43544808,8.953602,-2.6043146,-0.16768399,0.434454,0.015244,158.70001,-141.3,-15.3,,,,,,
296514,-0.2685662,8.852516,-2.5205746,-0.23628199,0.487808,-0.19055,146.70001,-148.5,-22.5,,,,,,
296534,-0.36307278,8.579762,-2.2538028,-0.221038,0.777444,-0.30488,149.1,-155.70001,-15.3,,,,,,
296554,-0.4815051,9.040333,-2.2244937,-0.083841994,1.3414719,-0.160062,146.70001,-150.90001,-18.300001,,,,,,
296574,-0.61608726,9.369311,-2.2292788,0.045732,1.48629,-0.518296,149.1,-150.90001,-20.1,,,,,,
296594,-0.90558845,9.152783,-1.9230297,-0.129574,1.044214,-0.785066,156.3,-146.1,-17.7,,,,,,
296617,-0.9725805,9.670177,-1.2794278,-0.030488,0.129574,0.11432999,156.3,-148.5,-23.7,,,,,,
296657,-3.209037,9.694103,1.0096654,-2.32471,1.8445239,-0.68597996,137.1,-148.5,-19.5,,,,,,
296677,-4.374818,10.688217,-0.47253296,-1.3872039,4.336918,-0.144818,139.5,-150.90001,-24.300001,,x,,,,
296700,-5.702695,9.325647,-0.80749303,0.060976,0.30488,-0.69360197,156.3,-150.90001,-26.7,,x,,,,
296720,-5.63989,8.973341,-0.778184,0.34298998,-2.93447,0.594516,146.70001,-150.90001,-30.900002,,x,,,,
296742,-5.464036,8.315982,-0.9139625,0.81555396,-4.070148,1.707328,149.1,-150.90001,-21.900002,,x,,,,
296762,-5.3360333,8.627016,-2.4242735,2.347576,-3.605206,2.484772,139.5,-155.70001,-18.900002,,x,,,,
296782,-4.7319093,8.122782,-4.291676,4.893324,-6.32626,2.6981878,149.1,-155.70001,-19.5,,x,,,,
296843,-2.53493,6.957599,-3.6827662,6.471078,-19.603783,4.847592,129.90001,-158.1,-17.7,,x,,,,
296903,-0.42348522,5.270238,-3.5284455,5.251558,-17.393404,2.6905658,127.50001,-160.5,-26.1,,x,,,,
296923,0.11304902,5.283995,-3.6504664,4.794238,-17.172365,3.54423,137.1,-150.90001,-18.900002,,x,,,,
296943,0.9677953,6.903168,-3.350797,3.7347798,-18.125116,5.800342,115.50001,-153.3,-20.1,,x,,,,
296966,1.1047701,6.3062215,-2.154511,2.370442,-14.291249,4.260698,127.50001,-158.1,-18.300001,,x,,,,
296986,1.2740445,7.6006026,-3.5924468,3.2088618,-6.608274,4.596066,115.50001,-160.5,-23.7,,x,,,,
297006,0.47552365,8.470303,-5.2487044,4.176856,-2.7972739,2.926848,115.50001,-162.90001,-21.300001,,x,,,,
297026,1.3529994,9.470398,-7.149603,5.52595,-1.02897,1.768304,117.9,-155.70001,-21.900002,,x,,,,
297046,2.4529843,10.440585,-8.118594,4.740884,0.0,1.3567159,117.9,-150.90001,-17.1,,x,,,,
297066,2.9643965,10.9005575,-9.007435,4.9543,3.940574,0.960372,110.700005,-165.3,-16.5,,x,,,,
297089,2.8806565,10.742049,-11.180489,5.815586,11.463488,0.426832,110.700005,-148.5,-18.300001,,x,,,,
297109,3.363956,11.970037,-12.321745,2.7286758,12.439104,0.30488,115.50001,-155.70001,-16.5,,x,,,,
297129,2.6910453,11.810931,-12.718314,0.121952,11.16623,-1.56251,93.9,-165.3,-13.500001,,x,,,,
297194,1.4612633,10.103831,-9.079212,-8.292736,4.4664917,-2.2713559,101.100006,-155.70001,-14.700001,,x,,,,
297214,0.34153965,8.700587,-7.5156665,-8.361334,5.4116197,-3.2545938,120.3,-155.70001,-13.500001,,x,,,,
297234,-0.07716044,8.101847,-6.1842003,-8.361334,4.893324,-2.7667859,110.700005,-155.70001,-14.1,,x,,,,
297274,-0.89900887,6.9223084,-3.794021,-6.295772,7.4390717,-3.58234,113.100006,-172.5,-26.1,,x,,,,
297321,-0.42527965,7.505498,-1.9266185,-5.0533857,8.07932,-4.5427117,127.50001,-158.1,-22.5,,x,,,,
297341,-0.6543684,6.8983827,-1.8351027,-4.504602,10.449761,-5.625036,120.3,-160.5,-27.300001,,x,,,,
297385,-0.5885727,7.5611253,-2.019929,-2.355198,7.0960817,-3.6890478,134.70001,-165.3,-30.300001,,x,,,,
297406,-0.6268538,7.294952,-0.19858347,-4.847592,4.9009457,-4.618932,127.50001,-150.90001,-26.1,,x,,,,
297426,-1.1663787,6.9480286,-0.2087519,-4.4969797,11.295804,-4.45887,141.90001,-143.70001,-18.900002,,x,,,,
297446,-1.8602246,7.205828,-1.7005205,-4.580822,13.666245,-4.375028,151.5,-148.5,-20.1,,x,,,,
297466,-1.9613107,7.556938,-2.3339539,-3.6814258,10.564092,-4.275942,156.3,-134.1,-23.7,,x,,,,
297486,-2.0223215,8.284879,-1.6873614,-3.056422,7.0960817,-3.841488,151.5,-146.1,-26.7,,x,,,,
297506,-2.1204169,8.676064,-1.1897063,-3.452766,6.890288,-4.0777698,161.1,-148.5,-23.1,,x,,,,
297526,-2.3800108,8.35845,-1.5109092,-3.132642,8.186028,-4.253076,161.1,-143.70001,-19.5,,x,,,,
297546,-2.9542282,8.0522,-1.7160722,-2.7820299,7.644866,-3.7576458,175.5,-150.90001,-22.5,,x,,,,
297566,-3.1348674,8.735878,-2.0396676,-2.050318,6.70736,-2.507638,146.70001,-141.3,-17.1,,x,,,,
297586,-3.367545,8.818421,-2.2095401,-1.699706,5.94516,-2.51526,177.90001,-146.1,-25.500002,,x,,,,
297606,-3.154606,9.005641,-2.5301447,-0.388722,4.5427117,-1.79117,165.90001,-148.5,-15.3,,x,,,,
297627,-2.9434617,10.180991,-2.339337,-0.20579399,2.903982,-0.967994,165.90001,-146.1,-20.7,,x,,,,
297688,-3.087614,9.487743,-2.8022997,0.030488,0.26677,-2.7134318,165.90001,-136.5,-18.900002,,x,,,,
297708,-2.9925094,9.795788,-2.0289009,-0.70122397,-1.425314,-1.21952,168.3,-143.70001,-24.300001,,x,,,,
297728,-2.7747853,9.680944,-2.159296,-0.81555396,0.47256398,-1.013726,173.1,-148.5,-21.900002,,,,,,
297748,-2.8728807,8.940443,-2.262775,-1.013726,-0.045732,-0.70122397,177.90001,-131.70001,-21.300001,,,,,,
297772,-2.5241632,8.960181,-2.3399353,-0.3811,-0.731712,0.434454,173.1,-134.1,-26.7,,,,,,
297792,-2.2203066,9.136036,-2.0863228,-0.068598,-1.471046,0.785066,173.1,-143.70001,-12.900001,,,,,,
297814,-1.6682208,9.0002575,-1.8530469,-0.099086,-1.280496,1.082324,165.90001,-150.90001,-21.900002,,,,,,
297834,-1.3535975,9.1192875,-2.10008,-0.030488,-0.373478,1.06708,168.3,-129.3,-16.5,,,,,,
297854,-1.2872037,9.046314,-2.3835998,0.19055,-0.243904,0.67073596,170.70001,-153.3,-12.900001,,,,,,
297877,-1.0892184,8.866872,-2.4147031,0.434454,-0.80793196,0.46494198,165.90001,-146.1,-22.5,,,,,,
297897,-0.9731786,9.350171,-2.384198,0.3811,-1.036592,0.60976,168.3,-143.70001,-19.5,,,,,,
297917,-1.0096654,9.224561,-2.4158995,-0.015244,-0.56402797,0.060976,163.5,-138.90001,-25.500002,,,,,,
297940,-1.2626798,8.774757,-2.4547787,-0.243904,-0.388722,-0.17530599,165.90001,-148.5,-23.1,,,,,,
297960,-1.3033535,8.827992,-2.6958303,0.28201398,-0.510674,-0.487808,151.5,-129.3,-26.7,,,,,,
297980,-1.233969,8.750832,-2.6372123,0.388722,-0.82317597,-0.47256398,168.3,-136.5,-17.7,,,,,,
298000,-1.0760592,8.948817,-2.4200864,0.41921,-0.80793196,-0.182928,180.3,-143.70001,-24.300001,,,,,,
298020,-1.1992767,8.896778,-2.3530943,0.198172,-0.022866,-0.221038,163.5,-134.1,-24.300001,,,,,,
298040,-1.1221162,9.503894,-2.4242735,0.053354,-0.030488,0.022866,165.90001,-146.1,-20.7,,,,,,
298061,-1.4582726,8.716738,-2.0360787,-0.69360197,0.19055,-0.602138,175.5,-136.5,-19.5,,,,,,
298081,-1.393075,8.985304,-2.0719674,0.060976,-0.045732,0.182928,161.1,-141.3,-24.300001,,,,,,
298101,-1.547994,9.231739,-1.7549515,0.015244,-0.586894,0.068598,165.90001,-148.5,-27.300001,,,,,,
298121,-1.6783892,9.327441,-1.5988362,-0.030488,-0.632626,0.068598,177.90001,-150.90001,-13.500001,,,,,,
298141,-1.9104687,9.375891,-1.460067,-0.15244,-0.716468,-0.121952,168.3,-136.5,-24.300001,,,,,,
298161,-2.5283504,9.00923,-0.8003153,0.221038,-2.012208,-0.160062,177.90001,-141.3,-22.5,,,,,,
298182,-3.188102,9.983604,0.004187001,0.320124,-3.170752,0.56402797,175.5,-143.70001,-27.900002,,,,,,
298222,-5.0572987,9.328638,-0.13817103,0.327746,-0.015244,0.82317597,165.90001,-148.5,-24.900002,,x,,,,
298242,-5.242125,9.924388,-1.3404384,1.67684,-1.6082419,1.684462,170.70001,-150.90001,-18.900002,,x,,,,
298262,-5.609983,9.563109,-1.3039516,2.088428,-4.64942,2.355198,163.5,-136.5,-16.5,,x,,,,
298282,-5.8929048,9.746739,-1.9146557,2.2484899,-5.228692,3.597584,165.90001,-136.5,-24.900002,,x,,,,
298302,-5.986813,9.09297,-2.5887628,2.7058098,-7.385718,3.7195358,158.70001,-162.90001,-23.7,,x,,,,
298343,-4.5082035,7.8631873,-2.074958,3.46801,-15.312597,5.3811316,165.90001,-146.1,-19.5,,x,,,,
298363,-3.9794452,6.538899,-2.141352,4.718018,-15.8308935,5.10674,144.3,-160.5,-20.7,,x,,,,
298405,-1.9708811,5.508897,-1.8093824,6.311016,-20.785194,6.8521776,134.70001,-158.1,-23.7,,x,,,,
298425,-1.0126561,5.1817126,-1.723848,6.234796,-18.498594,6.333882,141.90001,-153.3,-21.300001,,x,,,,
298445,-0.6382185,4.8264155,-2.8962083,6.150954,-14.641862,5.388754,144.3,-165.3,-15.900001,,x,,,,
298465,-0.7506694,2.9853315,-4.1188126,7.6372437,-9.405548,3.7652678,129.90001,-155.70001,-25.500002,,x,,,,
298485,1.3882898,4.5883546,-7.2106137,9.75616,-9.939088,7.743952,125.100006,-158.1,-15.3,,x,,,,
298505,1.7687088,6.41628,-6.847541,6.608274,-13.513805,9.359816,113.100006,-172.5,-23.1,,x,,,,
298526,2.372235,9.718029,-7.686735,6.280528,-9.45128,9.230242,120.3,-162.90001,-19.5,,x,,,,
298588,2.39317,11.883904,-9.965062,1.707328,-6.654006,2.111294,81.9,-148.5,-16.5,,x,,,,
298608,2.1652775,11.545356,-9.606774,1.5929979,-5.282046,0.579272,110.700005,-170.1,-16.5,,x,,,,
298628,2.5678277,12.0023365,-9.8239,1.1128119,-2.423796,0.731712,101.100006,-160.5,-20.1,,x,,,,
298648,2.2831118,12.0884695,-9.322657,-1.097568,0.60976,-0.121952,84.3,-170.1,-16.5,,x,,,,
298668,1.8805615,11.7319765,-9.465014,-2.004586,4.786616,-1.21952,89.100006,-167.70001,-16.5,,x,,,,
298688,1.3876917,11.045308,-9.429126,-3.7195358,6.318638,-1.48629,96.3,-165.3,-5.7000003,,x,,,,
298712,0.8948219,10.936446,-8.056986,-7.2409,5.846074,-1.310984,98.700005,-155.70001,-25.500002,,x,,,,
298773,-0.8350076,7.889506,-4.5381107,-8.0945635,9.649452,-3.155508,108.3,-162.90001,-32.100002,,x,,,,
298825,-1.2465299,6.6531444,-1.9906198,-7.271388,7.629622,-4.375028,105.9,-165.3,-27.300001,,x,,,,
298846,-1.3380458,5.861801,-1.8153639,-6.28815,10.800374,-4.5731997,108.3,-155.70001,-28.500002,,x,,,,
298888,-0.57601166,8.064163,-1.8039992,-4.4664917,6.181442,-2.43904,125.100006,-160.5,-27.300001,,x,,,,
298908,-0.12142302,8.347683,-0.8792702,-5.3963757,6.4482117,-2.964958,120.3,-153.3,-30.300001,,x,,,,
298928,0.16568561,8.38417,-0.98514146,-6.36437,9.359816,-3.452766,120.3,-160.5,-24.300001,,x,,,,
298951,-0.1614986,7.4199634,-1.5420126,-6.714982,10.381164,-3.879598,132.3,-167.70001,-31.500002,,x,,,,
298971,-0.4689441,6.753034,-1.5491903,-5.807964,8.993959,-3.39179,144.3,-153.3,-26.1,,x,,,,
298991,-0.66992015,7.5198536,-1.53962,-4.100636,7.4848037,-2.6677,137.1,-162.90001,-36.300003,,x,,,,
299013,-0.4581775,7.9989657,-1.3338588,-3.3003259,6.6311398,-2.987824,144.3,-162.90001,-30.900002,,x,,,,
299034,-0.15790975,8.301626,-1.1197237,-3.025934,6.5854077,-3.376546,137.1,-153.3,-33.300003,,x,,,,
299055,-0.5078234,7.979227,-1.4110193,-2.7744079,8.262248,-3.940574,149.1,-150.90001,-26.1,,x,,,,
299075,-0.9486548,8.420058,-1.9966012,-1.554888,9.062558,-3.330814,146.70001,-153.3,-29.1,,x,,,,
299098,-1.6389117,9.004444,-2.195783,-1.44818,7.728708,-3.490876,144.3,-146.1,-33.9,,x,,,,
299118,-1.8051955,8.681447,-1.8985058,-1.67684,7.5000477,-3.2850819,156.3,-150.90001,-39.300003,,x,,,,
299140,-1.9660959,9.142615,-2.129389,-1.227142,8.018344,-2.103672,149.1,-146.1,-29.7,,x,,,,
299160,-1.9714792,10.03983,-2.2226992,-0.746956,7.58389,-1.6082419,161.1,-148.5,-23.1,,x,,,,
299180,-2.4553769,10.46152,-1.9571238,-1.006104,5.960404,-2.2561119,163.5,-146.1,-27.900002,,x,,,,
299200,-3.025407,9.188074,-1.6107991,-0.769822,6.128088,-3.346058,158.70001,-148.5,-21.900002,,x,,,,
299220,-2.9069748,9.055884,-1.8219435,-0.030488,5.731744,-2.2865999,158.70001,-150.90001,-20.1,,x,,,,
299240,-2.8980026,9.46322,-1.6682208,0.160062,3.96344,-1.4024479,170.70001,-143.70001,-30.900002,,x,,,,
299304,-3.171354,8.936256,-1.155014,-0.67835796,2.59148,-1.783548,161.1,-141.3,-18.300001,,x,,,,
299324,-3.3980503,8.849525,-1.3069423,-0.510674,2.195136,-1.250008,177.90001,-148.5,-21.300001,,x,,,,
299345,-3.4201815,9.183289,-1.6293415,0.144818,1.539644,-0.525918,182.70001,-134.1,-17.7,,x,,,,
299366,-3.24672,9.643261,-1.8997021,0.40396598,0.830798,-0.091464,170.70001,-146.1,-26.1,,x,,,,
299386,-2.836394,9.360339,-1.635921,0.243904,-0.503052,-0.221038,170.70001,-138.90001,-21.900002,,x,,,,
299426,-2.234662,8.889003,-1.2148284,0.442076,0.739334,0.213416,170.70001,-146.1,-23.1,,x,,,,
299446,-1.9296092,9.167737,-1.8470654,1.310984,1.699706,0.625004,182.70001,-150.90001,-23.1,,x,,,,
299466,-1.8087844,8.958387,-1.8709912,1.509156,0.602138,0.82317597,170.70001,-143.70001,-20.7,,x,,,,
299487,-1.5204794,9.628905,-2.0019846,2.012208,0.358234,1.265252,173.1,-146.1,-21.900002,,x,,,,
299548,-1.2214079,9.229346,-2.9530318,1.989342,-0.960372,0.99086,161.1,-129.3,-15.3,,,,,,
299568,-1.2327727,9.253272,-2.6916435,1.684462,-2.378064,1.189032,168.3,-146.1,-27.900002,,,,,,
299632,-0.82364285,9.017005,-2.8752732,0.548784,-1.585376,0.07622,153.90001,-148.5,-23.1,,,,,,
299668,-0.89601815,8.929676,-2.5445,0.480186,-1.18141,0.442076,163.5,-143.70001,-18.300001,,,,,,
299709,-0.87328875,9.103736,-2.2358584,0.083841994,-0.769822,0.243904,168.3,-143.70001,-18.900002,,,,,,
299729,-0.9139625,9.090577,-2.2011662,-0.053354,-0.442076,-0.053354,165.90001,-150.90001,-14.700001,,,,,,
299749,-0.9857396,8.917115,-2.3148134,0.015244,-0.289636,-0.396344,161.1,-146.1,-15.900001,,,,,,
299789,-0.69982725,8.778944,-2.0061715,0.34298998,-1.8597679,0.007622,158.70001,-146.1,-18.300001,,,,,,
299809,-0.912168,9.316675,-1.7645217,0.541162,-1.234764,0.099086,158.70001,-138.90001,-21.900002,,,,,,
299830,-1.0282078,8.457742,-2.019929,0.731712,-0.72409,-0.72409,158.70001,-148.5,-16.5,,,,,,
299854,-1.7758865,8.239419,-1.836897,1.692084,-1.71495,0.95274997,161.1,-143.70001,-18.300001,,,,,,
299874,-2.1634831,9.786217,-1.9840403,1.8750119,-2.431418,1.5244,156.3,-150.90001,-23.1,,,,,,
299894,-3.112736,10.596103,-1.6251545,0.846042,-3.3003259,1.242386,163.5,-155.70001,-22.5,,,,,,
299914,-4.339527,10.189963,-1.7699051,0.3811,-2.2408679,1.006104,158.70001,-146.1,-20.7,,,,,,
299934,-5.119506,8.702382,-2.0336862,0.525918,-3.01069,1.41007,156.3,-146.1,-18.300001,,,,,,
299954,-5.2014513,9.773058,-1.8967113,1.082324,-6.265284,3.92533,149.1,-138.90001,-19.5,,x,,,,
299974,-5.609983,10.587131,-1.7974197,1.288118,-6.25004,4.199722,153.90001,-141.3,-21.900002,,x,,,,
299994,-5.2744246,10.276096,-2.6090996,1.8521459,-7.027484,3.7805119,144.3,-150.90001,-20.1,,x,,,,
300014,-5.3785014,9.738964,-2.6629324,1.730194,-9.786648,4.375028,139.5,-160.5,-16.5,,x,,,,
300034,-5.2128158,8.686233,-2.9458542,2.309466,-10.457384,4.847592,151.5,-143.70001,-27.900002,,x,,,,
300054,-4.4633427,7.693913,-3.237748,2.7058098,-12.058003,5.64028,141.90001,-162.90001,-23.1,,x,,,,
300074,-3.3107214,7.104144,-3.6235502,3.452766,-13.025998,6.242418,127.50001,-153.3,-20.7,,x,,,,
300096,-2.216718,6.5706005,-3.6121855,3.109776,-16.090042,6.349126,139.5,-155.70001,-18.300001,,x,,,,
300116,-0.62805015,6.870868,-2.957817,1.8673899,-18.14036,7.6067557,117.9,-150.90001,-31.500002,,x,,,,
300136,-0.2978752,7.516863,-2.3339539,1.920744,-17.812614,7.218034,127.50001,-160.5,-24.900002,,x,,,,
300156,-0.6406111,6.565217,-2.4446104,3.0488,-16.471142,5.4725957,113.100006,-177.3,-25.500002,,x,,,,
300180,1.0658908,5.4837747,-2.2520082,5.198204,-17.83548,4.580822,103.50001,-165.3,-16.5,,x,,,,
300201,1.422384,5.1392446,-1.8500562,5.975648,-16.097664,3.986306,105.9,-172.5,-27.900002,,x,,,,
300221,2.2567935,6.0807214,-2.8011036,6.257662,-11.143364,4.428382,91.5,-162.90001,-24.900002,,x,,,,
300261,1.1580048,7.0299745,-5.882138,7.5457797,0.594516,0.586894,93.9,-179.70001,-18.300001,,x,,,,
300281,2.1634831,7.8673744,-7.9660683,7.20279,-2.7058098,2.050318,93.9,-162.90001,-22.5,,x,,,,
300301,2.3847961,9.969249,-7.5407887,4.634176,-3.490876,3.940574,93.9,-170.1,-23.1,,x,,,,
300321,2.3363464,11.993963,-8.494826,5.175338,2.43904,1.8978779,91.5,-165.3,-14.1,,x,,,,
300342,2.4123106,11.39582,-10.634384,6.158576,6.768336,-0.754578,93.9,-150.90001,-18.900002,,x,,,,
300362,2.464349,12.01729,-11.858185,2.385686,2.7896519,-0.30488,86.700005,-170.1,-16.5,,x,,,,
300384,1.911665,11.976617,-10.41666,-1.501534,-2.2637339,-1.737816,91.5,-162.90001,-19.5,,x,,,,
300445,1.0545261,10.273106,-9.370508,-2.36282,6.318638,-1.570132,96.3,-167.70001,-9.3,,x,,,,
300465,0.83740014,10.230638,-8.284879,-4.550334,5.3354,-2.568614,89.100006,-158.1,-20.1,,x,,,,
300485,0.08374002,9.525427,-7.028778,-6.562542,8.285114,-3.8186219,93.9,-172.5,-18.900002,,x,,,,
300505,-0.7476787,8.524734,-7.0251894,-6.775958,12.446726,-4.4969797,105.9,-153.3,-13.500001,,x,,,,
300525,-0.9648046,7.81414,-6.995282,-7.370474,10.800374,-4.207344,105.9,-155.70001,-17.7,,x,,,,
300545,-0.72614557,7.2273617,-5.371324,-8.521396,5.0228977,-3.58234,110.700005,-170.1,-16.5,,x,,,,
300565,-0.56464696,7.1101255,-2.9727705,-8.849142,3.643316,-2.843006,105.9,-162.90001,-18.300001,,x,,,,
300585,-0.6830793,6.375606,-1.9248241,-7.538158,10.09915,-3.330814,113.100006,-165.3,-23.1,,x,,,,
300605,-0.5496934,6.046029,-3.0517254,-5.9680257,13.795819,-3.330814,110.700005,-162.90001,-25.500002,,x,,,,
300625,-0.8092874,6.392354,-3.0128462,-4.8857017,10.625068,-3.2012398,120.3,-162.90001,-29.1,,x,,,,
300688,-0.9019996,7.271026,-2.2113345,-4.4817357,12.34764,-4.61131,110.700005,-165.3,-23.7,,x,,,,
300708,-0.68846256,7.2315483,-2.346515,-3.361302,10.396408,-3.8109999,117.9,-167.70001,-24.900002,,x,,,,
300728,-0.5843857,8.163455,-1.5467978,-3.094532,7.797306,-2.987824,117.9,-150.90001,-22.5,,x,,,,
300748,-0.7638286,8.225662,-0.70939755,-3.948196,8.666214,-3.536608,132.3,-155.70001,-28.500002,,x,,,,
300768,-0.38101706,8.510378,-1.6000324,-3.338436,10.952814,-3.58234,129.90001,-160.5,-26.7,,x,,,,
300788,-0.62805015,8.851319,-1.6688188,-3.056422,9.512256,-3.551852,137.1,-160.5,-21.900002,,x,,,,
300810,-1.3948694,8.409292,-1.2010711,-2.911604,8.940606,-3.948196,139.5,-146.1,-31.500002,,x,,,,
300830,-1.6939409,8.325552,-1.1891083,-3.003068,8.68908,-3.8109999,146.70001,-148.5,-26.7,,x,,,,
300850,-2.3740294,8.275907,-1.1179292,-2.93447,8.963471,-3.92533,153.90001,-146.1,-20.7,,x,,,,
300870,-2.8316088,8.679054,-1.6484821,-1.730194,9.634208,-3.871976,146.70001,-150.90001,-20.1,,x,,,,
300894,-2.890825,9.590026,-1.9601145,-0.967994,7.9040136,-3.650938,156.3,-160.5,-23.1,,x,,,,
300914,-2.5696223,10.566793,-2.0426583,-0.55640596,6.4177237,-3.147886,156.3,-143.70001,-26.1,,x,,,,
300934,-2.9739668,9.005641,-1.7699051,-0.49543,5.884184,-4.161612,163.5,-148.5,-16.5,,x,,,,
300954,-3.0451458,8.59352,-2.0324898,0.34298998,5.541194,-2.7972739,151.5,-153.3,-18.900002,,x,,,,
300994,-2.6892507,9.754516,-2.4362364,0.396344,3.3155699,-2.164648,165.90001,-148.5,-26.7,,x,,,,
301017,-2.4087217,9.725206,-2.584576,0.091464,1.8750119,-1.935988,173.1,-150.90001,-22.5,,x,,,,
301037,-2.1951847,9.499108,-2.6593437,-0.03811,1.471046,-1.768304,175.5,-131.70001,-18.900002,,x,,,,
301078,-1.8297193,9.757506,-2.6994193,0.022866,0.121952,-0.259148,149.1,-136.5,-17.1,,x,,,,
301124,-1.4899741,9.391443,-2.2526064,-0.846042,0.480186,-0.083841994,175.5,-138.90001,-18.300001,,x,,,,
301169,-1.4863852,9.095362,-2.2771304,-0.632626,0.792688,0.23628199,161.1,-150.90001,-20.7,,,,,,
301210,-1.5408163,8.874647,-2.2567935,-0.144818,-0.182928,0.35061198,175.5,-136.5,-20.1,,,,,,
301230,-1.2949796,8.976332,-2.1114447,-0.17530599,-0.327746,0.46494198,156.3,-141.3,-17.1,,,,,,
301250,-1.1675751,9.06067,-2.0653877,-0.30488,-0.060976,0.327746,170.70001,-138.90001,-22.5,,,,,,
301293,-1.2483244,9.027772,-2.380609,0.274392,0.213416,0.213416,156.3,-153.3,-21.300001,,,,,,
301313,-1.2226043,8.896778,-2.2274845,0.16768399,-0.23628199,-0.34298998,161.1,-138.90001,-20.7,,,,,,
301355,-0.98035634,8.59352,-2.3710387,0.594516,-0.121952,-0.434454,173.1,-143.70001,-21.900002,,,,,,
301375,-0.677696,8.87704,-3.1575968,1.760682,0.57164997,-0.182928,158.70001,-141.3,-19.5,,,,,,
301395,-0.0807493,9.293945,-3.1282878,1.94361,-1.9131219,-0.35061198,163.5,-146.1,-12.900001,,,,,,
301415,0.035290435,9.161158,-2.2442324,1.417692,-1.8978779,-0.91463995,151.5,-141.3,-18.300001,,,,,,
301435,-0.5335435,8.874049,-2.6677177,1.242386,0.785066,-1.8902559,153.90001,-138.90001,-17.7,,,,,,
301495,-2.3513,10.480063,-1.9601145,-0.358234,-2.957336,-1.417692,165.90001,-138.90001,-10.5,,,,,,
301586,-5.711667,9.216785,-1.2285857,0.56402797,-3.2850819,1.242386,163.5,-146.1,-17.7,,x,,,,
301607,-5.418577,9.162354,-1.8763745,2.149404,-4.618932,1.6387299,170.70001,-136.5,-20.1,,x,,,,
301647,-4.6840577,7.8476357,-3.0391645,3.7957559,-6.654006,2.835384,163.5,-141.3,-20.7,,x,,,,
301667,-3.5457916,8.255569,-4.1403456,4.72564,-9.481768,4.672286,168.3,-143.70001,-15.900001,,x,,,,
301687,-3.0248091,9.121082,-3.5170808,4.207344,-13.346122,4.367406,161.1,-131.70001,-19.5,,x,,,,
301707,-1.9475535,9.69171,-3.2233925,4.093014,-14.123566,2.7515419,153.90001,-153.3,-22.5,,x,,,,
301727,-1.6526691,8.463723,-2.535528,2.89636,-14.695215,0.663114,165.90001,-143.70001,-18.300001,,x,,,,
301747,-1.2818204,6.6208444,-2.0007882,3.399412,-14.794302,0.274392,149.1,-150.90001,-26.1,,x,,,,
301768,-1.1274995,5.6985083,-1.0437595,3.422278,-15.457416,1.577754,173.1,-143.70001,-21.900002,,x,,,,
301788,-1.242343,5.4646344,-0.3953725,4.359784,-13.277524,2.568614,158.70001,-146.1,-27.300001,,x,,,,
301808,-0.76083785,6.0771327,-0.96420646,6.166198,-11.349157,3.361302,163.5,-165.3,-24.300001,,x,,,,
301828,-0.23686461,6.510786,-1.1783416,6.70736,-10.78513,3.483254,153.90001,-155.70001,-25.500002,,x,,,,
301848,-0.4581775,6.4168777,-1.9038891,6.768336,-8.003099,3.2088618,141.90001,-158.1,-23.1,,x,,,,
301868,-0.29488447,6.27452,-2.9446578,6.295772,-4.87808,3.54423,165.90001,-155.70001,-28.500002,,x,,,,
301888,0.029309006,7.6370893,-4.662524,5.914672,-1.3719599,3.8033779,146.70001,-146.1,-17.7,,x,,,,
301908,-0.70640683,7.196258,-6.652546,6.4024796,5.655524,1.996964,151.5,-155.70001,-21.900002,,x,,,,
301932,0.80988556,10.3287325,-11.144002,6.4634557,-1.951232,4.83997,127.50001,-150.90001,-18.300001,,x,,,,
301952,1.9619089,11.07701,-9.70786,2.7210538,-10.78513,3.910086,139.5,-150.90001,-14.1,,x,,,,
301972,1.9960032,11.307295,-8.170633,1.94361,-7.713464,2.408552,127.50001,-150.90001,-11.1,,x,,,,
301995,1.6670245,10.571579,-9.178504,2.2408679,0.94512796,1.036592,115.50001,-150.90001,-16.5,,x,,,,
302015,2.1898015,11.147591,-10.915511,1.760682,3.7347798,1.5244,122.700005,-162.90001,-17.7,,x,,,,
302035,2.3411317,12.415055,-11.036336,-1.21952,2.7439198,-0.099086,125.100006,-143.70001,-21.300001,,x,,,,
302057,1.602425,11.931158,-10.711544,-2.675322,3.902464,-3.12502,139.5,-150.90001,-16.5,,x,,,,
302077,0.9354956,10.755807,-10.397519,-4.108258,5.289668,-4.131124,134.70001,-146.1,-17.1,,x,,,,
302097,0.3062492,10.13613,-9.752721,-6.112844,6.036624,-3.536608,134.70001,-143.70001,-18.900002,,x,,,,
302120,-0.8188577,8.631203,-8.444583,-7.629622,5.434486,-2.7439198,132.3,-153.3,-14.700001,,x,,,,
302140,-1.2686613,8.147903,-7.0521054,-8.795788,3.932952,-1.722572,137.1,-150.90001,-20.1,,x,,,,
302160,-1.4863852,7.63051,-5.5292335,-9.039692,4.443626,-1.3490939,146.70001,-136.5,-21.300001,,x,,,,
302180,-1.23038,6.8846254,-4.5692143,-9.1159115,5.198204,-1.501534,141.90001,-150.90001,-17.7,,x,,,,
302202,-1.6628375,5.5740943,-3.3795078,-8.818654,5.274424,-1.516778,141.90001,-155.70001,-17.1,,x,,,,
302223,-1.1615937,6.731501,-2.6509697,-7.751574,5.25918,-0.182928,149.1,-143.70001,-26.7,,x,,,,
302244,-0.8649147,6.866681,-1.4451134,-7.682976,5.739366,-1.5929979,153.90001,-165.3,-24.900002,,x,,,,
302264,-0.59036714,6.58376,-0.9743749,-6.4177237,7.3323636,-2.469528,149.1,-165.3,-24.300001,,x,,,,
302286,-1.0204319,6.3702226,-0.9061866,-5.114362,9.916222,-2.6677,151.5,-155.70001,-21.900002,,x,,,,
302306,-1.2519132,6.2775106,-1.3613734,-3.6966698,10.129638,-2.812518,144.3,-148.5,-24.900002,,x,,,,
302326,-0.93848634,6.4431963,-1.0539279,-2.7896519,7.835416,-2.6677,151.5,-143.70001,-30.900002,,x,,,,
302346,-1.2058562,6.9342713,-0.35230622,-2.317088,7.3780956,-2.62959,149.1,-150.90001,-18.900002,,x,,,,
302368,-2.4523861,8.070145,-0.1363766,-3.109776,9.481768,-3.559474,177.90001,-153.3,-18.900002,,x,,,,
302429,-2.6366143,7.957694,-0.46535522,-2.370442,6.425346,-3.2698379,165.90001,-141.3,-22.5,,x,,,,
302449,-2.5983331,8.178409,-0.5999374,-1.745438,7.4695597,-2.568614,156.3,-146.1,-23.7,,x,,,,
302470,-3.0762494,8.7950945,-0.8529519,-1.806414,6.9436417,-2.004586,173.1,-148.5,-18.900002,,x,,,,
302490,-3.3956575,9.256263,-1.1292939,-1.6387299,6.829312,-1.8292799,177.90001,-138.90001,-24.300001,,x,,,,
302510,-3.6965237,9.957884,-1.6592486,-1.440558,6.425346,-1.318606,173.1,-141.3,-17.1,,x,,,,
302530,-3.7072902,10.407089,-2.0695746,-1.1432999,5.251558,-1.8445239,170.70001,-136.5,-17.1,,x,,,,
302550,-3.6008208,10.160655,-2.385394,-0.632626,3.35368,-2.2256238,173.1,-141.3,-22.5,,x,,,,
302570,-3.496744,10.375388,-2.3704405,-0.396344,1.432936,-1.547266,175.5,-146.1,-23.1,,x,,,,
302590,-3.1791298,10.562009,-2.3590758,-0.396344,0.57164997,-1.425314,163.5,-141.3,-22.5,,x,,,,
302614,-3.0672772,10.032652,-2.2454288,-0.297258,-0.198172,-1.71495,170.70001,-131.70001,-18.900002,,x,,,,
302634,-3.0768476,9.632494,-2.1389592,-0.068598,-0.602138,-1.509156,165.90001,-134.1,-22.5,,x,,,,
302654,-3.0349774,9.258655,-2.2681582,0.0,-0.47256398,-1.272874,175.5,-129.3,-23.1,,x,,,,
302674,-2.7717946,8.933266,-2.4212828,0.358234,-0.960372,-0.640248,173.1,-146.1,-15.900001,,,,,,
302694,-2.280121,9.593616,-2.4063292,0.365856,-1.8445239,0.259148,170.70001,-138.90001,-21.300001,,,,,,
302718,-2.1186223,8.87704,-2.3650572,0.19055,-1.006104,0.708846,168.3,-146.1,-15.900001,,,,,,
302738,-1.9367869,8.615053,-2.3124208,-0.17530599,-1.082324,1.326228,175.5,-146.1,-20.1,,,,,,
302758,-1.6771929,8.612062,-2.4039366,0.0,-1.1204339,1.501534,182.70001,-131.70001,-20.7,,,,,,
302778,-1.2459319,8.859096,-2.3746276,0.060976,-1.318606,1.280496,175.5,-143.70001,-20.1,,,,,,
302861,-1.1017793,8.630007,-2.301056,-0.099086,-0.92988396,-0.106708,168.3,-138.90001,-21.900002,,,,,,
302911,-1.1029756,8.880031,-2.4787045,0.137196,0.64787,-0.868908,177.90001,-138.90001,-24.900002,,,,,,
302932,-1.2076507,8.479873,-2.321991,0.259148,0.45731997,-1.150922,175.5,-138.90001,-20.1,,,,,,
302952,-1.5342367,8.388955,-2.0522285,0.426832,0.487808,-1.1128119,161.1,-141.3,-20.7,,,,,,
302972,-1.878767,8.84474,-1.8476636,0.640248,0.68597996,-1.1280559,182.70001,-146.1,-15.900001,,,,,,
302994,-2.5157893,9.223365,-1.4498986,0.30488,0.274392,-1.021348,173.1,-131.70001,-17.7,,,,,,
303034,-4.8808465,9.499706,-0.71358454,-0.259148,1.509156,-0.388722,168.3,-134.1,-18.300001,,,,,,
303054,-6.011935,9.919004,-0.4940661,-0.129574,1.280496,1.250008,177.90001,-146.1,-14.1,,,,,,
303074,-7.274017,9.673168,-0.39836323,-0.213416,1.097568,2.118916,182.70001,-141.3,-21.900002,,x,,,,
303096,-7.4576464,9.08938,-0.8517556,1.3719599,-0.93750596,4.4207597,161.1,-146.1,-20.7,,x,,,,
303136,-6.4156814,8.93506,-0.5592637,2.423796,-5.4725957,6.166198,165.90001,-136.5,-20.7,,x,,,,
303158,-5.678171,7.2536798,-1.0449557,3.879598,-7.0198617,5.686012,165.90001,-155.70001,-14.1,,x,,,,
303243,-1.1442475,4.155299,0.2685662,9.062558,-13.361365,5.464974,134.70001,-153.3,-17.1,,x,,,,
303327,0.24164976,3.9489398,-6.9175234,10.419273,0.198172,5.701256,115.50001,-158.1,-18.900002,,x,,,,
303347,0.84996116,4.129579,-10.158262,13.559538,3.841488,6.722604,122.700005,-143.70001,-10.5,,x,,,,
303387,4.413099,9.966856,-13.880506,9.992442,-6.791202,8.910118,101.100006,-146.1,-6.9,,x,,,,
303407,5.298949,11.839044,-14.341674,9.763782,-7.9345016,7.0351057,91.5,-146.1,0.90000004,,x,,,,
303447,5.9461393,12.0561695,-15.746712,4.199722,-2.911604,0.861286,86.700005,-138.90001,-2.1000001,,x,,,,
303566,1.3811121,9.091175,-9.94293,-10.678422,2.416174,-2.2789779,103.50001,-153.3,-11.1,,x,,,,
303586,0.9002052,8.240616,-8.530117,-10.579336,1.234764,-2.911604,96.3,-155.70001,-10.5,,x,,,,
303627,0.5556748,7.1765194,-4.940063,-10.640312,2.835384,-4.0167937,117.9,-160.5,-15.3,,x,,,,
303669,-0.53653425,5.9389615,-4.6469727,-8.19365,8.643348,-4.390272,115.50001,-162.90001,-10.5,,x,,,,
303689,-0.54072124,6.1812096,-3.785647,-8.323224,5.708878,-4.0015497,132.3,-150.90001,-22.5,,x,,,,
303709,-0.7123883,5.5615335,-2.413507,-8.72719,5.4725957,-4.641798,120.3,-165.3,-20.7,,x,,,,
303749,-1.3643641,5.2361436,-1.8410841,-6.74547,7.782062,-4.0777698,129.90001,-160.5,-26.1,,x,,,,
303769,-1.510311,5.2780137,-1.661043,-6.204308,7.103704,-4.237832,132.3,-160.5,-11.1,,x,,,,
303789,-1.1873138,6.0430384,-1.2291838,-5.0076537,5.495462,-4.161612,127.50001,-148.5,-21.300001,,x,,,,
303809,-0.6495833,6.444392,-0.4521961,-4.5122237,4.61131,-4.489358,144.3,-153.3,-21.900002,,x,,,,
303830,-0.9486548,6.291866,-0.26079035,-4.245454,8.87963,-4.756128,153.90001,-153.3,-18.300001,,x,,,,
303850,-1.359579,6.372017,-0.8840553,-3.8033779,10.053418,-4.603688,149.1,-150.90001,-24.300001,,x,,,,
303870,-1.5587605,6.7404733,-1.5450033,-3.155508,8.399444,-4.474114,141.90001,-150.90001,-25.500002,,x,,,,
303890,-1.6006306,8.237625,-0.5413194,-3.7424018,5.815586,-3.16313,161.1,-143.70001,-22.5,,x,,,,
303933,-3.3143103,8.853712,-1.6807817,-3.917708,9.009204,-6.051868,165.90001,-141.3,-25.500002,,x,,,,
303953,-3.5589507,8.796888,-1.7160722,-2.843006,5.3658876,-4.9619217,158.70001,-146.1,-17.7,,x,,,,
303974,-3.6600368,10.085887,-0.5700303,-3.2088618,2.964958,-3.50612,175.5,-148.5,-19.5,,x,,,,
303994,-3.999184,10.115196,-0.6591536,-2.59148,5.8918056,-4.03966,165.90001,-146.1,-25.500002,,x,,,,
304014,-3.9549212,9.621728,-1.8177565,-0.907018,6.5091877,-3.605206,165.90001,-141.3,-20.7,,x,,,,
304036,-3.635513,9.880724,-2.0612006,-0.137196,3.6661818,-1.928366,173.1,-129.3,-27.300001,,x,,,,
304056,-3.468631,10.249778,-1.8763745,0.121952,1.8292799,-1.006104,158.70001,-143.70001,-16.5,,x,,,,
304079,-2.752056,8.731691,-2.2149234,0.388722,2.042696,-0.617382,168.3,-131.70001,-25.500002,,x,,,,
304100,-2.8250291,9.022986,-2.2035587,0.19055,0.525918,0.320124,180.3,-148.5,-18.900002,,x,,,,
304162,-2.5522761,8.610867,-2.3231874,0.33536798,-2.050318,0.053354,175.5,-148.5,-17.1,,x,,,,
304182,-2.1539128,9.136036,-2.3728333,1.02897,-1.996964,1.089946,177.90001,-138.90001,-18.900002,,x,,,,
304202,-1.9559275,9.308899,-1.8632153,0.20579399,-1.6387299,0.731712,175.5,-131.70001,-21.900002,,x,,,,
304222,-1.8506544,9.420752,-2.4428158,-0.20579399,0.55640596,0.045732,163.5,-134.1,-22.5,,x,,,,
304284,-1.9469553,9.481164,-2.9901166,-0.426832,-1.265252,0.92226195,170.70001,-146.1,-21.900002,,,,,,
304305,-1.514498,9.045716,-3.2491126,-0.373478,-0.891774,0.007622,163.5,-146.1,-21.900002,,,,,,
304325,-1.1053683,8.78373,-3.0218184,-0.70122397,-2.2865999,0.518296,173.1,-129.3,-20.7,,,,,,
304345,-1.1861175,9.105531,-2.4673398,-1.166166,-1.684462,0.640248,168.3,-143.70001,-23.1,,,,,,
304365,-1.1352754,8.933864,-3.0236127,-0.137196,-0.289636,-0.967994,173.1,-146.1,-17.7,,,,,,
304385,-0.99052477,8.674868,-3.0277996,0.19055,-1.006104,-0.853664,163.5,-143.70001,-15.900001,,,,,,
304405,-1.2566984,8.771767,-2.4170957,-0.022866,-1.722572,0.213416,177.90001,-138.90001,-25.500002,,,,,,
304427,-1.317709,8.985304,-2.7227468,-0.182928,0.487808,0.53354,168.3,-146.1,-28.500002,,,,,,
304447,-1.3153164,9.09297,-2.7269337,-0.33536798,0.053354,0.487808,165.90001,-138.90001,-23.1,,,,,,
304471,-1.3147182,9.149793,-2.6766899,-0.41158798,0.015244,0.213416,185.1,-138.90001,-23.1,,,,,,
304492,-1.0587131,9.182691,-2.6629324,-0.259148,0.19055,0.213416,170.70001,-131.70001,-25.500002,,,,,,
304513,-1.27225,9.27959,-2.4111142,-0.617382,0.22865999,0.099086,165.90001,-143.70001,-20.1,,,,,,
304533,-1.3404384,8.725112,-2.5762017,-0.56402797,0.99086,-0.28201398,158.70001,-136.5,-20.1,,,,,,
304553,-1.4152063,9.232337,-2.5881646,0.015244,0.320124,0.259148,168.3,-134.1,-23.7,,,,,,
304573,-1.3673549,9.215589,-2.564239,0.007622,0.487808,0.091464,161.1,-143.70001,-20.1,,,,,,
304593,-1.0975924,9.295142,-2.6455863,0.11432999,0.41921,0.060976,173.1,-148.5,-20.7,,,,,,
304654,-1.155014,8.996669,-2.5803888,-0.198172,0.57164997,-0.030488,165.90001,-134.1,-17.7,,,,,,
304674,-1.2249968,9.014613,-2.443414,-0.30488,0.579272,-0.091464,158.70001,-146.1,-18.900002,,,,,,
304694,-1.0916109,9.174915,-2.5259578,-0.480186,0.884152,-0.16768399,177.90001,-148.5,-20.1,,,,,,
304715,-1.1197237,8.850123,-2.3949645,-0.785066,1.074702,-0.320124,170.70001,-143.70001,-18.300001,,,,,,
304735,-1.0742648,8.963172,-2.354889,-0.69360197,1.1051899,-0.182928,165.90001,-141.3,-13.500001,,,,,,
304755,-0.9229346,9.426135,-2.326178,-0.655492,1.097568,-0.40396598,173.1,-143.70001,-18.900002,,,,,,
304775,-1.067087,9.420752,-2.179035,-0.663114,1.3872039,-0.92226195,165.90001,-143.70001,-24.900002,,,,,,
304796,-1.2489225,8.922499,-2.054023,-0.70122397,1.432936,-1.417692,180.3,-131.70001,-23.1,,,,,,
304859,-1.7591385,8.813039,-1.6574541,0.022866,1.265252,-0.69360197,170.70001,-136.5,-15.900001,,,,,,
304889,-2.3710387,8.531911,-1.3212978,0.49543,0.884152,-0.137196,168.3,-134.1,-26.7,,,,,,
304909,-3.0517254,9.11211,-1.5796956,0.663114,0.83842,0.57164997,173.1,-138.90001,-17.7,,,,,,
304949,-4.8551264,9.796386,-2.3704405,0.64787,0.64787,2.080806,163.5,-143.70001,-16.5,,,,,,
304972,-5.4084086,9.445275,-2.7490652,0.69360197,-0.251526,1.94361,175.5,-143.70001,-14.1,,,,,,
304992,-5.30493,8.722719,-3.2030556,1.158544,-0.93750596,2.507638,161.1,-143.70001,-19.5,,x,,,,
305014,-4.367042,9.878929,-3.636111,1.18141,-2.7058098,3.170752,163.5,-138.90001,-20.1,,x,,,,
305035,-4.8006954,9.098352,-4.228871,1.760682,-1.204276,1.6006199,163.5,-143.70001,-19.5,,x,,,,
305055,-4.321583,8.26813,-5.258873,2.51526,-4.085392,2.43904,146.70001,-148.5,-23.7,,x,,,,
305075,-4.0930924,7.932572,-4.0841203,1.1432999,-11.326292,4.336918,153.90001,-148.5,-16.5,,x,,,,
305097,-3.3819003,7.123883,-2.1927922,1.1128119,-14.679972,5.091496,149.1,-136.5,-17.1,,x,,,,
305118,-2.2819154,6.303231,-0.6166854,1.775926,-14.969607,5.655524,156.3,-155.70001,-20.7,,x,,,,
305138,-1.4062341,6.239229,0.13398403,3.140264,-13.163194,6.143332,139.5,-160.5,-19.5,,x,,,,
305161,-0.8631203,6.5867505,-0.032897864,5.076252,-12.926911,6.082356,134.70001,-160.5,-19.5,,x,,,,
305181,-0.50363636,6.3947463,0.016748004,6.5701637,-13.498562,5.4725957,137.1,-155.70001,-26.1,,x,,,,
305201,0.25301448,6.698005,-0.39058736,8.048832,-13.7272215,5.67839,125.100006,-150.90001,-22.5,,x,,,,
305221,0.34034336,6.710566,-0.60352623,8.57475,-13.826307,5.853696,125.100006,-162.90001,-18.900002,,x,,,,
305241,1.0527316,6.5161695,-0.8948219,8.483286,-13.544293,5.884184,115.50001,-160.5,-16.5,,x,,,,
305261,1.2794278,6.777558,-2.150922,7.9345016,-9.504634,5.5030837,120.3,-148.5,-17.1,,x,,,,
305281,1.3027554,6.776362,-3.0559125,8.30798,-7.599134,4.9161897,105.9,-155.70001,-14.1,,x,,,,
305301,2.1658757,7.1519957,-4.6212525,8.178406,-4.4207597,3.833866,108.3,-153.3,-11.700001,,x,,,,
305364,2.8417773,9.75631,-10.261741,6.4786997,0.55640596,2.347576,110.700005,-148.5,-9.3,,x,,,,
305384,3.0277996,11.072225,-11.866558,6.5091877,5.205826,1.29574,91.5,-155.70001,-1.5,,x,,,,
305405,3.9262104,11.264229,-13.593397,5.205826,6.692116,-0.731712,91.5,-146.1,-18.900002,,x,,,,
305425,3.627737,10.864071,-14.116174,2.149404,3.92533,-2.492394,98.700005,-141.3,-9.3,,x,,,,
305445,3.0230145,10.666683,-13.735157,0.007622,2.6677,-3.155508,96.3,-146.1,-5.7000003,,x,,,,
305485,2.5594537,11.082991,-13.104714,-5.236314,5.18296,-5.419242,101.100006,-158.1,-3.9,,x,,,,
305505,1.4582726,9.252673,-11.881512,-7.942124,4.9619217,-6.02138,115.50001,-150.90001,-10.5,,x,,,,
305527,0.1501339,8.29086,-10.374191,-10.1372595,4.893324,-4.64942,103.50001,-158.1,-8.700001,,x,,,,
305547,-0.58318937,7.7800455,-8.741859,-11.493976,3.422278,-3.643316,110.700005,-150.90001,-10.5,,x,,,,
305567,-0.9420752,6.7961006,-6.706379,-12.096114,1.44818,-3.3003259,120.3,-160.5,-8.1,,x,,,,
305587,-1.0850314,6.1596766,-4.7648067,-11.638794,0.899396,-2.301844,115.50001,-155.70001,-14.1,,x,,,,
305607,-1.1825286,5.919223,-3.2891881,-9.832379,2.980202,-1.501534,120.3,-162.90001,-16.5,,x,,,,
305627,-0.67590153,6.2852864,-2.9990888,-8.071698,6.0290017,-1.432936,125.100006,-153.3,-12.900001,,x,,,,
305647,-0.30864176,6.369026,-2.635418,-7.256144,5.670768,-1.928366,113.100006,-158.1,-21.900002,,x,,,,
305667,0.5556748,6.5089917,-1.4750205,-8.025966,3.910086,-2.355198,115.50001,-160.5,-18.900002,,x,,,,
305690,-1.2728482,5.032177,-1.2656705,-6.577786,14.207408,-4.245454,122.700005,-158.1,-29.1,,x,,,,
305710,-0.9378882,5.9461393,-3.4620516,-3.521364,14.245518,-3.2317278,139.5,-155.70001,-21.300001,,x,,,,
305730,-0.01794429,7.761503,-2.2322695,-4.657042,4.131124,-2.2789779,129.90001,-158.1,-18.900002,,x,,,,
