time,sensor_accX[g],sensor_accY[g],sensor_accZ[g],sensor_gyroX[°/s],sensor_gyroY[°/s],sensor_gyroZ[°/s],sensor_magX[µT],sensor_magY[µT],sensor_magZ[µT]
251058,-2.054023027420044,8.82679557800293,-2.920732021331787,-0.35061198472976685,0.2591480016708374,-0.08384199440479279,199.50001525878906,-134.10000610351562,-15.90000057220459
251078,-2.009162187576294,8.91352653503418,-2.9434616565704346,-0.2972579896450043,0.2896359860897064,-0.09908600151538849,199.50001525878906,-131.70001220703125,-23.700000762939453
251098,-2.005573272705078,8.974536895751953,-2.9404709339141846,-0.3201240003108978,0.33536797761917114,-0.18292799592018127,209.10000610351562,-129.3000030517578,-17.700000762939453
251120,-2.0845282077789307,8.897974967956543,-3.0182294845581055,-0.4039659798145294,0.35061198472976685,-0.3277460038661957,199.50001525878906,-143.70001220703125,-23.100000381469727
251140,-2.0935003757476807,8.78612232208252,-3.014042377471924,-0.3277460038661957,0.23628199100494385,-0.23628199100494385,199.50001525878906,-136.5,-18.900001525878906
251160,-2.0336861610412598,8.93745231628418,-3.0152387619018555,-0.4344539940357208,0.13719600439071655,-0.1295740008354187,206.70001220703125,-146.10000610351562,-19.5
251180,-2.1449406147003174,8.930274963378906,-3.0571086406707764,-0.41158798336982727,0.17530599236488342,-0.13719600439071655,194.70001220703125,-136.5,-17.700000762939453
251200,-1.9708811044692993,9.069642066955566,-2.969181776046753,-0.426831990480423,-0.26677000522613525,-0.22103799879550934,209.10000610351562,-141.3000030517578,-14.700000762939453
251220,-1.9098705053329468,8.902759552001953,-2.860917806625366,-0.46494197845458984,0.2134159952402115,-0.28201398253440857,201.90000915527344,-143.70001220703125,-15.300000190734863
251240,-2.0486397743225098,8.871058464050293,-2.9404709339141846,-0.510673999786377,0.426831990480423,-0.2591480016708374,201.90000915527344,-143.70001220703125,-15.90000057220459
251260,-2.0695745944976807,8.783729553222656,-2.8633103370666504,-0.4878079891204834,0.39634400606155396,-0.12195199728012085,209.10000610351562,-138.90000915527344,-17.100000381469727
251280,-2.041461944580078,8.843544006347656,-2.912358045578003,-0.3582339882850647,0.41158798336982727,-0.04573199898004532,199.50001525878906,-143.70001220703125,-19.5
251300,-1.9607126712799072,8.818421363830566,-2.838188409805298,-0.2743920087814331,0.342989981174469,-0.05335399881005287,204.3000030517578,-138.90000915527344,-14.100000381469727
251320,-1.9810495376586914,8.853114128112793,-2.9225265979766846,-0.2743920087814331,0.3887220025062561,-0.08384199440479279,192.3000030517578,-138.90000915527344,-21.900001525878906
251340,-2.0007882118225098,8.865077018737793,-2.9285080432891846,-0.22103799879550934,0.3125019967556,-0.13719600439071655,189.90000915527344,-131.70001220703125,-19.5
251360,-2.000190019607544,8.912330627441406,-2.9189376831054688,-0.228659987449646,0.23628199100494385,-0.23628199100494385,187.5,-131.70001220703125,-25.500001907348633
251382,-2.0396676063537598,8.855506896972656,-2.9620039463043213,-0.3277460038661957,0.26677000522613525,-0.2896359860897064,199.50001525878906,-136.5,-18.900001525878906
251402,-2.0617988109588623,8.823206901550293,-2.978153944015503,-0.3277460038661957,0.16768398880958557,-0.2743920087814331,199.50001525878906,-138.90000915527344,-14.700000762939453
251422,-2.0426583290100098,8.917713165283203,-2.9590132236480713,-0.2439039945602417,0.060975998640060425,-0.17530599236488342,206.70001220703125,-143.70001220703125,-23.700000762939453
251442,-1.9870309829711914,8.878235816955566,-2.9201340675354004,-0.3048799932003021,0.08384199440479279,-0.2134159952402115,192.3000030517578,-136.5,-18.900001525878906
251462,-2.0193307399749756,8.899768829345703,-2.9560225009918213,-0.2743920087814331,0.2134159952402115,-0.17530599236488342,185.10000610351562,-136.5,-18.900001525878906
251482,-2.0606024265289307,8.91950798034668,-2.9799482822418213,-0.2972579896450043,0.2439039945602417,-0.25152599811553955,187.5,-143.70001220703125,-20.100000381469727
251568,-2.0917060375213623,8.909937858581543,-3.014042377471924,-0.3277460038661957,0.1600620001554489,-0.28201398253440857,201.90000915527344,-134.10000610351562,-23.700000762939453
251603,-2.118622303009033,8.89259147644043,-3.0218183994293213,-0.4192099869251251,0.2439039945602417,-0.19817200303077698,201.90000915527344,-131.70001220703125,-14.700000762939453
251624,-2.2962708473205566,8.73228931427002,-3.1007730960845947,-0.49542999267578125,0.2896359860897064,-0.23628199100494385,197.10000610351562,-131.70001220703125,-14.700000762939453
251665,-2.6754934787750244,8.235830307006836,-3.1761391162872314,-0.4878079891204834,0.48018598556518555,-0.3887220025062561,197.10000610351562,-136.5,-14.100000381469727
251685,-2.839982748031616,8.14551067352295,-3.4500887393951416,-0.3125019967556,0.6478700041770935,-0.2134159952402115,192.3000030517578,-141.3000030517578,-16.5
251705,-2.531341075897217,8.69041919708252,-3.555361747741699,-0.10670799762010574,0.030487999320030212,0.15243999660015106,189.90000915527344,-136.5,-17.100000381469727
251725,-2.44102144241333,9.107922554016113,-3.3579745292663574,-0.3277460038661957,0.1448179930448532,0.02286599949002266,199.50001525878906,-134.10000610351562,-26.100000381469727
251745,-2.2215030193328857,9.282580375671387,-3.6971216201782227,-0.10670799762010574,0.9222619533538818,0.15243999660015106,197.10000610351562,-138.90000915527344,-15.90000057220459
251765,-2.5110042095184326,9.322656631469727,-3.4153964519500732,-0.7545779943466187,0.4878079891204834,0.16768398880958557,192.3000030517578,-124.50000762939453,-10.5
251786,-2.6970267295837402,9.168933868408203,-3.5218658447265625,-0.9832379817962646,1.5548880100250244,0.3277460038661957,197.10000610351562,-143.70001220703125,-19.5
251807,-2.4643490314483643,9.42852783203125,-3.5751004219055176,-1.1280559301376343,1.0365920066833496,0.7088459730148315,199.50001525878906,-148.5,-21.900001525878906
251847,-2.262176752090454,9.21917724609375,-3.1611855030059814,-1.6082419157028198,1.0442140102386475,1.2118979692459106,204.3000030517578,-131.70001220703125,-16.5
251867,-2.539715051651001,9.24130916595459,-3.281412363052368,-1.7301939725875854,1.3567159175872803,1.1204339265823364,192.3000030517578,-138.90000915527344,-18.30000114440918
251888,-2.393170118331909,9.420751571655273,-3.4530794620513916,-1.3490939140319824,0.8612859845161438,0.9070180058479309,189.90000915527344,-136.5,-24.900001525878906
251908,-2.059406280517578,9.82390022277832,-2.957218885421753,-1.417691946029663,0.5411620140075684,0.7774440050125122,197.10000610351562,-141.3000030517578,-22.5
251928,-2.259186029434204,9.808348655700684,-2.8238329887390137,-1.6082419157028198,1.0289700031280518,0.571649968624115,189.90000915527344,-146.10000610351562,-26.100000381469727
251949,-2.405730962753296,9.608569145202637,-3.1133341789245605,-1.5091559886932373,1.875011920928955,0.5259180068969727,187.5,-146.10000610351562,-25.500001907348633
251969,-2.3327574729919434,9.603185653686523,-2.804692506790161,-1.425313949584961,1.3414719104766846,1.0594580173492432,189.90000915527344,-136.5,-23.700000762939453
251989,-1.9906197786331177,9.809544563293457,-2.661736249923706,-1.1585439443588257,1.9588539600372314,1.7149499654769897,185.10000610351562,-148.5,-16.5
252009,-2.116827964782715,9.988987922668457,-2.6192681789398193,-1.1204339265823364,2.187514066696167,1.7911700010299683,187.5,-146.10000610351562,-21.30000114440918
252029,-2.6007256507873535,10.11758804321289,-3.2808141708374023,-0.7469559907913208,2.888737916946411,1.4405579566955566,194.70001220703125,-143.70001220703125,-20.100000381469727
252049,-2.5971367359161377,10.039231300354004,-3.3932650089263916,-0.6097599864006042,2.278977870941162,1.3567159175872803,187.5,-143.70001220703125,-23.700000762939453
252069,-2.5235652923583984,9.855003356933594,-3.1312785148620605,-0.6326259970664978,1.1585439443588257,1.806414008140564,180.3000030517578,-138.90000915527344,-21.900001525878906
252089,-2.4188902378082275,10.06973648071289,-3.180326223373413,-0.8689079880714417,1.4862899780273438,2.6219680309295654,189.90000915527344,-146.10000610351562,-18.30000114440918
252109,-2.521172523498535,9.866966247558594,-3.2150185108184814,-0.967993974685669,1.6158639192581177,2.698187828063965,173.10000610351562,-146.10000610351562,-15.300000190734863
252129,-2.3865904808044434,9.728795051574707,-3.308926820755005,-1.0061039924621582,1.3795819282531738,3.2850818634033203,170.70001220703125,-162.90000915527344,-17.100000381469727
252149,-2.187408924102783,9.52004337310791,-2.9255173206329346,-1.2271419763565063,1.0289700031280518,3.765267848968506,180.3000030517578,-141.3000030517578,-14.700000762939453
252169,-1.7076982259750366,9.902256965637207,-2.771794557571411,-1.196653962135315,1.0899460315704346,4.28356409072876,168.3000030517578,-146.10000610351562,-22.5
252211,-1.5856770277023315,9.060669898986816,-2.0976874828338623,-1.0594580173492432,1.5548880100250244,3.5823400020599365,151.5,-160.5,-19.5
252232,-1.1849212646484375,9.524828910827637,-1.9439646005630493,-0.7850660085678101,1.1509219408035278,3.7195358276367188,149.10000610351562,-146.10000610351562,-17.100000381469727
252253,-1.1245087385177612,9.688719749450684,-1.7657181024551392,-1.1509219408035278,1.524399995803833,3.818621873855591,149.10000610351562,-162.90000915527344,-25.500001907348633
252273,-1.2375577688217163,9.69529914855957,-1.8051954507827759,-1.2118979692459106,1.8673899173736572,3.955817937850952,151.5,-162.90000915527344,-23.700000762939453
252337,-1.4845908880233765,9.795188903808594,-2.128192663192749,-0.9527499675750732,1.2118979692459106,4.054903984069824,146.70001220703125,-167.70001220703125,-16.5
252357,-1.1556122303009033,9.610363006591797,-2.184418201446533,-0.9298839569091797,0.8765299916267395,4.39027214050293,134.70001220703125,-162.90000915527344,-15.300000190734863
252377,-0.7321270108222961,9.048707008361816,-2.0199289321899414,-0.9603719711303711,0.7545779943466187,4.8018598556518555,113.10000610351562,-165.3000030517578,-19.5
252397,-0.24045348167419434,9.561315536499023,-2.18800687789917,-0.6250039935112,0.8917739987373352,5.586925983428955,120.30000305175781,-167.70001220703125,-16.5
252420,-0.20037789642810822,9.578063011169434,-2.068976640701294,-0.853663980960846,1.1661659479141235,5.137228012084961,110.70000457763672,-160.5,-21.30000114440918
252440,-0.10048802196979523,9.808348655700684,-2.1533145904541016,-0.7698220014572144,1.3643379211425781,5.221069812774658,105.9000015258789,-172.5,-15.90000057220459
252460,-0.08613258600234985,9.76109504699707,-1.9445627927780151,-1.0518360137939453,1.478667974472046,4.687530040740967,103.50000762939453,-167.70001220703125,-18.900001525878906
252480,-0.040075577795505524,9.49013614654541,-1.8680005073547363,-1.0747020244598389,1.7683039903640747,4.047281742095947,93.9000015258789,-170.10000610351562,-21.30000114440918
252503,0.19200389087200165,9.005640983581543,-1.4798057079315186,-1.0899460315704346,1.4634239673614502,3.5823400020599365,96.30000305175781,-182.10000610351562,-18.900001525878906
252523,0.22250919044017792,8.917115211486816,-1.402645230293274,-1.013725996017456,2.1646480560302734,4.314052104949951,77.10000610351562,-177.3000030517578,-17.100000381469727
252543,-0.06818830221891403,8.611464500427246,-1.6927446126937866,-1.478667974472046,2.6143460273742676,4.603687763214111,84.30000305175781,-186.90000915527344,-15.90000057220459
252564,-0.1280025988817215,8.2142972946167,-1.7770828008651733,-0.6631140112876892,2.332331895828247,4.763750076293945,72.30000305175781,-174.90000915527344,-26.700000762939453
252584,0.24822933971881866,8.481667518615723,-1.5737141370773315,-0.3277460038661957,1.5853760242462158,5.327777862548828,72.30000305175781,-172.5,-27.30000114440918
252604,0.5203843712806702,8.517556190490723,-1.420589566230774,-0.342989981174469,1.600619912147522,4.900945663452148,79.5,-191.70001220703125,-24.30000114440918
252624,0.6352278590202332,7.8530192375183105,-1.296773910522461,-0.28201398253440857,1.5472660064697266,3.8948419094085693,77.10000610351562,-179.70001220703125,-23.700000762939453
252644,1.146041989326477,7.7902140617370605,-1.1681731939315796,0.25152599811553955,1.3338500261306763,3.810999870300293,65.10000610351562,-184.5,-14.700000762939453
252664,1.7507644891738892,8.837562561035156,-1.013254165649414,0.25152599811553955,1.3186060190200806,4.131124019622803,65.10000610351562,-174.90000915527344,-20.700000762939453
252687,1.6622393131256104,8.068350791931152,-0.7674174308776855,-0.39634400606155396,2.03507399559021,2.8658719062805176,53.10000228881836,-177.3000030517578,-21.30000114440918
252708,2.0785467624664307,7.888907432556152,-0.506627082824707,0.030487999320030212,2.4237959384918213,2.8125178813934326,55.500003814697266,-179.70001220703125,-24.900001525878906
252729,2.295074462890625,8.083902359008789,-0.6005355715751648,-0.114329993724823,3.307947874069214,2.1722700595855713,48.30000305175781,-158.10000610351562,-15.300000190734863
252753,2.575005531311035,8.665297508239746,-0.9163550138473511,0.426831990480423,3.6890478134155273,1.600619912147522,38.70000076293945,-182.10000610351562,-22.5
252773,2.8657028675079346,9.00324821472168,-1.1203217506408691,0.6554920077323914,3.7195358276367188,0.5945159792900085,48.30000305175781,-167.70001220703125,-23.100000381469727
252793,3.073856830596924,8.858497619628906,-1.2154265642166138,0.9375059604644775,3.4222779273986816,-0.15243999660015106,50.70000076293945,-182.10000610351562,-21.30000114440918
252813,3.26167368888855,9.173718452453613,-1.0204318761825562,0.7698220014572144,2.9344699382781982,-0.4878079891204834,41.10000228881836,-184.5,-19.5
252853,3.392068862915039,9.23712158203125,-1.4732261896133423,0.38109999895095825,3.239349842071533,-3.1707520484924316,48.30000305175781,-177.3000030517578,-27.30000114440918
252876,3.3400304317474365,8.929078102111816,-1.519881248474121,0.3582339882850647,3.102154016494751,-3.612828016281128,60.30000305175781,-170.10000610351562,-14.100000381469727
252896,3.7066919803619385,9.144410133361816,-1.8351026773452759,0.7164679765701294,2.8658719062805176,-3.4298999309539795,48.30000305175781,-177.3000030517578,-20.700000762939453
252916,4.153504848480225,9.3717041015625,-1.8979076147079468,0.2439039945602417,2.3170878887176514,-3.300325870513916,45.900001525878906,-182.10000610351562,-21.30000114440918
252939,3.311917543411255,7.303923606872559,-2.059406280517578,0.3125019967556,3.292703866958618,-4.237832069396973,77.10000610351562,-167.70001220703125,-21.30000114440918
252959,2.978153944015503,6.998870849609375,-2.845964193344116,1.242385983467102,3.1707520484924316,-3.1173980236053467,57.900001525878906,-174.90000915527344,-18.900001525878906
252979,3.5302398204803467,8.421255111694336,-3.323880434036255,1.6692179441452026,2.28659987449646,-1.242385983467102,57.900001525878906,-172.5,-15.90000057220459
252999,3.6857569217681885,8.744850158691406,-3.8113670349121094,2.073184013366699,2.7210538387298584,-1.3414719104766846,60.30000305175781,-177.3000030517578,-12.300000190734863
253019,3.812563180923462,8.734084129333496,-4.359864234924316,2.134160041809082,1.8140360116958618,-1.0061039924621582,62.70000076293945,-170.10000610351562,-14.100000381469727
253039,3.261075496673584,8.356057167053223,-4.0404558181762695,1.1128119230270386,0.35061198472976685,-1.1814099550247192,60.30000305175781,-167.70001220703125,-12.90000057220459
253059,2.7640187740325928,7.6741743087768555,-3.773684024810791,1.1509219408035278,0.5030519962310791,-1.92836594581604,60.30000305175781,-179.70001220703125,-10.5
253079,2.954228162765503,8.024685859680176,-3.967482328414917,0.7774440050125122,0.5259180068969727,-1.5091559886932373,77.10000610351562,-177.3000030517578,-15.90000057220459
253099,2.8094775676727295,7.966068267822266,-3.992006301879883,-0.060975998640060425,0.8993960022926331,-1.8673899173736572,69.9000015258789,-172.5,-17.100000381469727
253119,2.6120903491973877,8.087491035461426,-4.325769901275635,0.19817200303077698,1.3109840154647827,-2.073184013366699,62.70000076293945,-184.5,-19.5
253139,2.4517879486083984,7.812345504760742,-4.392762184143066,-0.18292799592018127,1.0061039924621582,-2.5686140060424805,81.9000015258789,-165.3000030517578,-21.900001525878906
253161,2.2065494060516357,7.5611252784729,-4.247413158416748,-0.510673999786377,0.35061198472976685,-2.6677000522613525,77.10000610351562,-174.90000915527344,-15.90000057220459
253182,2.161688804626465,7.6568284034729,-4.175037860870361,-0.6021379828453064,0.030487999320030212,-2.538125991821289,81.9000015258789,-177.3000030517578,-9.90000057220459
253224,2.2490174770355225,8.0886869430542,-4.128382682800293,-1.3262280225753784,-0.8765299916267395,-2.5686140060424805,91.5,-170.10000610351562,-18.900001525878906
253244,2.2484195232391357,7.971451282501221,-4.118214130401611,-1.2347639799118042,-1.3948259353637695,-2.3551979064941406,93.9000015258789,-165.3000030517578,-10.5
253264,2.2968690395355225,8.296242713928223,-4.012342929840088,-1.067080020904541,-2.28659987449646,-1.92836594581604,96.30000305175781,-165.3000030517578,-15.90000057220459
253287,2.333355665206909,8.776552200317383,-3.7192530632019043,-1.196653962135315,-3.5442299842834473,-1.8445239067077637,91.5,-160.5,-18.30000114440918
253307,2.158099889755249,8.696998596191406,-3.3131139278411865,-1.3643379211425781,-3.9405739307403564,-2.492393970489502,89.10000610351562,-172.5,-22.5
253329,2.080939292907715,8.78492546081543,-3.022416353225708,-1.753059983253479,-3.696669816970825,-3.3155698776245117,93.9000015258789,-170.10000610351562,-14.100000381469727
253349,1.8111768960952759,8.393141746520996,-2.8986008167266846,-2.0655620098114014,-3.0106899738311768,-4.093013763427734,91.5,-155.70001220703125,-23.100000381469727
253369,1.6131916046142578,8.47030258178711,-2.726933717727661,-2.1036720275878906,-2.6143460273742676,-4.00154972076416,96.30000305175781,-160.5,-17.700000762939453
253389,1.3535975217819214,8.674269676208496,-2.5528740882873535,-2.332331895828247,-2.332331895828247,-3.803377866744995,103.50000762939453,-167.70001220703125,-16.5
253413,1.0365817546844482,8.52293872833252,-2.2496156692504883,-2.690565824508667,-1.92836594581604,-3.7805118560791016,108.30000305175781,-158.10000610351562,-9.300000190734863
253433,0.802707850933075,8.17541790008545,-2.1389591693878174,-2.7591638565063477,-1.3490939140319824,-3.5899620056152344,96.30000305175781,-165.3000030517578,-18.30000114440918
253454,0.708799421787262,9.341198921203613,-2.575603723526001,-2.2713558673858643,-1.4481799602508545,-2.682943820953369,110.70000457763672,-155.70001220703125,-15.90000057220459
253474,0.5012438297271729,9.089380264282227,-2.112640857696533,-2.5228819847106934,-1.9512319564819336,-3.4222779273986816,115.50000762939453,-158.10000610351562,-15.300000190734863
253494,1.0658907890319824,9.871153831481934,-2.122211217880249,-2.2180018424987793,-2.6600780487060547,-2.9649579524993896,120.30000305175781,-172.5,-17.700000762939453
253516,1.1496307849884033,10.250375747680664,-1.2584928274154663,-3.696669816970825,-3.239349842071533,-3.5442299842834473,129.90000915527344,-160.5,-24.900001525878906
253536,0.36546534299850464,8.37160873413086,-1.8010084629058838,-3.620450019836426,-1.6387299299240112,-4.817103862762451,125.10000610351562,-150.90000915527344,-24.30000114440918
253556,0.07297344505786896,9.037342071533203,-1.7734938859939575,-2.0045859813690186,-3.246971845626831,-3.254593849182129,134.70001220703125,-165.3000030517578,-24.30000114440918
253576,-0.04785143584012985,9.3238525390625,-1.5635457038879395,-2.03507399559021,-3.6356940269470215,-3.163130044937134,134.70001220703125,-158.10000610351562,-27.900001525878906
253596,-0.38939106464385986,9.06904411315918,-1.336849570274353,-1.6387299299240112,-4.077769756317139,-3.003067970275879,139.5,-162.90000915527344,-18.900001525878906
253619,-0.7674174308776855,10.27011489868164,-1.2124358415603638,-0.9527499675750732,-4.725639820098877,-1.9893419742584229,129.90000915527344,-148.5,-24.900001525878906
253639,-0.2871086299419403,13.443263053894043,-1.699324131011963,-0.7240899801254272,-4.146368026733398,0.6783579587936401,139.5,-158.10000610351562,-21.30000114440918
253659,0.1926020383834839,15.16711139678955,-0.30923992395401,-3.506119966506958,-5.670767784118652,-1.707327961921692,125.10000610351562,-172.5,-22.5
253679,-1.1544159650802612,11.118281364440918,0.46714967489242554,-3.9786839485168457,-2.545747995376587,-7.50004768371582,141.90000915527344,-155.70001220703125,-23.100000381469727
253699,-1.7956252098083496,9.95549201965332,0.07895487546920776,-3.7957558631896973,-1.5472660064697266,-5.564059734344482,153.90000915527344,-150.90000915527344,-27.30000114440918
253759,-1.9110667705535889,7.450469017028809,-0.26677176356315613,-0.28201398253440857,-1.4862899780273438,0.015243999660015106,173.10000610351562,-155.70001220703125,-23.700000762939453
253780,-1.2034636735916138,8.572585105895996,-0.30923992395401,-0.007621999830007553,-1.0747020244598389,1.8216580152511597,151.5,-153.3000030517578,-24.900001525878906
253801,-0.8260354399681091,9.05588436126709,-0.4426257908344269,-0.08384199440479279,-0.8307979702949524,1.8521459102630615,149.10000610351562,-143.70001220703125,-38.70000076293945
253822,-0.6130965352058411,8.954798698425293,-0.353502482175827,-0.9756159782409668,-0.426831990480423,1.4634239673614502,146.70001220703125,-158.10000610351562,-32.70000076293945
253842,-0.48808467388153076,9.198841094970703,-0.28351977467536926,-1.0365920066833496,-0.510673999786377,1.3186060190200806,158.70001220703125,-148.5,-32.70000076293945
253862,-0.3738393485546112,9.466809272766113,-0.23327575623989105,-1.4939119815826416,-0.46494197845458984,0.7621999979019165,158.70001220703125,-146.10000610351562,-33.900001525878906
253885,-0.39058735966682434,9.375890731811523,-0.06998272985219955,-1.882633924484253,-0.5487840175628662,-0.12195199728012085,146.70001220703125,-150.90000915527344,-27.30000114440918
253905,-0.31881019473075867,9.761693000793457,0.0017944289138540626,-1.4939119815826416,-0.4878079891204834,-0.5411620140075684,149.10000610351562,-155.70001220703125,-31.500001907348633
253926,-0.5915634036064148,9.342992782592773,0.1088620200753212,-1.806414008140564,-0.06859800219535828,-1.2500079870224,141.90000915527344,-148.5,-34.5
253946,-0.7363139986991882,9.107922554016113,0.2930900454521179,-1.3033620119094849,0.12195199728012085,-1.3109840154647827,153.90000915527344,-158.10000610351562,-31.500001907348633
254029,-0.352904349565506,9.574474334716797,0.1088620200753212,-0.6326259970664978,1.5320219993591309,-0.6402480006217957,151.5,-148.5,-31.500001907348633
254183,-0.6603498458862305,8.1784086227417,-0.5461045503616333,-0.23628199100494385,1.92836594581604,-3.5366079807281494,163.5,-162.90000915527344,-29.100000381469727
254203,-1.2243986129760742,8.94343376159668,-1.748371958732605,2.179892063140869,1.707327961921692,-2.6753220558166504,156.3000030517578,-143.70001220703125,-32.10000228881836
254243,-1.4510948657989502,9.814330101013184,-2.723942995071411,3.2241058349609375,-1.4634239673614502,-4.32167387008667,163.5,-153.3000030517578,-29.100000381469727
254287,-1.2985683679580688,11.603973388671875,-3.68994402885437,2.5228819847106934,-1.1280559301376343,-3.4908759593963623,163.5,-155.70001220703125,-30.30000114440918
254307,-2.095294713973999,10.548849105834961,-4.223487377166748,2.583858013153076,-1.2118979692459106,-5.1067399978637695,170.70001220703125,-134.10000610351562,-31.500001907348633
254327,-2.2155215740203857,9.561315536499023,-4.64697265625,2.385685920715332,-2.545747995376587,-4.847591876983643,182.70001220703125,-136.5,-20.100000381469727
254367,-2.0037789344787598,8.070144653320312,-3.3693394660949707,0.05335399881005287,-3.7957558631896973,-3.4908759593963623,182.70001220703125,-119.70000457763672,-23.100000381469727
254388,-1.8327100276947021,7.890702247619629,-3.6223537921905518,0.038109999150037766,-2.378063917160034,-1.8597679138183594,182.70001220703125,-124.50000762939453,-20.700000762939453
254408,-1.535433053970337,8.646156311035156,-3.276029109954834,-0.41158798336982727,-2.8277618885040283,-0.2591480016708374,177.90000915527344,-141.3000030517578,-29.700000762939453
254428,-1.324886679649353,8.707167625427246,-2.1706607341766357,-1.3490939140319824,-2.042695999145508,-0.28201398253440857,177.90000915527344,-134.10000610351562,-30.900001525878906
254448,-1.3667566776275635,8.72331714630127,-2.0917060375213623,-1.2804960012435913,-1.2500079870224,-0.2134159952402115,182.70001220703125,-141.3000030517578,-35.70000076293945
254468,-1.609602689743042,9.136035919189453,-2.25679349899292,-1.3186060190200806,-0.8307979702949524,-0.39634400606155396,177.90000915527344,-148.5,-28.500001907348633
254488,-1.446907877922058,8.78791618347168,-2.0797431468963623,-1.5167779922485352,-0.6631140112876892,-1.0518360137939453,185.10000610351562,-126.9000015258789,-30.30000114440918
254510,-1.6221637725830078,8.854310035705566,-2.3530943393707275,-1.8521459102630615,-0.8079319596290588,-1.4481799602508545,185.10000610351562,-136.5,-24.900001525878906
254530,-1.8022047281265259,8.816627502441406,-2.6479790210723877,-1.7149499654769897,-0.5335400104522705,-1.600619912147522,187.5,-134.10000610351562,-27.30000114440918
254550,-1.9104686975479126,8.806459426879883,-2.9949018955230713,-1.9969639778137207,-1.0899460315704346,-1.6158639192581177,201.90000915527344,-114.9000015258789,-27.30000114440918
254613,-1.4624595642089844,8.455946922302246,-2.1036689281463623,-2.4009299278259277,-3.155508041381836,-2.5000159740448,211.50001525878906,-136.5,-38.70000076293945
254633,-1.5677326917648315,7.842252731323242,-1.9780588150024414,-1.5625100135803223,-2.7286758422851562,-1.8902559280395508,194.70001220703125,-126.9000015258789,-29.700000762939453
254653,-1.3906824588775635,8.189773559570312,-1.5784993171691895,-1.0289700031280518,-2.995445966720581,-0.4344539940357208,187.5,-138.90000915527344,-39.30000305175781
254673,-1.2979702949523926,9.15457820892334,-1.5934529304504395,-0.4039659798145294,-1.753059983253479,0.41158798336982727,201.90000915527344,-134.10000610351562,-37.5
254693,-1.1873137950897217,9.554137229919434,-1.7968214750289917,-0.16768398880958557,-1.2804960012435913,-0.09146399796009064,197.10000610351562,-124.50000762939453,-32.10000228881836
254715,-1.4678428173065186,8.66170883178711,-1.3183071613311768,0.09908600151538849,-0.8765299916267395,-1.0061039924621582,192.3000030517578,-117.30000305175781,-35.70000076293945
254735,-1.625752568244934,8.75920581817627,-1.4857871532440186,1.3948259353637695,-0.7088459730148315,0.030487999320030212,192.3000030517578,-138.90000915527344,-31.500001907348633
254755,-1.6143878698349,9.221570014953613,-0.9295141696929932,1.021347999572754,-0.8689079880714417,0.6326259970664978,192.3000030517578,-129.3000030517578,-28.500001907348633
254776,-1.9074779748916626,8.65871810913086,-0.8996070027351379,0.6554920077323914,-0.38109999895095825,0.6097599864006042,187.5,-134.10000610351562,-39.900001525878906
254796,-2.3357481956481934,9.32684326171875,-0.7512675523757935,1.3414719104766846,-0.6097599864006042,2.0960500240325928,201.90000915527344,-119.70000457763672,-27.900001525878906
254816,-2.318402051925659,10.846126556396484,-0.8541481494903564,0.4039659798145294,-1.3109840154647827,2.492393970489502,189.90000915527344,-138.90000915527344,-24.900001525878906
254836,-2.3764219284057617,10.843135833740234,-0.8266335725784302,-0.6936019659042358,-0.8841519951820374,1.3033620119094849,187.5,-138.90000915527344,-43.5
254858,-1.6030231714248657,13.23869800567627,-1.2124358415603638,-2.4619059562683105,-2.995445966720581,3.1402640342712402,182.70001220703125,-138.90000915527344,-41.10000228881836
254920,-2.378814697265625,10.188169479370117,0.04366443678736687,-2.6295900344848633,0.800309956073761,0.41158798336982727,180.3000030517578,-122.10000610351562,-30.30000114440918
254969,-2.739494800567627,9.210205078125,1.1173310279846191,-2.385685920715332,-0.007621999830007553,-2.0045859813690186,192.3000030517578,-129.3000030517578,-34.5
254990,-2.8812546730041504,9.27899169921875,1.2872036695480347,-2.0579400062561035,0.1448179930448532,-1.2271419763565063,197.10000610351562,-129.3000030517578,-33.30000305175781
255030,-3.374722719192505,8.774757385253906,1.128097653388977,-0.7240899801254272,-0.030487999320030212,-0.1295740008354187,189.90000915527344,-129.3000030517578,-33.900001525878906
255051,-2.9972944259643555,9.679149627685547,0.9456640481948853,0.46494197845458984,-0.49542999267578125,0.7850660085678101,199.50001525878906,-126.9000015258789,-38.10000228881836
255071,-2.7293264865875244,9.828086853027344,0.8308205604553223,0.030487999320030212,-1.2728739976882935,0.6631140112876892,182.70001220703125,-131.70001220703125,-39.900001525878906
255091,-2.5116024017333984,9.346582412719727,0.8631203174591064,0.015243999660015106,-1.8597679138183594,0.6631140112876892,185.10000610351562,-131.70001220703125,-40.5
255112,-2.3207948207855225,9.002650260925293,0.8015115857124329,0.015243999660015106,-1.9969639778137207,1.3109840154647827,185.10000610351562,-136.5,-39.900001525878906
255172,-1.6885576248168945,8.78193473815918,1.111947774887085,0.8307979702949524,-0.8231759667396545,4.275941848754883,177.90000915527344,-138.90000915527344,-38.70000076293945
255224,-0.46714967489242554,9.277795791625977,0.8433815836906433,0.6936019659042358,2.5533699989318848,3.1250200271606445,161.10000610351562,-141.3000030517578,-41.10000228881836
255325,-0.4838976562023163,9.441088676452637,-0.29069748520851135,0.5868939757347107,2.3475759029388428,1.417691946029663,161.10000610351562,-146.10000610351562,-30.900001525878906
255346,0.04844957962632179,9.504491806030273,-0.4886828064918518,0.914639949798584,2.0045859813690186,1.2804960012435913,173.10000610351562,-153.3000030517578,-39.900001525878906
255387,0.41989636421203613,11.587225914001465,-1.3811120986938477,0.4420759975910187,2.5076379776000977,0.3582339882850647,153.90000915527344,-150.90000915527344,-30.900001525878906
255407,-0.8074930310249329,8.59591293334961,-1.22499680519104,-1.9740979671478271,1.8445239067077637,-1.6692179441452026,158.70001220703125,-136.5,-37.5
255447,-1.4134118556976318,8.906947135925293,-2.2197086811065674,0.4725639820098877,1.3872039318084717,0.571649968624115,161.10000610351562,-150.90000915527344,-30.900001525878906
255467,-1.296773910522461,9.65462589263916,-2.6120903491973877,0.8155539631843567,0.7774440050125122,0.16768398880958557,156.3000030517578,-150.90000915527344,-30.30000114440918
255490,-1.1861175298690796,9.71324348449707,-2.584575891494751,0.5792719721794128,-0.13719600439071655,-0.17530599236488342,149.10000610351562,-148.5,-32.10000228881836
255510,-1.4092248678207397,9.4195556640625,-2.26277494430542,0.8460419774055481,-0.2743920087814331,-0.04573199898004532,158.70001220703125,-150.90000915527344,-34.5
255530,-1.303951621055603,9.777244567871094,-2.313616991043091,1.5853760242462158,-0.16768398880958557,-0.015243999660015106,153.90000915527344,-141.3000030517578,-27.30000114440918
255553,-1.342831015586853,10.039231300354004,-2.7472705841064453,1.7683039903640747,0.7088459730148315,-0.3734779953956604,163.5,-146.10000610351562,-30.30000114440918
255573,-1.2489224672317505,9.72640323638916,-2.6312308311462402,1.6234859228134155,0.6554920077323914,-0.5945159792900085,168.3000030517578,-146.10000610351562,-27.30000114440918
255597,-1.3978601694107056,9.417162895202637,-2.602519989013672,1.5091559886932373,0.9375059604644775,-0.19054999947547913,163.5,-146.10000610351562,-33.900001525878906
255617,-1.5826863050460815,9.280786514282227,-2.6808767318725586,1.5625100135803223,0.7850660085678101,0.3201240003108978,161.10000610351562,-150.90000915527344,-38.10000228881836
255639,-0.909177303314209,9.26702880859375,-2.5702202320098877,1.3262280225753784,0.2591480016708374,1.2652519941329956,158.70001220703125,-143.70001220703125,-27.900001525878906
255659,-0.9761693477630615,8.674867630004883,-2.536724328994751,0.8917739987373352,0.6478700041770935,1.3262280225753784,156.3000030517578,-158.10000610351562,-26.700000762939453
255680,-0.6346296668052673,8.966761589050293,-2.864506721496582,1.0975680351257324,0.26677000522613525,1.9740979671478271,168.3000030517578,-150.90000915527344,-27.30000114440918
255700,-0.5778061151504517,8.85969352722168,-2.6868581771850586,0.33536797761917114,0.26677000522613525,1.646351933479309,151.5,-150.90000915527344,-37.5
255720,-0.4970568120479584,8.731093406677246,-2.6940360069274902,-0.2134159952402115,0.06859800219535828,1.3948259353637695,153.90000915527344,-146.10000610351562,-24.900001525878906
255743,-0.2075556069612503,8.221475601196289,-2.176044225692749,-0.7850660085678101,0.17530599236488342,1.295740008354187,163.5,-158.10000610351562,-27.30000114440918
255764,-0.28651049733161926,8.126968383789062,-2.0516304969787598,-0.510673999786377,0.6021379828453064,1.5929979085922241,151.5,-148.5,-29.700000762939453
255784,0.25122004747390747,9.481761932373047,-2.19697904586792,0.16768398880958557,0.8841519951820374,2.080806016921997,156.3000030517578,-148.5,-27.900001525878906
255804,0.1692744642496109,10.810237884521484,-2.4224791526794434,0.739333987236023,1.1128119230270386,2.1036720275878906,149.10000610351562,-158.10000610351562,-34.5
255824,0.8685035705566406,12.842727661132812,-2.831010580062866,0.457319974899292,0.19054999947547913,1.981719970703125,156.3000030517578,-158.10000610351562,-28.500001907348633
255847,-0.2900993525981903,9.167737007141113,-1.4588706493377686,-2.1494040489196777,-1.0823240280151367,-1.4481799602508545,144.3000030517578,-158.10000610351562,-25.500001907348633
255867,-0.5329453945159912,8.010330200195312,-1.8925243616104126,-0.8612859845161438,-0.4192099869251251,0.7088459730148315,137.10000610351562,-150.90000915527344,-33.30000305175781
255889,-0.44382208585739136,9.47039794921875,-1.8835521936416626,-0.1295740008354187,-1.0442140102386475,1.699705958366394,137.10000610351562,-162.90000915527344,-26.700000762939453
255909,-0.6884625554084778,9.360339164733887,-1.8823559284210205,0.6326259970664978,-2.4695279598236084,0.9451279640197754,144.3000030517578,-158.10000610351562,-27.900001525878906
255929,-0.5933578014373779,9.342394828796387,-1.6538653373718262,0.7621999979019165,-2.9192259311676025,0.7621999979019165,134.70001220703125,-153.3000030517578,-24.900001525878906
255949,-0.6483869552612305,9.352563858032227,-1.5539754629135132,0.8689079880714417,-2.8582499027252197,0.5945159792900085,134.70001220703125,-160.5,-29.100000381469727
255971,-0.3086417615413666,9.26523494720459,-0.8374001383781433,0.8079319596290588,-3.0259339809417725,0.5792719721794128,134.70001220703125,-155.70001220703125,-33.900001525878906
255991,-0.34692293405532837,9.417162895202637,-0.5790023803710938,0.6478700041770935,-1.9054999351501465,1.1280559301376343,134.70001220703125,-155.70001220703125,-30.30000114440918
256012,-0.5945541262626648,9.32086181640625,-0.38759663701057434,0.4039659798145294,-1.4100699424743652,1.2576299905776978,134.70001220703125,-153.3000030517578,-29.700000762939453
256032,0.08852516114711761,9.775450706481934,-0.09151587635278702,1.4329359531402588,-0.8841519951820374,1.8673899173736572,139.5,-155.70001220703125,-26.100000381469727
256056,-0.36905422806739807,10.525522232055664,0.1250118762254715,1.1814099550247192,0.3125019967556,3.1402640342712402,132.3000030517578,-158.10000610351562,-26.100000381469727
256076,-0.9893285036087036,10.57397174835205,-0.48629024624824524,-0.2591480016708374,1.242385983467102,3.803377866744995,127.50000762939453,-167.70001220703125,-30.900001525878906
256096,-1.1053682565689087,9.813732147216797,-0.4486072361469269,-0.49542999267578125,1.4100699424743652,2.9649579524993896,120.30000305175781,-167.70001220703125,-28.500001907348633
256117,-1.511507272720337,9.69649600982666,-1.1520233154296875,-0.5640279650688171,1.3338500261306763,2.736297845840454,132.3000030517578,-165.3000030517578,-33.30000305175781
256137,-1.506722092628479,9.126465797424316,-1.311727523803711,-1.2118979692459106,0.4725639820098877,2.3018438816070557,110.70000457763672,-167.70001220703125,-35.10000228881836
256157,-1.0084691047668457,8.80586051940918,-1.436739444732666,-1.5091559886932373,-0.5182960033416748,2.431417942047119,120.30000305175781,-160.5,-27.30000114440918
256180,-0.24105161428451538,8.81782341003418,-0.7722025513648987,-1.9207439422607422,-0.967993974685669,2.8201398849487305,103.50000762939453,-170.10000610351562,-30.900001525878906
256200,0.250023752450943,8.902759552001953,-0.8164651393890381,-2.4009299278259277,-0.7698220014572144,2.995445966720581,115.50000762939453,-162.90000915527344,-30.900001525878906
256224,0.6585553884506226,9.47817325592041,-0.5329453945159912,-1.8445239067077637,-0.6554920077323914,3.3308138847351074,105.9000015258789,-170.10000610351562,-29.700000762939453
256245,0.811680018901825,10.34667682647705,-0.6896588206291199,-2.073184013366699,0.6402480006217957,3.49849796295166,105.9000015258789,-174.90000915527344,-35.70000076293945
256266,1.5587605237960815,12.149479866027832,-0.808689296245575,-2.4695279598236084,0.4878079891204834,3.3765459060668945,103.50000762939453,-170.10000610351562,-33.30000305175781
256286,-0.13159145414829254,8.88481616973877,-0.5281602144241333,-3.2698378562927246,1.3490939140319824,-1.189031958580017,103.50000762939453,-160.5,-35.70000076293945
256306,0.4013539254665375,9.40938663482666,-1.7549514770507812,0.23628199100494385,1.2804960012435913,1.3338500261306763,91.5,-170.10000610351562,-21.900001525878906
256326,0.4240833520889282,10.419052124023438,-1.633528470993042,0.5640279650688171,0.228659987449646,1.1814099550247192,113.10000610351562,-170.10000610351562,-33.30000305175781
256346,0.30325847864151,8.99307918548584,-1.734614610671997,0.6097599864006042,0.35061198472976685,0.36585599184036255,96.30000305175781,-182.10000610351562,-29.700000762939453
256366,0.7458842992782593,8.959583282470703,-1.9666941165924072,1.7911700010299683,0.030487999320030212,1.3109840154647827,98.70000457763672,-170.10000610351562,-27.900001525878906
256386,1.1053682565689087,9.270617485046387,-1.7579421997070312,1.371959924697876,0.3887220025062561,1.6311079263687134,89.10000610351562,-170.10000610351562,-29.700000762939453
256406,0.9319067597389221,9.096558570861816,-1.958320140838623,1.577754020690918,1.4862899780273438,1.524399995803833,93.9000015258789,-186.90000915527344,-29.700000762939453
256428,1.2728482484817505,9.216785430908203,-1.549788475036621,0.5868939757347107,1.4024479389190674,2.5762360095977783,91.5,-184.5,-29.100000381469727
256468,0.9988987445831299,9.250879287719727,-1.7519607543945312,0.22103799879550934,3.239349842071533,1.9054999351501465,93.9000015258789,-165.3000030517578,-30.900001525878906
256488,1.1562104225158691,9.306506156921387,-1.8446729183197021,0.06859800219535828,3.246971845626831,1.8216580152511597,91.5,-174.90000915527344,-33.30000305175781
256508,1.22798752784729,9.216785430908203,-1.5647419691085815,-0.28201398253440857,3.208861827850342,1.753059983253479,74.70000457763672,-182.10000610351562,-36.30000305175781
256528,1.3763269186019897,9.289758682250977,-1.3769251108169556,-0.3582339882850647,3.551851987838745,1.7378159761428833,86.70000457763672,-172.5,-24.900001525878906
256548,1.3410365581512451,9.295740127563477,-1.306942343711853,-0.18292799592018127,4.222588062286377,1.2881180047988892,67.5,-174.90000915527344,-33.30000305175781
256568,1.438533902168274,9.44647216796875,-1.3362513780593872,0.16768398880958557,4.78661584854126,1.021347999572754,72.30000305175781,-182.10000610351562,-30.900001525878906
256588,1.508516550064087,9.397424697875977,-1.0898164510726929,0.19817200303077698,5.243936061859131,0.8307979702949524,89.10000610351562,-167.70001220703125,-30.900001525878906
256608,1.2949795722961426,9.17252254486084,-1.2166228294372559,0.457319974899292,6.379613876342773,0.48018598556518555,65.10000610351562,-177.3000030517578,-27.900001525878906
256628,1.4050378799438477,9.138428688049316,-1.7417923212051392,1.2652519941329956,6.737847805023193,0.7012239694595337,79.5,-172.5,-22.5
256648,1.4642540216445923,8.88182544708252,-1.7633254528045654,1.6844619512557983,6.806446075439453,0.739333987236023,77.10000610351562,-170.10000610351562,-30.30000114440918
256668,1.6263507604599,8.926685333251953,-2.22987699508667,2.0579400062561035,6.897909641265869,1.5015339851379395,81.9000015258789,-174.90000915527344,-19.5
256688,1.934394359588623,9.377087593078613,-2.3740293979644775,1.5472660064697266,6.265284061431885,2.2103798389434814,69.9000015258789,-179.70001220703125,-23.700000762939453
256708,2.0372750759124756,9.565502166748047,-2.4302549362182617,1.1204339265823364,5.777475833892822,2.088428020477295,69.9000015258789,-162.90000915527344,-29.100000381469727
256728,2.092304229736328,9.536791801452637,-2.605510711669922,0.5564059615135193,5.152472019195557,1.5396440029144287,86.70000457763672,-172.5,-30.30000114440918
256748,2.4188902378082275,9.376489639282227,-2.3656554222106934,-0.1448179930448532,3.810999870300293,1.3033620119094849,77.10000610351562,-160.5,-24.30000114440918
256768,2.402740240097046,9.37469482421875,-2.0193307399749756,-0.6707359552383423,3.0716660022735596,1.3033620119094849,57.900001525878906,-184.5,-20.700000762939453
256788,2.3740293979644775,9.192859649658203,-1.9852365255355835,-1.1356779336929321,2.797273874282837,1.0823240280151367,62.70000076293945,-182.10000610351562,-24.900001525878906
256811,2.2855043411254883,9.124073028564453,-1.7663161754608154,-1.3109840154647827,1.981719970703125,0.7621999979019165,69.9000015258789,-179.70001220703125,-33.900001525878906
256831,2.3088319301605225,9.15756893157959,-1.3888880014419556,-1.524399995803833,1.3872039318084717,0.26677000522613525,60.30000305175781,-179.70001220703125,-20.100000381469727
256851,2.324981689453125,9.143811225891113,-1.3547937870025635,-1.5091559886932373,1.3186060190200806,0.038109999150037766,72.30000305175781,-184.5,-26.700000762939453
256894,2.2364566326141357,9.146203994750977,-0.91874760389328,-0.9908599853515625,1.4100699424743652,0.09908600151538849,65.10000610351562,-174.90000915527344,-27.900001525878906
256914,2.0606024265289307,9.15158748626709,-0.9552343487739563,-0.8231759667396545,1.8978779315948486,0.3201240003108978,62.70000076293945,-174.90000915527344,-27.30000114440918
256934,2.1748478412628174,9.288561820983887,-0.8326150178909302,-0.5487840175628662,2.3094658851623535,0.5335400104522705,50.70000076293945,-174.90000915527344,-27.900001525878906
256954,2.3297669887542725,9.46920108795166,-1.1633881330490112,-0.44969800114631653,3.163130044937134,0.3277460038661957,65.10000610351562,-177.3000030517578,-26.100000381469727
256974,2.336944580078125,9.31906795501709,-1.2836148738861084,-0.38109999895095825,3.658559799194336,-0.08384199440479279,55.500003814697266,-182.10000610351562,-24.30000114440918
256998,2.310626268386841,9.341796875,-1.4816001653671265,-0.16768398880958557,4.169233798980713,-0.8612859845161438,65.10000610351562,-177.3000030517578,-26.700000762939453
257060,1.9469553232192993,9.046314239501953,-1.5946491956710815,0.8765299916267395,2.797273874282837,-1.5853760242462158,57.900001525878906,-177.3000030517578,-24.900001525878906
257081,2.0079660415649414,9.259851455688477,-1.7106889486312866,0.8917739987373352,2.682943820953369,-1.5701320171356201,65.10000610351562,-174.90000915527344,-24.30000114440918
257101,2.0617988109588623,9.663000106811523,-1.742390513420105,0.5182960033416748,2.1189160346984863,-1.9131219387054443,60.30000305175781,-174.90000915527344,-17.700000762939453
257125,1.9541330337524414,9.288561820983887,-1.6867631673812866,-0.3125019967556,1.3948259353637695,-2.7667858600616455,65.10000610351562,-172.5,-26.100000381469727
257145,1.9840402603149414,9.444677352905273,-1.3751306533813477,-0.5564059615135193,1.1280559301376343,-2.134160041809082,65.10000610351562,-177.3000030517578,-24.900001525878906
257165,1.8889354467391968,9.41656494140625,-1.3960657119750977,-1.2728739976882935,1.5548880100250244,-1.935987949371338,79.5,-177.3000030517578,-29.100000381469727
257185,1.6891556978225708,9.426733016967773,-1.2979702949523926,-1.3872039318084717,1.5625100135803223,-1.6082419157028198,77.10000610351562,-177.3000030517578,-26.700000762939453
257209,1.5312459468841553,9.402807235717773,-1.1926970481872559,-1.6692179441452026,1.524399995803833,-1.3948259353637695,72.30000305175781,-160.5,-23.100000381469727
257229,1.5150961875915527,9.378881454467773,-1.0963960886001587,-1.6768399477005005,1.4558019638061523,-1.14329993724823,72.30000305175781,-174.90000915527344,-18.900001525878906
257249,1.85543954372406,9.769469261169434,-1.104171872138977,-1.8521459102630615,1.4024479389190674,-1.0975680351257324,72.30000305175781,-170.10000610351562,-24.900001525878906
257269,1.9876290559768677,9.513463973999023,-1.1538177728652954,-2.843005895614624,2.1036720275878906,-2.0198299884796143,79.5,-177.3000030517578,-24.30000114440918
257289,1.6921464204788208,8.887805938720703,-1.5958454608917236,-2.2561118602752686,2.385685920715332,-2.5686140060424805,81.9000015258789,-165.3000030517578,-25.500001907348633
257309,1.452889323234558,8.811244010925293,-1.0904146432876587,-1.371959924697876,1.5701320171356201,-1.8521459102630615,89.10000610351562,-177.3000030517578,-20.700000762939453
257329,1.3290736675262451,9.115100860595703,-1.0850313901901245,-0.9451279640197754,1.5472660064697266,-1.1814099550247192,84.30000305175781,-172.5,-19.5
257349,1.4134118556976318,9.244897842407227,-0.9809544682502747,-0.38109999895095825,0.7698220014572144,-1.0823240280151367,81.9000015258789,-174.90000915527344,-21.30000114440918
257369,1.6652300357818604,9.50808048248291,-0.8535500168800354,-0.17530599236488342,0.3125019967556,-1.2118979692459106,86.70000457763672,-186.90000915527344,-30.900001525878906
257414,1.6042194366455078,9.30112361907959,-0.9965062141418457,-0.4725639820098877,0.1295740008354187,-2.28659987449646,101.10000610351562,-177.3000030517578,-30.900001525878906
257477,1.8632153272628784,9.54217529296875,-1.0048801898956299,-0.8765299916267395,0.7012239694595337,-3.658559799194336,77.10000610351562,-172.5,-32.10000228881836
257497,1.4762169122695923,9.24310302734375,-0.9959080219268799,-0.8993960022926331,0.9298839569091797,-4.024415969848633,89.10000610351562,-167.70001220703125,-23.700000762939453
257517,1.1609954833984375,9.227551460266113,-0.8816627264022827,-0.49542999267578125,0.8993960022926331,-3.7881338596343994,110.70000457763672,-162.90000915527344,-27.900001525878906
257537,0.8104837536811829,9.279589653015137,-0.7925394177436829,-0.17530599236488342,0.7240899801254272,-3.2698378562927246,117.9000015258789,-158.10000610351562,-27.900001525878906
257557,0.5526841282844543,9.27121639251709,-0.6884625554084778,0.1295740008354187,0.4344539940357208,-2.682943820953369,101.10000610351562,-170.10000610351562,-31.500001907348633
257577,0.38460594415664673,9.308300971984863,-0.7823709845542908,0.2743920087814331,0.2439039945602417,-2.2561118602752686,113.10000610351562,-165.3000030517578,-27.900001525878906
257599,0.4767199456691742,9.540380477905273,-0.8792701959609985,0.8384199738502502,-0.16768398880958557,-2.2103798389434814,113.10000610351562,-174.90000915527344,-26.100000381469727
257619,0.26378104090690613,9.36273193359375,-0.8427834510803223,0.8231759667396545,-0.2896359860897064,-2.240867853164673,108.30000305175781,-167.70001220703125,-21.900001525878906
257643,-0.17166703939437866,9.302319526672363,-1.0204318761825562,0.9070180058479309,-0.228659987449646,-1.1737879514694214,115.50000762939453,-172.5,-24.900001525878906
257664,-0.2883049249649048,9.521240234375,-1.3745325803756714,0.8231759667396545,-0.08384199440479279,0.48018598556518555,122.70000457763672,-162.90000915527344,-26.100000381469727
257726,0.43604621291160583,9.750926971435547,-1.555769920349121,-0.19054999947547913,-0.9070180058479309,2.332331895828247,108.30000305175781,-167.70001220703125,-23.700000762939453
257746,0.8290261626243591,9.406994819641113,-1.3984582424163818,-0.17530599236488342,-1.242385983467102,2.126538038253784,115.50000762939453,-160.5,-22.5
257810,1.4301598072052002,9.48116397857666,-1.3870935440063477,0.030487999320030212,-1.5548880100250244,3.0335559844970703,96.30000305175781,-172.5,-26.100000381469727
257965,1.134079098701477,9.366918563842773,-0.9235327243804932,-0.6783579587936401,0.3048799932003021,-1.9664759635925293,91.5,-160.5,-26.700000762939453
257985,0.9988987445831299,9.388452529907227,-0.8744850158691406,-0.2972579896450043,-0.05335399881005287,-2.4009299278259277,98.70000457763672,-174.90000915527344,-27.900001525878906
258027,0.806296706199646,9.344189643859863,-0.9313086271286011,0.2439039945602417,-0.4420759975910187,-2.126538038253784,101.10000610351562,-170.10000610351562,-26.100000381469727
258047,0.8296242952346802,9.4315185546875,-1.2495206594467163,0.20579399168491364,-0.5411620140075684,-2.073184013366699,103.50000762939453,-177.3000030517578,-23.700000762939453
258067,0.6944440007209778,9.500903129577637,-1.119125485420227,0.4039659798145294,-0.7088459730148315,-2.042695999145508,103.50000762939453,-170.10000610351562,-30.900001525878906
258087,0.5658432245254517,9.52901554107666,-1.2866054773330688,0.060975998640060425,-0.46494197845458984,-1.8597679138183594,103.50000762939453,-165.3000030517578,-26.100000381469727
258107,0.5281602144241333,9.58882999420166,-1.318905234336853,-0.1295740008354187,-0.4878079891204834,-1.524399995803833,110.70000457763672,-160.5,-26.700000762939453
258127,0.2709587514400482,9.51406192779541,-1.1801360845565796,-0.36585599184036255,-0.3734779953956604,-1.4481799602508545,113.10000610351562,-160.5,-29.100000381469727
258147,-0.16149860620498657,9.55892276763916,-1.414608120918274,-0.5564059615135193,-0.17530599236488342,-1.067080020904541,122.70000457763672,-155.70001220703125,-17.700000762939453
258208,0.6160872578620911,9.768871307373047,-1.2806241512298584,-1.1814099550247192,-0.914639949798584,-0.44969800114631653,101.10000610351562,-165.3000030517578,-23.700000762939453
258263,0.6657330989837646,9.54995059967041,-1.0814424753189087,-1.3643379211425781,-1.3033620119094849,-0.8307979702949524,113.10000610351562,-182.10000610351562,-30.30000114440918
258284,0.5861800909042358,9.438695907592773,-0.912168025970459,-1.4405579566955566,-1.2576299905776978,-0.6250039935112,110.70000457763672,-172.5,-24.30000114440918
258324,0.4827013909816742,9.382471084594727,-0.8720924258232117,-0.7469559907913208,-1.4329359531402588,-0.25152599811553955,113.10000610351562,-165.3000030517578,-29.700000762939453
258364,0.33795076608657837,9.670177459716797,-0.8679054379463196,-0.07621999830007553,-1.8673899173736572,-0.228659987449646,117.9000015258789,-158.10000610351562,-27.900001525878906
258384,0.18781688809394836,9.61873722076416,-0.9899266362190247,-0.426831990480423,-1.8445239067077637,-0.09908600151538849,120.30000305175781,-174.90000915527344,-27.30000114440918
258404,0.12561002373695374,9.470995903015137,-1.0772554874420166,-0.36585599184036255,-2.027451992034912,0.36585599184036255,117.9000015258789,-167.70001220703125,-33.900001525878906
258445,0.29368820786476135,9.65043830871582,-0.9761693477630615,-0.28201398253440857,-2.0503180027008057,0.7317119836807251,103.50000762939453,-158.10000610351562,-25.500001907348633
258507,0.6310408115386963,9.238916397094727,-0.9911229014396667,-0.39634400606155396,-2.6219680309295654,-0.20579399168491364,110.70000457763672,-177.3000030517578,-36.30000305175781
258527,0.503636360168457,9.32086181640625,-1.1627899408340454,-0.26677000522613525,-2.5533699989318848,0.4725639820098877,103.50000762939453,-170.10000610351562,-26.100000381469727
258547,0.6136946678161621,9.4195556640625,-1.0545260906219482,-0.12195199728012085,-2.9344699382781982,0.7088459730148315,115.50000762939453,-172.5,-27.30000114440918
258567,0.6011337041854858,9.520641326904297,-1.0957978963851929,-0.2134159952402115,-2.9725799560546875,0.853663980960846,122.70000457763672,-158.10000610351562,-30.30000114440918
258587,0.6172835230827332,9.58583927154541,-1.1137422323226929,-0.22103799879550934,-3.2698378562927246,0.6097599864006042,110.70000457763672,-167.70001220703125,-34.5
258607,0.5879745483398438,9.445874214172363,-1.113144040107727,-0.09908600151538849,-3.4222779273986816,0.23628199100494385,115.50000762939453,-167.70001220703125,-30.900001525878906
258631,0.5825912356376648,9.514659881591797,-1.1394623517990112,0.09146399796009064,-3.5747179985046387,0.1600620001554489,98.70000457763672,-165.3000030517578,-34.5
258651,0.6346296668052673,9.57985782623291,-1.1520233154296875,0.17530599236488342,-3.6356940269470215,0.23628199100494385,120.30000305175781,-167.70001220703125,-28.500001907348633
258673,0.6394148468971252,9.59182071685791,-1.1645843982696533,0,-3.60520601272583,0.2439039945602417,105.9000015258789,-167.70001220703125,-30.30000114440918
258693,0.6800885796546936,9.63967227935791,-1.1609954833984375,-0.04573199898004532,-3.49849796295166,0.12195199728012085,108.30000305175781,-162.90000915527344,-30.30000114440918
258713,0.5837875604629517,9.563109397888184,-1.2842129468917847,-0.07621999830007553,-3.361301898956299,-0.04573199898004532,113.10000610351562,-160.5,-26.100000381469727
258736,0.6669294238090515,9.4674072265625,-1.2489224672317505,-0.09146399796009064,-3.292703866958618,-0.1448179930448532,108.30000305175781,-177.3000030517578,-32.70000076293945
258756,0.7566508650779724,9.484752655029297,-1.2513151168823242,-0.04573199898004532,-3.1707520484924316,-0.05335399881005287,113.10000610351562,-153.3000030517578,-32.70000076293945
258776,0.8409889936447144,9.561315536499023,-1.2315763235092163,-0.16768398880958557,-2.8811159133911133,0,113.10000610351562,-170.10000610351562,-35.10000228881836
258799,0.6753033995628357,9.3836669921875,-1.3470180034637451,-0.5487840175628662,-2.6067240238189697,-0.06859800219535828,115.50000762939453,-182.10000610351562,-32.10000228881836
258819,0.6806867122650146,9.345385551452637,-1.3254848718643188,-0.25152599811553955,-2.583858013153076,0.10670799762010574,101.10000610351562,-174.90000915527344,-26.100000381469727
258841,0.5676376819610596,9.47219181060791,-1.3565882444381714,-0.23628199100494385,-2.332331895828247,0.08384199440479279,101.10000610351562,-172.5,-30.30000114440918
258861,0.4354480803012848,9.4434814453125,-1.2943813800811768,-0.25152599811553955,-2.187514066696167,-0.038109999150037766,98.70000457763672,-179.70001220703125,-32.10000228881836
258922,0.6322371363639832,10.048802375793457,-1.0646945238113403,0.4725639820098877,-1.6082419157028198,-0.18292799592018127,113.10000610351562,-158.10000610351562,-34.5
258942,0.40255022048950195,9.47518253326416,-1.1412568092346191,-0.33536797761917114,-1.2576299905776978,-0.6250039935112,105.9000015258789,-162.90000915527344,-35.70000076293945
258964,0.4300647974014282,9.76229190826416,-1.4959555864334106,-0.33536797761917114,-1.013725996017456,-0.5182960033416748,108.30000305175781,-160.5,-30.900001525878906
258984,0.48210322856903076,9.618139266967773,-1.4331505298614502,-0.5868939757347107,-1.2118979692459106,-0.853663980960846,113.10000610351562,-170.10000610351562,-35.10000228881836
259004,0.3828114867210388,9.473986625671387,-1.5007407665252686,-0.6554920077323914,-1.1814099550247192,-0.8765299916267395,101.10000610351562,-170.10000610351562,-33.900001525878906
259025,0.5269639492034912,9.3956298828125,-1.3063442707061768,-0.7317119836807251,-1.3490939140319824,-0.571649968624115,96.30000305175781,-167.70001220703125,-33.900001525878906
259045,0.61249840259552,9.459630966186523,-1.1992766857147217,-0.8155539631843567,-1.0594580173492432,-0.2743920087814331,108.30000305175781,-167.70001220703125,-35.70000076293945
259066,0.5191881060600281,9.3477783203125,-1.1155366897583008,-0.9984819889068604,-0.8155539631843567,-0.02286599949002266,105.9000015258789,-170.10000610351562,-28.500001907348633
259086,0.42886850237846375,9.125268936157227,-0.9331030249595642,-0.8765299916267395,-0.6631140112876892,0.15243999660015106,103.50000762939453,-172.5,-28.500001907348633
259106,0.5048326849937439,8.83576774597168,-0.10527316480875015,-0.3125019967556,-0.8231759667396545,0.2591480016708374,98.70000457763672,-172.5,-25.500001907348633
259130,0.7410991191864014,10.645748138427734,-1.0569186210632324,1.0061039924621582,0.6097599864006042,0.49542999267578125,103.50000762939453,-162.90000915527344,-36.30000305175781
259151,0.09091772884130478,9.254467964172363,-1.2345670461654663,-0.8231759667396545,0.6250039935112,-1.1051899194717407,105.9000015258789,-179.70001220703125,-30.30000114440918
259171,-0.02751457691192627,9.73537540435791,-1.8763744831085205,0.038109999150037766,0.2972579896450043,-0.3125019967556,108.30000305175781,-165.3000030517578,-32.70000076293945
259191,0.2165277600288391,9.786815643310547,-1.9098705053329468,-0.2134159952402115,-0.08384199440479279,-0.44969800114631653,96.30000305175781,-158.10000610351562,-34.5
259211,0.2954826354980469,9.68752384185791,-1.5432088375091553,-0.38109999895095825,-0.6326259970664978,-0.5182960033416748,98.70000457763672,-162.90000915527344,-30.900001525878906
259231,0.48629024624824524,9.55892276763916,-1.5479940176010132,-0.8460419774055481,-0.5259180068969727,-0.2743920087814331,93.9000015258789,-170.10000610351562,-36.900001525878906
259253,0.6663312911987305,9.44228458404541,-1.3703455924987793,-0.853663980960846,-0.16768398880958557,0.15243999660015106,108.30000305175781,-165.3000030517578,-32.70000076293945
259273,0.4665515124797821,9.129456520080566,-1.1376678943634033,-1.0975680351257324,0.02286599949002266,0.13719600439071655,98.70000457763672,-165.3000030517578,-35.70000076293945
259293,0.2237054705619812,8.239418983459473,0.5778061151504517,-0.571649968624115,-1.2500079870224,0.02286599949002266,108.30000305175781,-170.10000610351562,-36.900001525878906
259313,0.5532822608947754,10.529708862304688,-0.6657330989837646,2.698187828063965,2.0503180027008057,0.8841519951820374,101.10000610351562,-174.90000915527344,-44.10000228881836
259333,0.3104361891746521,9.86158275604248,-1.9810495376586914,-0.25152599811553955,0.7850660085678101,-1.1051899194717407,110.70000457763672,-162.90000915527344,-34.5
259354,0.3223990499973297,8.935657501220703,-1.129892110824585,0.5259180068969727,0.05335399881005287,-0.457319974899292,113.10000610351562,-170.10000610351562,-35.10000228881836
259374,0.5227769613265991,9.899266242980957,-1.542610764503479,-0.1448179930448532,0.800309956073761,0.38109999895095825,96.30000305175781,-162.90000915527344,-30.900001525878906
259395,0.13039517402648926,9.201831817626953,-1.0963960886001587,-0.10670799762010574,0.6326259970664978,0.038109999150037766,115.50000762939453,-167.70001220703125,-33.30000305175781
259415,0.12620817124843597,9.31607723236084,-1.2901943922042847,0.6783579587936401,0.685979962348938,0.6250039935112,105.9000015258789,-160.5,-32.10000228881836
259435,0.2679680585861206,9.454846382141113,-1.0664888620376587,0.9222619533538818,0.6250039935112,0.5640279650688171,105.9000015258789,-162.90000915527344,-26.700000762939453
259455,0.3044547736644745,9.414172172546387,-1.223800539970398,1.14329993724823,0.7926880121231079,0.5868939757347107,113.10000610351562,-172.5,-39.900001525878906
259478,0.44681280851364136,9.46441650390625,-1.113144040107727,1.1814099550247192,0.800309956073761,0.9375059604644775,108.30000305175781,-174.90000915527344,-28.500001907348633
259498,0.2661736309528351,9.280786514282227,-1.137069821357727,1.021347999572754,1.0823240280151367,1.1585439443588257,98.70000457763672,-155.70001220703125,-35.70000076293945
259518,-0.0675901547074318,9.525426864624023,-1.4475059509277344,1.3262280225753784,1.2347639799118042,1.2347639799118042,96.30000305175781,-170.10000610351562,-32.10000228881836
259539,-0.28172534704208374,9.526622772216797,-1.83151376247406,1.4329359531402588,1.0289700031280518,1.1051899194717407,98.70000457763672,-170.10000610351562,-17.700000762939453
259559,0.025122005492448807,9.727599143981934,-1.8105788230895996,1.6844619512557983,0.17530599236488342,1.4329359531402588,98.70000457763672,-174.90000915527344,-30.30000114440918
259580,0.29787519574165344,9.65163516998291,-1.5946491956710815,1.14329993724823,0.28201398253440857,1.653973937034607,93.9000015258789,-160.5,-30.30000114440918
259600,0.250023752450943,9.58882999420166,-1.624556303024292,0.6707359552383423,0.6326259970664978,1.9588539600372314,89.10000610351562,-158.10000610351562,-26.100000381469727
259620,-0.06998272985219955,9.61873722076416,-1.8231397867202759,0.5335400104522705,1.1814099550247192,2.0960500240325928,89.10000610351562,-182.10000610351562,-29.100000381469727
259640,-0.15790975093841553,9.70247745513916,-2.0546212196350098,0.5259180068969727,1.371959924697876,2.2103798389434814,91.5,-165.3000030517578,-26.700000762939453
259663,0.16807816922664642,9.450060844421387,-1.6508746147155762,-0.030487999320030212,1.7225719690322876,3.056421995162964,91.5,-179.70001220703125,-38.10000228881836
259683,0.37443751096725464,9.122876167297363,-1.5880695581436157,-0.4192099869251251,2.1189160346984863,3.818621873855591,98.70000457763672,-172.5,-26.100000381469727
259705,0.7817728519439697,9.142017364501953,-1.4750205278396606,-0.4192099869251251,2.3628199100494385,4.67990779876709,84.30000305175781,-177.3000030517578,-34.5
259725,1.3272792100906372,9.158764839172363,-1.4463096857070923,-0.6631140112876892,2.637212038040161,5.068629741668701,67.5,-170.10000610351562,-29.100000381469727
259745,1.7860549688339233,8.947022438049316,-1.452889323234558,-0.571649968624115,2.9268479347229004,4.984787940979004,79.5,-184.5,-28.500001907348633
259767,2.1240057945251465,9.005640983581543,-1.696333408355713,-0.23628199100494385,3.147886037826538,4.527467727661133,50.70000076293945,-170.10000610351562,-30.30000114440918
259829,3.5876615047454834,8.61266040802002,-2.527153968811035,1.981719970703125,0.800309956073761,5.259180068969727,48.30000305175781,-174.90000915527344,-22.5
259849,4.005165100097656,9.183887481689453,-2.0791449546813965,1.417691946029663,1.3109840154647827,5.495461940765381,50.70000076293945,-162.90000915527344,-24.900001525878906
259890,3.577493190765381,8.611464500427246,-2.4452085494995117,0.4039659798145294,1.9664759635925293,4.626554012298584,33.900001525878906,-177.3000030517578,-32.70000076293945
259910,3.573904275894165,8.547463417053223,-2.682671308517456,0.3277460038661957,1.9131219387054443,4.481735706329346,21.900001525878906,-172.5,-30.900001525878906
259930,3.70788836479187,8.60488510131836,-2.697624683380127,0.3277460038661957,1.5472660064697266,4.817103862762451,29.100000381469727,-179.70001220703125,-30.30000114440918
259990,3.630727767944336,8.83995532989502,-2.5145931243896484,-1.3109840154647827,1.0365920066833496,4.481735706329346,14.700000762939453,-179.70001220703125,-27.30000114440918
260010,3.6803736686706543,8.942237854003906,-2.3034486770629883,-1.4634239673614502,0.5182960033416748,3.9863059520721436,9.90000057220459,-174.90000915527344,-27.30000114440918
260031,3.789235830307007,9.110913276672363,-1.9236278533935547,-1.5929979085922241,0.15243999660015106,3.513741970062256,12.300000190734863,-184.5,-29.700000762939453
260052,3.7300195693969727,9.080408096313477,-1.5779011249542236,-1.7225719690322876,0.3201240003108978,2.850627899169922,5.100000381469727,-177.3000030517578,-29.100000381469727
260072,3.6085965633392334,8.763392448425293,-1.402645230293274,-1.478667974472046,0.49542999267578125,2.2637338638305664,-4.5,-179.70001220703125,-28.500001907348633
260092,3.69891619682312,8.977527618408203,-1.1729583740234375,-1.0594580173492432,0.5411620140075684,2.1189160346984863,5.100000381469727,-182.10000610351562,-36.900001525878906
260112,3.70489764213562,9.252673149108887,-1.2973721027374268,-0.7469559907913208,0.8841519951820374,2.0045859813690186,-2.1000001430511475,-170.10000610351562,-29.100000381469727
260132,3.6797754764556885,8.707765579223633,-0.8379983305931091,-0.9222619533538818,0.8765299916267395,1.6387299299240112,-14.100000381469727,-179.70001220703125,-27.900001525878906
260176,3.472219944000244,8.709559440612793,-1.1753509044647217,-0.18292799592018127,1.7606819868087769,1.478667974472046,-11.700000762939453,-186.90000915527344,-29.700000762939453
260196,3.42496657371521,8.770570755004883,-1.3541957139968872,0.09146399796009064,1.5625100135803223,0.7240899801254272,-21.30000114440918,-177.3000030517578,-21.30000114440918
260236,3.389078140258789,8.261550903320312,-1.6795854568481445,0.49542999267578125,1.0061039924621582,-0.18292799592018127,-18.900001525878906,-167.70001220703125,-28.500001907348633
260258,3.577493190765381,8.85670280456543,-1.931403636932373,0.8079319596290588,0.8079319596290588,-0.41158798336982727,-16.5,-179.70001220703125,-30.900001525878906
260278,3.47879958152771,8.77415943145752,-2.1509220600128174,0.426831990480423,0.5030519962310791,-0.8155539631843567,-2.1000001430511475,-177.3000030517578,-35.10000228881836
260298,3.577493190765381,8.785524368286133,-2.199371814727783,0.6783579587936401,0.09146399796009064,-1.0518360137939453,-23.700000762939453,-186.90000915527344,-29.100000381469727
260318,3.589456081390381,9.05588436126709,-2.1563053131103516,0.6631140112876892,-0.20579399168491364,-1.2728739976882935,-18.900001525878906,-174.90000915527344,-24.30000114440918
260338,3.6893458366394043,9.14261531829834,-1.9589182138442993,0.3734779953956604,-0.342989981174469,-1.6844619512557983,-14.100000381469727,-172.5,-26.700000762939453
260361,3.7342066764831543,9.05409049987793,-1.7716994285583496,-0.07621999830007553,-0.1600620001554489,-2.088428020477295,-6.900000095367432,-179.70001220703125,-34.5
260381,3.589456081390381,8.72929859161377,-1.7310258150100708,-0.6554920077323914,0.19817200303077698,-2.3094658851623535,-9.300000190734863,-167.70001220703125,-26.100000381469727
260401,3.440518379211426,8.548659324645996,-1.6640337705612183,-0.7774440050125122,0.2896359860897064,-2.1646480560302734,2.700000047683716,-182.10000610351562,-25.500001907348633
260423,3.47879958152771,8.60488510131836,-1.520479440689087,-0.8460419774055481,0.44969800114631653,-1.9131219387054443,7.500000476837158,-179.70001220703125,-23.700000762939453
260444,3.4650421142578125,8.677858352661133,-1.5300496816635132,-1.0442140102386475,0.6402480006217957,-1.699705958366394,5.100000381469727,-186.90000915527344,-24.900001525878906
260464,3.5033233165740967,8.72929859161377,-1.5013388395309448,-1.1051899194717407,0.7088459730148315,-1.5472660064697266,-9.300000190734863,-177.3000030517578,-29.700000762939453
260525,3.4022371768951416,8.673670768737793,-1.5360311269760132,-0.5792719721794128,0.571649968624115,-1.295740008354187,2.700000047683716,-182.10000610351562,-23.700000762939453
260545,3.469229221343994,8.737672805786133,-1.5563679933547974,-0.3048799932003021,0.5182960033416748,-1.3033620119094849,19.5,-186.90000915527344,-28.500001907348633
260565,3.377115249633789,8.74305534362793,-1.5970417261123657,-0.1600620001554489,0.5868939757347107,-1.3262280225753784,-16.5,-172.5,-23.100000381469727
260605,3.2646644115448,8.650343894958496,-1.743586778640747,-0.114329993724823,0.6326259970664978,-1.0594580173492432,19.5,-172.5,-32.70000076293945
260625,3.2532997131347656,8.641969680786133,-1.748371958732605,-0.04573199898004532,0.5945159792900085,-0.4344539940357208,19.5,-184.5,-23.700000762939453
260645,3.296365976333618,8.671278953552246,-1.7884474992752075,-0.10670799762010574,0.6326259970664978,0.060975998640060425,7.500000476837158,-184.5,-27.30000114440918
260667,3.2742345333099365,8.581557273864746,-1.7974196672439575,-0.3277460038661957,0.6326259970664978,0.39634400606155396,17.100000381469727,-177.3000030517578,-27.30000114440918
260688,3.3962557315826416,8.785524368286133,-1.8261305093765259,-0.2743920087814331,0.571649968624115,0.7545779943466187,5.100000381469727,-184.5,-28.500001907348633
260708,3.4064242839813232,8.775355339050293,-1.8632153272628784,-0.571649968624115,0.5487840175628662,0.7926880121231079,5.100000381469727,-177.3000030517578,-20.700000762939453
260728,3.47879958152771,8.753822326660156,-1.82254159450531,-0.5640279650688171,0.38109999895095825,0.800309956073761,9.90000057220459,-177.3000030517578,-31.500001907348633
260748,3.6145780086517334,8.781336784362793,-1.818354606628418,-0.5792719721794128,0.33536797761917114,0.800309956073761,7.500000476837158,-191.70001220703125,-28.500001907348633
260771,3.6026151180267334,8.609071731567383,-1.7782790660858154,-0.739333987236023,0.2591480016708374,0.7469559907913208,-9.300000190734863,-179.70001220703125,-22.5
260791,3.6133816242218018,8.679054260253906,-1.720259189605713,-0.457319974899292,0.228659987449646,0.7850660085678101,0.30000001192092896,-182.10000610351562,-24.900001525878906
260811,3.714467763900757,8.782533645629883,-1.6640337705612183,-0.4344539940357208,0.3201240003108978,0.6326259970664978,-14.100000381469727,-172.5,-26.100000381469727
260831,3.741384267807007,8.785524368286133,-1.5635457038879395,-0.5411620140075684,0.4725639820098877,0.5259180068969727,2.700000047683716,-186.90000915527344,-34.5
260851,3.672597885131836,8.679054260253906,-1.5599569082260132,-0.6097599864006042,0.7164679765701294,0.2896359860897064,7.500000476837158,-184.5,-19.5
260871,3.699514389038086,8.725709915161133,-1.530647873878479,-0.5640279650688171,0.8460419774055481,0.09146399796009064,2.700000047683716,-179.70001220703125,-23.100000381469727
260894,3.6833643913269043,8.607276916503906,-1.4594688415527344,-0.571649968624115,1.013725996017456,-0.15243999660015106,-9.300000190734863,-184.5,-25.500001907348633
260914,3.743776798248291,8.694605827331543,-1.437935709953308,-0.35061198472976685,1.1280559301376343,-0.20579399168491364,-2.1000001430511475,-177.3000030517578,-26.700000762939453
260934,3.681570053100586,8.719130516052246,-1.4552818536758423,-0.33536797761917114,1.2042759656906128,-0.25152599811553955,-2.1000001430511475,-172.5,-17.100000381469727
260954,3.597231864929199,8.688026428222656,-1.4684410095214844,-0.2743920087814331,1.1661659479141235,-0.2743920087814331,0.30000001192092896,-174.90000915527344,-25.500001907348633
260974,3.5577542781829834,8.700587272644043,-1.4947593212127686,-0.13719600439071655,1.0747020244598389,-0.3277460038661957,-21.30000114440918,-177.3000030517578,-29.700000762939453
261016,3.600820779800415,8.754420280456543,-1.515694260597229,-0.06859800219535828,0.8155539631843567,-0.426831990480423,5.100000381469727,-182.10000610351562,-24.30000114440918
261036,3.570913553237915,8.708961486816406,-1.5521810054779053,-0.05335399881005287,0.685979962348938,-0.4344539940357208,0.30000001192092896,-165.3000030517578,-21.900001525878906
261056,3.570913553237915,8.682642936706543,-1.5922565460205078,-0.06859800219535828,0.5259180068969727,-0.4878079891204834,0.30000001192092896,-165.3000030517578,-27.900001525878906
261076,3.624746322631836,8.804664611816406,-1.5982379913330078,0.015243999660015106,0.41158798336982727,-0.510673999786377,-6.900000095367432,-179.70001220703125,-28.500001907348633
261100,3.6648221015930176,8.723915100097656,-1.5988361835479736,-0.19054999947547913,0.342989981174469,-0.6097599864006042,-2.1000001430511475,-179.70001220703125,-22.5
261120,3.8197410106658936,8.85969352722168,-1.609602689743042,-0.28201398253440857,0.38109999895095825,-0.6478700041770935,-2.1000001430511475,-179.70001220703125,-21.900001525878906
261140,3.9393696784973145,8.81602954864502,-1.5599569082260132,-0.5411620140075684,0.49542999267578125,-0.8079319596290588,-2.1000001430511475,-177.3000030517578,-25.500001907348633
261160,4.057203769683838,8.766383171081543,-1.4947593212127686,-0.6478700041770935,0.739333987236023,-1.067080020904541,17.100000381469727,-182.10000610351562,-20.100000381469727
261181,4.169056415557861,8.819618225097656,-1.4702354669570923,-0.6707359552383423,1.0899460315704346,-1.4100699424743652,12.300000190734863,-184.5,-26.700000762939453
261201,4.148121356964111,8.711952209472656,-1.425972819328308,-0.6478700041770935,1.4558019638061523,-2.1570260524749756,9.90000057220459,-172.5,-21.30000114440918
261223,4.178627014160156,8.779542922973633,-1.3601771593093872,-0.25152599811553955,2.0045859813690186,-3.4298999309539795,12.300000190734863,-177.3000030517578,-27.30000114440918
261243,4.029090881347656,8.60488510131836,-1.3709436655044556,-0.04573199898004532,2.3475759029388428,-4.397893905639648,19.5,-191.70001220703125,-26.100000381469727
261263,3.9034810066223145,8.650343894958496,-1.3799158334732056,0.6097599864006042,2.5686140060424805,-5.152472019195557,24.30000114440918,-172.5,-23.100000381469727
261283,3.6827661991119385,8.81004810333252,-1.4696372747421265,1.1051899194717407,2.8125178813934326,-6.211929798126221,29.100000381469727,-177.3000030517578,-23.100000381469727
261323,3.159989356994629,8.834571838378906,-1.532442331314087,1.9512319564819336,2.888737916946411,-8.887251853942871,36.30000305175781,-191.70001220703125,-31.500001907348633
261343,2.8866379261016846,8.869263648986816,-1.5683308839797974,2.431417942047119,2.6143460273742676,-10.304944038391113,38.70000076293945,-174.90000915527344,-26.700000762939453
261383,2.25081205368042,8.871058464050293,-1.6759966611862183,3.300325870513916,1.875011920928955,-13.10983943939209,65.10000610351562,-182.10000610351562,-17.700000762939453
261403,1.6987260580062866,8.798683166503906,-1.82553231716156,3.7424018383026123,1.4481799602508545,-14.329360008239746,81.9000015258789,-174.90000915527344,-24.900001525878906
261423,1.1496307849884033,8.82201099395752,-1.9834420680999756,4.222588062286377,0.8612859845161438,-15.129669189453125,101.10000610351562,-158.10000610351562,-26.700000762939453
261445,0.6256575584411621,8.944629669189453,-2.118622303009033,4.268320083618164,0.28201398253440857,-14.977230072021484,115.50000762939453,-165.3000030517578,-18.900001525878906
261508,-1.1227144002914429,9.062463760375977,-2.786748170852661,3.3917899131774902,-0.22103799879550934,-10.129637718200684,134.70001220703125,-158.10000610351562,-20.100000381469727
261528,-1.6508746147155762,9.276598930358887,-3.0929973125457764,2.4619059562683105,-0.16768398880958557,-7.614377975463867,144.3000030517578,-150.90000915527344,-15.300000190734863
261549,-1.7938307523727417,9.194055557250977,-3.0571086406707764,1.577754020690918,-0.6402480006217957,-5.388753890991211,149.10000610351562,-153.3000030517578,-15.300000190734863
261569,-1.7543532848358154,9.28617000579834,-2.930302381515503,0.8231759667396545,-0.853663980960846,-3.5899620056152344,161.10000610351562,-153.3000030517578,-18.900001525878906
261611,-1.4014489650726318,9.062463760375977,-2.7000174522399902,-0.23628199100494385,-0.7774440050125122,-1.6768399477005005,158.70001220703125,-143.70001220703125,-12.90000057220459
261633,-1.3171107769012451,9.02597713470459,-2.623455047607422,-0.18292799592018127,-0.6707359552383423,-1.196653962135315,165.90000915527344,-136.5,-13.500000953674316
261653,-1.2112395763397217,9.087586402893066,-2.6569511890411377,-0.04573199898004532,-0.5487840175628662,-0.9603719711303711,163.5,-146.10000610351562,-20.100000381469727
261673,-1.22798752784729,9.05588436126709,-2.6719045639038086,0.038109999150037766,-0.4039659798145294,-0.9298839569091797,165.90000915527344,-134.10000610351562,-18.900001525878906
261758,-0.9773656129837036,9.194055557250977,-2.717961549758911,0.08384199440479279,0.09908600151538849,-0.15243999660015106,170.70001220703125,-146.10000610351562,-17.100000381469727
261807,-1.0760592222213745,9.079212188720703,-2.778374195098877,0.114329993724823,0.1295740008354187,-0.20579399168491364,170.70001220703125,-143.70001220703125,-17.100000381469727
261827,-1.1227144002914429,9.110315322875977,-2.789738893508911,0.13719600439071655,0.1600620001554489,-0.3125019967556,175.5,-148.5,-17.700000762939453
261867,-1.1215180158615112,9.03913688659668,-2.7999072074890137,0.16768398880958557,0.114329993724823,-0.38109999895095825,173.10000610351562,-146.10000610351562,-20.700000762939453
261889,-1.135873556137085,9.10194206237793,-2.8274219036102295,0.038109999150037766,0.13719600439071655,-0.1448179930448532,180.3000030517578,-138.90000915527344,-14.700000762939453
261909,-1.1442475318908691,9.06306266784668,-2.8633103370666504,-0.13719600439071655,0.1295740008354187,-0.015243999660015106,170.70001220703125,-141.3000030517578,-20.100000381469727
261931,-1.1478363275527954,9.00504207611084,-2.876469612121582,-0.16768398880958557,0.04573199898004532,0.060975998640060425,163.5,-143.70001220703125,-9.300000190734863
261952,-1.1490325927734375,9.07203483581543,-2.9135544300079346,-0.1448179930448532,-0.08384199440479279,0.17530599236488342,153.90000915527344,-146.10000610351562,-20.100000381469727
261993,-1.1376678943634033,9.095361709594727,-2.9249191284179688,-0.2591480016708374,-0.23628199100494385,0.5030519962310791,168.3000030517578,-148.5,-14.100000381469727
262013,-1.114938497543335,9.106128692626953,-2.920732021331787,-0.3582339882850647,-0.3277460038661957,0.7621999979019165,168.3000030517578,-143.70001220703125,-14.700000762939453
262033,-1.1711639165878296,9.011622428894043,-2.9877240657806396,-0.49542999267578125,-0.3048799932003021,1.2042759656906128,161.10000610351562,-146.10000610351562,-12.300000190734863
262056,-1.3362513780593872,9.110913276672363,-3.0355756282806396,-0.6478700041770935,-0.426831990480423,1.981719970703125,168.3000030517578,-150.90000915527344,-17.100000381469727
262096,-1.2094451189041138,9.136035919189453,-2.998490810394287,-1.2500079870224,-1.1661659479141235,3.871975898742676,144.3000030517578,-148.5,-20.700000762939453
262116,-1.1891082525253296,9.15158748626709,-2.9584150314331055,-1.3186060190200806,-1.3643379211425781,4.184477806091309,156.3000030517578,-143.70001220703125,-20.100000381469727
262136,-0.9480566382408142,9.24609375,-2.894413948059082,-1.4405579566955566,-1.7454379796981812,4.657042026519775,151.5,-134.10000610351562,-15.300000190734863
262199,-0.14594689011573792,9.194653511047363,-2.492461681365967,-1.8216580152511597,-2.339953899383545,4.878079891204834,132.3000030517578,-153.3000030517578,-21.900001525878906
262225,-0.025720147415995598,8.97035026550293,-2.530144691467285,-1.8140360116958618,-2.1570260524749756,4.832347869873047,137.10000610351562,-160.5,-20.100000381469727
262245,-0.011962858960032463,9.143213272094727,-2.518779993057251,-1.4405579566955566,-2.1722700595855713,4.740883827209473,125.10000610351562,-162.90000915527344,-20.100000381469727
262288,0.2338739037513733,9.20542049407959,-2.3985533714294434,-1.3338500261306763,-2.0045859813690186,4.527467727661133,115.50000762939453,-170.10000610351562,-18.30000114440918
262309,0.4474109411239624,9.114502906799316,-2.2795228958129883,-1.371959924697876,-1.7835479974746704,4.687530040740967,110.70000457763672,-170.10000610351562,-21.30000114440918
262329,0.5024400949478149,9.161157608032227,-2.3082337379455566,-1.3643379211425781,-1.4634239673614502,4.939055919647217,113.10000610351562,-165.3000030517578,-19.5
262351,0.5760116577148438,9.077417373657227,-2.286700487136841,-1.3795819282531738,-1.2576299905776978,5.25155782699585,101.10000610351562,-170.10000610351562,-29.700000762939453
262371,0.8110818862915039,9.140820503234863,-2.2334659099578857,-1.3948259353637695,-0.9908599853515625,5.952781677246094,103.50000762939453,-174.90000915527344,-24.30000114440918
262412,0.9588232040405273,9.222766876220703,-2.20296049118042,-2.042695999145508,-0.04573199898004532,7.057971954345703,81.9000015258789,-172.5,-15.90000057220459
262432,1.0718722343444824,9.174317359924316,-2.205353021621704,-1.9207439422607422,0.060975998640060425,7.149435997009277,67.5,-179.70001220703125,-24.900001525878906
262455,1.516890525817871,9.19644832611084,-2.1359684467315674,-1.9131219387054443,0.19817200303077698,6.99699592590332,67.5,-172.5,-23.100000381469727
262475,1.722651720046997,9.03494930267334,-2.1180243492126465,-1.806414008140564,0.35061198472976685,6.570163726806641,53.10000228881836,-167.70001220703125,-20.700000762939453
262495,2.003180742263794,8.989490509033203,-2.0552191734313965,-1.4481799602508545,0.36585599184036255,6.067111968994141,50.70000076293945,-184.5,-24.900001525878906
262515,2.2992615699768066,8.958985328674316,-2.074359893798828,-1.1814099550247192,0.44969800114631653,5.403997898101807,55.500003814697266,-179.70001220703125,-27.30000114440918
262535,2.551079750061035,9.00803279876709,-2.1299872398376465,-0.9451279640197754,0.5259180068969727,4.7027740478515625,38.70000076293945,-177.3000030517578,-21.30000114440918
262555,2.8118700981140137,8.99606990814209,-2.1622867584228516,-0.7469559907913208,0.5259180068969727,4.054903984069824,57.900001525878906,-179.70001220703125,-21.30000114440918
262575,3.0272016525268555,8.94044303894043,-2.1054632663726807,-0.7621999979019165,0.571649968624115,3.559473991394043,36.30000305175781,-177.3000030517578,-27.30000114440918
262597,3.115128517150879,8.88361930847168,-2.1234076023101807,-0.914639949798584,0.7317119836807251,3.1402640342712402,38.70000076293945,-182.10000610351562,-26.100000381469727
262618,3.272440195083618,8.923096656799316,-2.1479313373565674,-0.9527499675750732,0.8079319596290588,2.8658719062805176,26.700000762939453,-174.90000915527344,-25.500001907348633
262638,3.311319589614868,8.827393531799316,-2.0546212196350098,-1.1661659479141235,0.7774440050125122,2.545747995376587,43.5,-177.3000030517578,-29.100000381469727
262658,3.3908724784851074,8.878235816955566,-1.9349925518035889,-1.2271419763565063,0.7317119836807251,2.324709892272949,29.100000381469727,-184.5,-29.700000762939453
262680,3.42496657371521,8.964966773986816,-1.8117750883102417,-1.3795819282531738,0.800309956073761,2.03507399559021,24.30000114440918,-179.70001220703125,-24.900001525878906
262700,3.3131139278411865,8.811244010925293,-1.7417923212051392,-1.6692179441452026,0.8841519951820374,1.753059983253479,21.900001525878906,-177.3000030517578,-29.100000381469727
262720,3.275430917739868,8.739466667175293,-1.699324131011963,-1.5015339851379395,0.8765299916267395,1.6615959405899048,29.100000381469727,-177.3000030517578,-18.900001525878906
262740,3.204252004623413,8.679652214050293,-1.6107990741729736,-1.4634239673614502,0.8841519951820374,1.5320219993591309,24.30000114440918,-170.10000610351562,-24.30000114440918
262763,3.1641762256622314,8.839356422424316,-1.6867631673812866,-1.021347999572754,0.8612859845161438,1.2271419763565063,19.5,-184.5,-28.500001907348633
262784,3.1019694805145264,8.79509449005127,-1.7136796712875366,-0.853663980960846,0.7164679765701294,0.8917739987373352,21.900001525878906,-182.10000610351562,-27.30000114440918
262804,3.033781051635742,8.83397388458252,-1.743586778640747,-0.5640279650688171,0.5411620140075684,0.6173819899559021,7.500000476837158,-174.90000915527344,-26.700000762939453
262824,3.0152387619018555,8.81004810333252,-1.7974196672439575,-0.3734779953956604,0.3887220025062561,0.33536797761917114,12.300000190734863,-184.5,-24.900001525878906
262887,3.0385663509368896,8.839356422424316,-1.82254159450531,-0.09908600151538849,-0.007621999830007553,0.2439039945602417,9.90000057220459,-182.10000610351562,-20.100000381469727
262907,3.0923991203308105,8.890198707580566,-1.912263035774231,-0.09908600151538849,-0.038109999150037766,0.20579399168491364,24.30000114440918,-179.70001220703125,-30.30000114440918
262927,3.1498208045959473,8.967957496643066,-1.8674023151397705,-0.228659987449646,0,0.06859800219535828,14.700000762939453,-194.10000610351562,-24.30000114440918
262947,3.171354055404663,9.033753395080566,-1.9074779748916626,-0.3125019967556,0.10670799762010574,-0.18292799592018127,14.700000762939453,-177.3000030517578,-28.500001907348633
262969,3.1887001991271973,8.95240592956543,-1.8560376167297363,-0.457319974899292,0.2439039945602417,-0.457319974899292,21.900001525878906,-179.70001220703125,-21.30000114440918
262990,3.1791298389434814,8.93745231628418,-1.83151376247406,-0.5487840175628662,0.426831990480423,-0.6631140112876892,19.5,-172.5,-26.700000762939453
263010,3.153409719467163,8.955994606018066,-1.82553231716156,-0.6173819899559021,0.6478700041770935,-0.8307979702949524,14.700000762939453,-177.3000030517578,-27.30000114440918
263031,3.057706832885742,8.880030632019043,-1.84646737575531,-0.7164679765701294,0.7621999979019165,-0.9603719711303711,19.5,-174.90000915527344,-26.700000762939453
263051,3.064286470413208,8.838160514831543,-1.8004103899002075,-0.6326259970664978,0.8231759667396545,-0.8993960022926331,7.500000476837158,-167.70001220703125,-30.900001525878906
263071,3.0331830978393555,8.861488342285156,-1.7800735235214233,-0.6402480006217957,0.8917739987373352,-0.7545779943466187,17.100000381469727,-182.10000610351562,-24.30000114440918
263091,3.005070209503174,8.877039909362793,-1.7579421997070312,-0.5792719721794128,0.853663980960846,-0.6783579587936401,14.700000762939453,-170.10000610351562,-32.70000076293945
263132,2.9679853916168213,8.899768829345703,-1.7388015985488892,-0.3582339882850647,0.46494197845458984,-0.5868939757347107,9.90000057220459,-177.3000030517578,-30.30000114440918
263152,2.9877240657806396,8.88361930847168,-1.7059037685394287,-0.4344539940357208,0.3201240003108978,-0.6250039935112,29.100000381469727,-179.70001220703125,-20.100000381469727
263174,3.0272016525268555,8.908143043518066,-1.706501841545105,-0.510673999786377,0.10670799762010574,-0.6631140112876892,14.700000762939453,-182.10000610351562,-24.900001525878906
263194,2.969181776046753,8.745448112487793,-1.6861650943756104,-0.571649968624115,0,-0.5868939757347107,19.5,-170.10000610351562,-21.900001525878906
263214,2.966191053390503,8.94343376159668,-1.720259189605713,-0.3277460038661957,-0.007621999830007553,-0.5182960033416748,7.500000476837158,-177.3000030517578,-25.500001907348633
263234,2.9548263549804688,8.914722442626953,-1.6873613595962524,-0.41158798336982727,-0.030487999320030212,-0.5259180068969727,17.100000381469727,-177.3000030517578,-30.900001525878906
263258,2.9530317783355713,8.96317195892334,-1.7005205154418945,-0.3277460038661957,0.06859800219535828,-0.571649968624115,21.900001525878906,-182.10000610351562,-29.100000381469727
263278,2.9159469604492188,8.932666778564453,-1.7088944911956787,-0.39634400606155396,0.12195199728012085,-0.6021379828453064,5.100000381469727,-167.70001220703125,-27.900001525878906
263300,2.950639247894287,8.899768829345703,-1.7005205154418945,-0.39634400606155396,0.18292799592018127,-0.5640279650688171,19.5,-182.10000610351562,-21.900001525878906
263320,2.966191053390503,8.90156364440918,-1.6676225662231445,-0.41158798336982727,0.2972579896450043,-0.4192099869251251,24.30000114440918,-174.90000915527344,-29.700000762939453
263341,2.9697799682617188,8.950611114501953,-1.6825761795043945,-0.38109999895095825,0.3734779953956604,-0.33536797761917114,26.700000762939453,-177.3000030517578,-27.900001525878906
263361,2.9548263549804688,8.97513484954834,-1.7160722017288208,-0.4420759975910187,0.4344539940357208,-0.3201240003108978,24.30000114440918,-174.90000915527344,-24.900001525878906
263423,2.9649946689605713,8.944629669189453,-1.711287021636963,-0.2743920087814331,0.26677000522613525,-0.25152599811553955,21.900001525878906,-189.3000030517578,-26.100000381469727
263445,2.960209608078003,8.921900749206543,-1.6981278657913208,-0.342989981174469,0.26677000522613525,-0.2896359860897064,21.900001525878906,-184.5,-31.500001907348633
263465,2.9440596103668213,8.894386291503906,-1.7298294305801392,-0.38109999895095825,0.2591480016708374,-0.3201240003108978,19.5,-182.10000610351562,-23.700000762939453
263485,2.9530317783355713,8.879432678222656,-1.7005205154418945,-0.38109999895095825,0.2439039945602417,-0.2972579896450043,21.900001525878906,-179.70001220703125,-27.900001525878906
263508,2.9709761142730713,8.905750274658203,-1.7501662969589233,-0.38109999895095825,0.25152599811553955,-0.20579399168491364,19.5,-179.70001220703125,-29.700000762939453
263528,2.9470503330230713,8.899170875549316,-1.741194248199463,-0.39634400606155396,0.26677000522613525,-0.19054999947547913,24.30000114440918,-177.3000030517578,-24.900001525878906
263548,2.9739668369293213,9.035547256469727,-1.7178666591644287,-0.4039659798145294,0.2896359860897064,-0.19817200303077698,5.100000381469727,-179.70001220703125,-27.30000114440918
263569,2.9398727416992188,8.853114128112793,-1.7740920782089233,-0.6478700041770935,0.28201398253440857,-0.3125019967556,14.700000762939453,-182.10000610351562,-27.30000114440918
263589,2.923722743988037,8.843544006347656,-1.8458691835403442,-0.5335400104522705,0.2439039945602417,-0.1448179930448532,26.700000762939453,-177.3000030517578,-24.900001525878906
263609,2.9279098510742188,8.947620391845703,-1.716670274734497,-0.4725639820098877,0.228659987449646,-0.10670799762010574,24.30000114440918,-177.3000030517578,-24.30000114440918
263630,3.0295941829681396,9.02717399597168,-1.726240634918213,-0.6402480006217957,0.2591480016708374,-0.1295740008354187,24.30000114440918,-174.90000915527344,-27.900001525878906
263650,3.0445477962493896,8.975733757019043,-1.716670274734497,-0.7088459730148315,0.342989981174469,-0.12195199728012085,12.300000190734863,-174.90000915527344,-27.30000114440918
263670,2.920732021331787,8.812440872192383,-1.715474009513855,-0.8231759667396545,0.3277460038661957,-0.06859800219535828,5.100000381469727,-177.3000030517578,-27.30000114440918
263693,2.9500410556793213,9.015809059143066,-1.6867631673812866,-0.36585599184036255,0.3125019967556,0.02286599949002266,21.900001525878906,-186.90000915527344,-20.700000762939453
263733,2.841179132461548,9.094165802001953,-1.633528470993042,-0.3048799932003021,0.4725639820098877,-0.5945159792900085,21.900001525878906,-182.10000610351562,-30.900001525878906
263753,2.8028979301452637,9.046314239501953,-1.6269488334655762,-0.228659987449646,0.5030519962310791,-0.8993960022926331,29.100000381469727,-179.70001220703125,-24.30000114440918
263773,2.712578296661377,8.874049186706543,-1.725642442703247,-0.3048799932003021,0.457319974899292,-0.9908599853515625,17.100000381469727,-179.70001220703125,-25.500001907348633
263793,2.6719045639038086,8.83875846862793,-1.724446177482605,-0.228659987449646,0.2591480016708374,-0.8384199738502502,21.900001525878906,-186.90000915527344,-27.900001525878906
263813,2.7771778106689453,8.962574005126953,-1.732222080230713,-0.09908600151538849,0.02286599949002266,-0.5259180068969727,33.900001525878906,-177.3000030517578,-29.100000381469727
263836,2.8872361183166504,9.087586402893066,-1.7148759365081787,-0.13719600439071655,-0.19054999947547913,-0.2743920087814331,19.5,-174.90000915527344,-29.100000381469727
263856,2.9249191284179688,9.02119255065918,-1.5647419691085815,-0.33536797761917114,-0.3887220025062561,-0.15243999660015106,21.900001525878906,-170.10000610351562,-23.100000381469727
263876,3.0864176750183105,8.978724479675293,-1.5270589590072632,-0.39634400606155396,-0.571649968624115,-0.060975998640060425,26.700000762939453,-186.90000915527344,-27.900001525878906
263896,3.151017189025879,8.888404846191406,-1.496553659439087,-0.4420759975910187,-0.6250039935112,-0.038109999150037766,21.900001525878906,-189.3000030517578,-28.500001907348633
263916,3.3107213973999023,9.02298641204834,-1.4780112504959106,-0.25152599811553955,-0.6783579587936401,0.07621999830007553,21.900001525878906,-179.70001220703125,-23.100000381469727
263940,3.3579745292663574,9.07981014251709,-1.4606651067733765,-0.10670799762010574,-0.7850660085678101,-0.08384199440479279,21.900001525878906,-186.90000915527344,-30.900001525878906
263960,3.326871156692505,8.909339904785156,-1.4050378799438477,0.09146399796009064,-0.914639949798584,-0.3125019967556,21.900001525878906,-174.90000915527344,-26.700000762939453
263984,3.42795729637146,8.97035026550293,-1.4624595642089844,0.3582339882850647,-0.9832379817962646,-0.41158798336982727,14.700000762939453,-186.90000915527344,-29.100000381469727
264004,3.564932107925415,9.06306266784668,-1.4421226978302002,0.426831990480423,-1.013725996017456,-0.38109999895095825,29.100000381469727,-165.3000030517578,-22.5
264026,3.552371025085449,8.96137809753418,-1.3224941492080688,0.18292799592018127,-0.967993974685669,-0.3048799932003021,31.500001907348633,-184.5,-29.100000381469727
264046,3.440518379211426,8.74903678894043,-1.2423429489135742,-0.038109999150037766,-0.7850660085678101,-0.38109999895095825,14.700000762939453,-174.90000915527344,-25.500001907348633
264086,3.290982723236084,8.75800895690918,-1.2423429489135742,0.17530599236488342,-0.5487840175628662,-0.28201398253440857,24.30000114440918,-177.3000030517578,-26.100000381469727
264110,2.909367322921753,9.08878231048584,-1.4331505298614502,0.038109999150037766,-0.12195199728012085,-0.7164679765701294,33.900001525878906,-177.3000030517578,-24.900001525878906
264130,2.677288055419922,9.16654109954834,-1.332662582397461,0.030487999320030212,-0.3048799932003021,-1.6082419157028198,17.100000381469727,-165.3000030517578,-29.700000762939453
264150,2.6061089038848877,9.240711212158203,-1.4857871532440186,-0.02286599949002266,-0.23628199100494385,-2.599102020263672,19.5,-174.90000915527344,-23.700000762939453
264170,2.536724328994751,9.171924591064453,-1.425972819328308,-0.09908600151538849,-0.228659987449646,-3.5366079807281494,31.500001907348633,-191.70001220703125,-26.100000381469727
264190,2.387786626815796,9.10493278503418,-1.5593587160110474,0.04573199898004532,-0.10670799762010574,-4.184477806091309,38.70000076293945,-174.90000915527344,-23.100000381469727
264214,2.027106523513794,8.715540885925293,-1.5862751007080078,0.09908600151538849,0.04573199898004532,-4.557955741882324,38.70000076293945,-182.10000610351562,-23.100000381469727
264234,2.0558173656463623,8.97932243347168,-1.7926344871520996,0.6936019659042358,0.09908600151538849,-4.344540119171143,38.70000076293945,-167.70001220703125,-22.5
264254,1.9726755619049072,9.10194206237793,-1.8608227968215942,0.7545779943466187,0.12195199728012085,-4.275941848754883,38.70000076293945,-177.3000030517578,-22.5
264274,1.8961132764816284,9.137829780578613,-1.9337961673736572,0.7698220014572144,0.35061198472976685,-4.085391998291016,60.30000305175781,-177.3000030517578,-26.100000381469727
264294,2.0827338695526123,9.346582412719727,-2.1658756732940674,0.800309956073761,0.5487840175628662,-3.7728898525238037,45.900001525878906,-172.5,-23.700000762939453
264314,2.190399646759033,9.468005180358887,-2.2256898880004883,0.5182960033416748,0.6936019659042358,-3.60520601272583,45.900001525878906,-174.90000915527344,-22.5
264334,2.5289485454559326,9.963865280151367,-2.4631526470184326,0.342989981174469,1.2271419763565063,-3.0106899738311768,55.500003814697266,-182.10000610351562,-18.900001525878906
264354,2.4523861408233643,9.41237735748291,-2.3704404830932617,-0.510673999786377,0.7774440050125122,-3.452765941619873,69.9000015258789,-179.70001220703125,-21.900001525878906
264374,2.548089027404785,8.828590393066406,-2.19398832321167,-0.1295740008354187,1.0899460315704346,-2.439039945602417,62.70000076293945,-170.10000610351562,-20.100000381469727
264394,2.607903242111206,8.96436882019043,-2.190399646759033,-0.114329993724823,1.1280559301376343,-2.2561118602752686,69.9000015258789,-174.90000915527344,-24.900001525878906
264437,2.7311208248138428,8.500807762145996,-2.223297357559204,0.2439039945602417,0.9298839569091797,-1.6387299299240112,67.5,-174.90000915527344,-21.30000114440918
264501,2.947648525238037,7.868570804595947,-2.2526063919067383,0.6173819899559021,0.19817200303077698,-0.9298839569091797,84.30000305175781,-170.10000610351562,-24.30000114440918
264521,2.8603196144104004,7.415178298950195,-2.065387725830078,0.5564059615135193,-0.015243999660015106,-0.48018598556518555,60.30000305175781,-174.90000915527344,-18.900001525878906
264541,2.521172523498535,6.915131092071533,-2.0671820640563965,0.426831990480423,0.015243999660015106,-0.038109999150037766,79.5,-162.90000915527344,-19.5
264563,1.7884474992752075,5.8468475341796875,-1.919440746307373,-0.060975998640060425,-0.38109999895095825,-0.4725639820098877,79.5,-167.70001220703125,-20.700000762939453
264583,1.2578946352005005,4.8718743324279785,-1.728633165359497,-0.114329993724823,-0.49542999267578125,-1.3567159175872803,55.500003814697266,-179.70001220703125,-20.700000762939453
264605,-0.9719823002815247,1.8339062929153442,-1.4445152282714844,-0.228659987449646,0.114329993724823,-1.92836594581604,79.5,-177.3000030517578,-25.500001907348633
264625,-1.6658282279968262,2.6090996265411377,-2.211334466934204,0.3582339882850647,1.6844619512557983,2.8658719062805176,65.10000610351562,-162.90000915527344,-26.700000762939453
264645,-1.1005830764770508,6.479682922363281,-2.9428634643554688,0.342989981174469,1.3643379211425781,6.608273983001709,72.30000305175781,-172.5,-27.30000114440918
264690,0.8607277274131775,11.533990859985352,-4.200160026550293,-0.8612859845161438,4.00154972076416,4.496979713439941,65.10000610351562,-182.10000610351562,-27.900001525878906
264710,1.848261833190918,11.193049430847168,-5.103355884552002,0.2439039945602417,2.4161739349365234,4.1921000480651855,45.900001525878906,-182.10000610351562,-23.100000381469727
264730,2.348907470703125,12.348063468933105,-5.331846237182617,0.8079319596290588,2.4085519313812256,7.629621982574463,48.30000305175781,-174.90000915527344,-20.700000762939453
264753,6.229061126708984,19.599349975585938,-6.155489444732666,-0.9527499675750732,3.8491098880767822,17.61444091796875,41.10000228881836,-174.90000915527344,-19.5
264773,9.839451789855957,19.559873580932617,-7.10294771194458,-0.5487840175628662,4.496979713439941,14.436067581176758,14.700000762939453,-177.3000030517578,-27.900001525878906
264795,9.365124702453613,19.599349975585938,-7.129266262054443,-1.0289700031280518,-0.9527499675750732,-1.189031958580017,21.900001525878906,-174.90000915527344,-25.500001907348633
264815,7.300932884216309,19.55508804321289,-6.144124507904053,-0.007621999830007553,-6.600651741027832,-9.618964195251465,21.900001525878906,-172.5,-21.30000114440918
264835,5.425156593322754,17.131412506103516,-3.6355130672454834,-3.1402640342712402,-9.07017993927002,-4.46649169921875,31.500001907348633,-179.70001220703125,-23.700000762939453
264857,4.784545421600342,16.738433837890625,-1.8967113494873047,-4.222588062286377,-1.8597679138183594,-0.04573199898004532,36.30000305175781,-177.3000030517578,-21.30000114440918
264877,2.750859498977661,13.658595085144043,-3.272440195083618,-2.7058098316192627,-0.04573199898004532,-5.304912090301514,38.70000076293945,-172.5,-17.100000381469727
264897,-0.003588857827708125,7.666398525238037,-0.9809544682502747,-2.9192259311676025,-5.320156097412109,-11.455865859985352,43.5,-177.3000030517578,-23.700000762939453
264917,-1.9098705053329468,2.367449998855591,0.7458842992782593,-1.7454379796981812,-3.0335559844970703,-10.129637718200684,33.900001525878906,-177.3000030517578,-21.900001525878906
264977,-0.9923191666603088,0.8607277274131775,0.2572014629840851,-0.5259180068969727,-0.3582339882850647,2.3475759029388428,60.30000305175781,-177.3000030517578,-24.30000114440918
264997,-0.3917836546897888,0.8714942932128906,-0.1339840292930603,-0.3048799932003021,0.9222619533538818,2.1494040489196777,55.500003814697266,-182.10000610351562,-24.30000114440918
265017,-0.3385489284992218,0.09450659155845642,0.23865903913974762,-0.739333987236023,0.8917739987373352,2.14178204536438,43.5,-182.10000610351562,-23.100000381469727
265037,0.09450659155845642,-0.709397554397583,-0.13876916468143463,0.038109999150037766,1.92836594581604,2.2637338638305664,50.70000076293945,-179.70001220703125,-26.700000762939453
265057,0.5401231050491333,-1.0850313901901245,-0.07835672795772552,0.1448179930448532,1.2118979692459106,3.3689239025115967,55.500003814697266,-177.3000030517578,-26.100000381469727
265077,0.4109242260456085,-1.4152063131332397,-0.07177715748548508,0.13719600439071655,1.8140360116958618,3.765267848968506,41.10000228881836,-172.5,-25.500001907348633
265097,0.5736191272735596,-1.6072101593017578,0.01973871886730194,0.038109999150037766,1.5853760242462158,4.420759677886963,48.30000305175781,-177.3000030517578,-27.30000114440918
265120,0.8894385695457458,-1.4857871532440186,0.17286331951618195,-0.4039659798145294,1.4939119815826416,5.708878040313721,36.30000305175781,-177.3000030517578,-26.700000762939453
265140,1.0006932020187378,-0.7458842992782593,0.3858022093772888,-0.8917739987373352,1.7301939725875854,6.714982032775879,21.900001525878906,-170.10000610351562,-33.30000305175781
265160,0.8045023083686829,-0.4204944968223572,0.7781839966773987,-1.9436099529266357,1.8216580152511597,6.554919719696045,24.30000114440918,-177.3000030517578,-28.500001907348633
265221,7.588639736175537,17.163114547729492,-2.3321595191955566,-6.615895748138428,6.006135940551758,15.983333587646484,-16.5,-184.5,-21.900001525878906
265241,8.135342597961426,19.412132263183594,-4.291077613830566,2.088428020477295,9.275973320007324,7.621999740600586,-28.500001907348633,-170.10000610351562,-27.900001525878906
265282,18.726062774658203,19.599349975585938,-5.794809341430664,-2.4237959384918213,-3.6280720233917236,9.908599853515625,-54.900001525878906,-158.10000610351562,-27.30000114440918
265302,19.599349975585938,19.599349975585938,-4.208533763885498,-5.419241905212402,-4.230209827423096,6.013757705688477,-64.5,-165.3000030517578,-27.30000114440918
265323,18.26429557800293,19.599349975585938,-4.719946384429932,0.41158798336982727,1.3795819282531738,-6.036623954772949,-42.900001525878906,-177.3000030517578,-32.10000228881836
265343,13.53777027130127,19.599349975585938,-5.449082374572754,0.8460419774055481,-2.3551979064941406,-10.32780933380127,-42.900001525878906,-167.70001220703125,-24.900001525878906
265406,2.3082337379455566,3.3017492294311523,0.15551717579364777,0.1600620001554489,-2.896359920501709,-20.045860290527344,-6.900000095367432,-170.10000610351562,-23.100000381469727
265446,-1.0718722343444824,-4.222291469573975,0.9701879024505615,-1.1051899194717407,-0.05335399881005287,-5.777475833892822,26.700000762939453,-189.3000030517578,-27.30000114440918
265527,1.2710537910461426,0.5132066607475281,0.4342517852783203,-0.6402480006217957,-1.6615959405899048,-1.882633924484253,31.500001907348633,-177.3000030517578,-24.900001525878906
265548,0.5371323823928833,-1.220809817314148,0.6453962922096252,-0.7012239694595337,-1.9969639778137207,-2.5152599811553955,21.900001525878906,-172.5,-26.100000381469727
265568,0.22131289541721344,-1.5677326917648315,0.6447980999946594,-0.15243999660015106,-1.6311079263687134,-1.5929979085922241,33.900001525878906,-177.3000030517578,-29.100000381469727
265588,0.23028504848480225,-0.6896588206291199,0.43963509798049927,0.05335399881005287,-0.9832379817962646,-0.510673999786377,38.70000076293945,-170.10000610351562,-25.500001907348633
265610,-0.04366443678736687,-0.11065644770860672,0.20576117932796478,0.02286599949002266,-0.6021379828453064,-0.6326259970664978,36.30000305175781,-179.70001220703125,-21.900001525878906
265631,-0.22191104292869568,0.042468149214982986,0.025720147415995598,-0.015243999660015106,-0.510673999786377,-1.1814099550247192,21.900001525878906,-186.90000915527344,-24.900001525878906
265651,-0.4270740747451782,-0.2135370373725891,0.16269488632678986,-0.07621999830007553,-0.426831990480423,-1.5015339851379395,31.500001907348633,-174.90000915527344,-27.30000114440918
265671,-0.6836774349212646,-0.26856619119644165,0.1058713048696518,-0.1600620001554489,0.13719600439071655,-1.3567159175872803,33.900001525878906,-174.90000915527344,-20.100000381469727
265691,-0.5251695513725281,0.61847984790802,-0.17166703939437866,0.38109999895095825,0.967993974685669,-0.13719600439071655,31.500001907348633,-172.5,-24.900001525878906
265714,0.6190779805183411,3.761721134185791,-0.8882423043251038,2.0579400062561035,2.2103798389434814,3.902463912963867,43.5,-182.10000610351562,-25.500001907348633
265734,1.6502764225006104,8.126370429992676,-1.4768149852752686,-0.04573199898004532,4.153989791870117,8.833897590637207,29.100000381469727,-172.5,-26.700000762939453
265754,4.005165100097656,14.162829399108887,-3.323282241821289,-0.5259180068969727,7.400961875915527,14.49704360961914,19.5,-184.5,-30.900001525878906
265775,5.207432746887207,18.074684143066406,-2.8028979301452637,-3.003067970275879,5.426863670349121,8.056453704833984,7.500000476837158,-186.90000915527344,-27.30000114440918
265795,8.61086654663086,19.599349975585938,-6.610077857971191,4.504601955413818,11.897941589355469,12.774471282958984,-14.100000381469727,-174.90000915527344,-27.900001525878906
265815,12.979702949523926,19.594566345214844,-7.649650573730469,2.278977870941162,9.253108024597168,7.240900039672852,-30.900001525878906,-182.10000610351562,-20.700000762939453
265835,17.17388153076172,19.599349975585938,-9.381872177124023,2.8811159133911133,3.559473991394043,6.006135940551758,-28.500001907348633,-167.70001220703125,-24.30000114440918
265855,15.606148719787598,19.599349975585938,-8.08569622039795,-0.6021379828453064,-5.091495990753174,-3.6433160305023193,-30.900001525878906,-162.90000915527344,-32.10000228881836
265895,9.02896785736084,19.599349975585938,-5.4652323722839355,-1.0442140102386475,-6.974129676818848,-7.736330032348633,-21.30000114440918,-172.5,-26.700000762939453
265915,5.791818618774414,16.645122528076172,-4.030885696411133,-2.2484898567199707,-7.561023712158203,-12.667763710021973,0.30000001192092896,-177.3000030517578,-23.700000762939453
265938,1.0652925968170166,4.8868279457092285,0.5909652709960938,-2.233245849609375,-8.201272010803223,-20.305007934570312,38.70000076293945,-177.3000030517578,-29.700000762939453
265958,-0.30385664105415344,-1.126901388168335,0.040075577795505524,-1.9664759635925293,-2.088428020477295,-15.106803894042969,48.30000305175781,-165.3000030517578,-24.900001525878906
265981,-1.3003628253936768,-5.185301303863525,1.4881796836853027,-5.327777862548828,-3.0259339809417725,-8.010722160339355,41.10000228881836,-167.70001220703125,-24.30000114440918
266001,-0.7500712871551514,-4.9855217933654785,1.3410365581512451,-1.478667974472046,2.0198299884796143,0.9756159782409668,48.30000305175781,-174.90000915527344,-23.700000762939453
266021,1.5605549812316895,1.7130814790725708,-0.8451760411262512,3.757645845413208,2.7667858600616455,9.61134147644043,62.70000076293945,-177.3000030517578,-23.100000381469727
266041,2.274139642715454,6.223677635192871,-0.6465925574302673,-0.2896359860897064,1.6844619512557983,6.692115783691406,29.100000381469727,-177.3000030517578,-35.10000228881836
266061,0.12261930853128433,1.506722092628479,-0.2398553341627121,-1.0289700031280518,1.5701320171356201,-5.929915904998779,38.70000076293945,-174.90000915527344,-29.100000381469727
266141,-0.1824336051940918,-0.9869359135627747,0.02751457691192627,0.7469559907913208,-0.7012239694595337,-0.19817200303077698,48.30000305175781,-191.70001220703125,-26.100000381469727
266181,0.6561628580093384,0.12860073149204254,0.39836323261260986,-1.0823240280151367,0.3048799932003021,2.637212038040161,33.900001525878906,-172.5,-25.500001907348633
266201,0.7464824318885803,0.20815375447273254,0.5425156950950623,-1.9740979671478271,0.6783579587936401,3.056421995162964,45.900001525878906,-179.70001220703125,-20.100000381469727
266242,1.3912805318832397,0.7787821292877197,0.6471906900405884,-1.7759259939193726,2.14178204536438,5.746987819671631,36.30000305175781,-174.90000915527344,-27.900001525878906
266262,2.5439021587371826,4.725329399108887,0.28351977467536926,-0.07621999830007553,4.458869934082031,11.631172180175781,19.5,-174.90000915527344,-24.900001525878906
266305,10.755208969116211,19.599349975585938,-4.120606899261475,-3.0335559844970703,8.247003555297852,16.67693519592285,-26.100000381469727,-177.3000030517578,-26.100000381469727
266325,12.517337799072266,19.59097671508789,-4.564428806304932,-0.5259180068969727,3.1783738136291504,3.5213639736175537,-40.5,-174.90000915527344,-29.700000762939453
266347,13.421730041503906,19.598752975463867,-5.190086364746094,3.0716660022735596,4.474113941192627,3.9939279556274414,-45.30000305175781,-177.3000030517578,-23.700000762939453
266367,18.415027618408203,19.599349975585938,-7.2058281898498535,-0.7469559907913208,7.286632061004639,14.077834129333496,-45.30000305175781,-167.70001220703125,-27.30000114440918
266387,19.471946716308594,19.599349975585938,-6.748249053955078,-3.666181802749634,-0.46494197845458984,3.147886037826538,-42.900001525878906,-177.3000030517578,-33.900001525878906
266409,14.034826278686523,19.599349975585938,-5.045934200286865,1.0061039924621582,-5.4573516845703125,-11.524463653564453,-45.30000305175781,-170.10000610351562,-31.500001907348633
266429,10.137327194213867,18.927637100219727,-4.309021949768066,-0.06859800219535828,-6.150953769683838,-12.507701873779297,-28.500001907348633,-172.5,-24.900001525878906
266449,6.785333633422852,13.160341262817383,-2.3094301223754883,-2.6295900344848633,-7.263765811920166,-15.25162124633789,-16.5,-177.3000030517578,-27.30000114440918
266469,3.0744547843933105,6.628022193908691,-0.5012438297271729,-1.4634239673614502,-6.432967662811279,-19.05500030517578,-14.100000381469727,-167.70001220703125,-29.100000381469727
266489,-0.30565106868743896,0.6794903874397278,-0.12202116847038269,-0.7164679765701294,-3.818621873855591,-17.477245330810547,26.700000762939453,-182.10000610351562,-23.700000762939453
266512,-1.9619089365005493,-3.082230806350708,0.25660333037376404,-2.4771499633789062,-2.4619059562683105,-10.335432052612305,14.700000762939453,-189.3000030517578,-24.900001525878906
266532,-1.235763430595398,-2.9620039463043213,0.36307278275489807,-1.0899460315704346,-1.14329993724823,-1.1509219408035278,36.30000305175781,-179.70001220703125,-24.30000114440918
266574,0.9863377809524536,1.8237379789352417,-0.11424531042575836,-0.060975998640060425,1.0975680351257324,0.44969800114631653,17.100000381469727,-172.5,-32.70000076293945
266600,0.9025977253913879,0.9636083245277405,0.17465774714946747,-0.13719600439071655,0.2972579896450043,0.228659987449646,24.30000114440918,-174.90000915527344,-27.30000114440918
266621,0.5688339471817017,0.08194559067487717,0.47731807827949524,-0.7698220014572144,0.17530599236488342,-0.2896359860897064,31.500001907348633,-177.3000030517578,-21.30000114440918
266661,-0.08134744316339493,-1.22200608253479,0.8762794733047485,-0.2972579896450043,0.2134159952402115,-0.4039659798145294,38.70000076293945,-177.3000030517578,-27.30000114440918
266722,0.23806090652942657,-0.5347397923469543,0.8804664611816406,-1.1585439443588257,0.5640279650688171,0.33536797761917114,29.100000381469727,-186.90000915527344,-30.900001525878906
266742,0.3307730555534363,-0.4755236506462097,0.9079810380935669,-1.2042759656906128,0.8612859845161438,0.6021379828453064,31.500001907348633,-182.10000610351562,-27.30000114440918
266764,0.6956402659416199,0.6041244268417358,0.43484994769096375,-0.5030519962310791,1.5396440029144287,1.5853760242462158,24.30000114440918,-182.10000610351562,-27.30000114440918
266784,1.2782315015792847,2.9374802112579346,0.022131290286779404,0.9527499675750732,2.637212038040161,3.4756319522857666,21.900001525878906,-170.10000610351562,-28.500001907348633
266804,2.560650110244751,8.257962226867676,-1.742390513420105,3.5899620056152344,7.286632061004639,11.440621376037598,7.500000476837158,-186.90000915527344,-24.900001525878906
266826,7.970853328704834,18.104591369628906,-5.183506965637207,-1.0975680351257324,10.739398002624512,22.57636260986328,-6.900000095367432,-170.10000610351562,-29.100000381469727
266846,10.247385025024414,19.599349975585938,-5.297752380371094,-1.8673899173736572,5.4573516845703125,12.279041290283203,-11.700000762939453,-174.90000915527344,-21.900001525878906
266870,12.126152038574219,19.599349975585938,-6.869671821594238,4.618931770324707,2.888737916946411,-1.5625100135803223,-23.700000762939453,-170.10000610351562,-33.30000305175781
266890,13.398402214050293,19.598154067993164,-7.451066970825195,6.814067840576172,-0.2134159952402115,0.7545779943466187,-21.30000114440918,-170.10000610351562,-27.900001525878906
266914,19.599349975585938,19.599349975585938,-7.455254077911377,-6.364369869232178,0.7240899801254272,7.865903854370117,-38.10000228881836,-167.70001220703125,-29.700000762939453
266934,13.34038257598877,19.599349975585938,-5.8139495849609375,2.7058098316192627,-2.8277618885040283,-14.077834129333496,-40.5,-170.10000610351562,-25.500001907348633
266956,9.50508975982666,19.530563354492188,-6.183003902435303,2.187514066696167,-3.3155698776245117,-12.39337158203125,-23.700000762939453,-184.5,-28.500001907348633
266976,5.140440464019775,15.133615493774414,-3.481192111968994,-5.068629741668701,-7.637243747711182,-11.1357421875,-11.700000762939453,-167.70001220703125,-24.900001525878906
267019,-0.6585553884506226,1.9278148412704468,0.1339840292930603,0.114329993724823,-0.7317119836807251,-18.14035987854004,9.90000057220459,-184.5,-24.30000114440918
267039,-2.4045348167419434,-2.9620039463043213,0.19320018589496613,-2.027451992034912,-1.2804960012435913,-12.362883567810059,33.900001525878906,-179.70001220703125,-20.100000381469727
267059,-2.2107365131378174,-3.9244160652160645,1.2925869226455688,-2.7286758422851562,-0.6554920077323914,-3.399411916732788,29.100000381469727,-172.5,-30.30000114440918
267079,0.8966163396835327,0.5383286476135254,0.2105463296175003,1.2347639799118042,0.16768398880958557,3.9329519271850586,36.30000305175781,-177.3000030517578,-26.100000381469727
267099,1.8650097846984863,3.2808141708374023,0.3899892270565033,-0.060975998640060425,0.9451279640197754,3.1250200271606445,26.700000762939453,-179.70001220703125,-24.30000114440918
267119,0.8134744167327881,1.0760592222213745,-0.12740445137023926,-1.242385983467102,1.3186060190200806,-1.0975680351257324,29.100000381469727,-186.90000915527344,-24.30000114440918
267143,0.7381084561347961,-1.4786094427108765,0.35709136724472046,0.08384199440479279,-0.17530599236488342,0.18292799592018127,26.700000762939453,-177.3000030517578,-26.700000762939453
267163,0.8284280300140381,-0.9414770603179932,0.61548912525177,0.12195199728012085,-0.09908600151538849,1.7835479974746704,31.500001907348633,-182.10000610351562,-23.100000381469727
267183,0.7135845422744751,-0.6950421333312988,0.46714967489242554,-0.23628199100494385,0.23628199100494385,1.417691946029663,36.30000305175781,-186.90000915527344,-27.900001525878906
267203,0.7835673093795776,-0.8314187526702881,0.6005355715751648,-0.8231759667396545,0.09146399796009064,1.0289700031280518,31.500001907348633,-179.70001220703125,-34.5
267223,0.8045023083686829,-0.8457741737365723,0.705808699131012,-1.2347639799118042,0.2591480016708374,1.1356779336929321,17.100000381469727,-172.5,-27.900001525878906
267245,0.9019995927810669,-0.9887303113937378,0.7291362881660461,-1.3948259353637695,0.5868939757347107,1.4634239673614502,24.30000114440918,-184.5,-28.500001907348633
267265,1.0748629570007324,-0.6436018347740173,0.811680018901825,-1.1585439443588257,1.0594580173492432,2.134160041809082,26.700000762939453,-182.10000610351562,-28.500001907348633
267285,1.0216281414031982,-0.4456165134906769,0.6890606880187988,-1.0442140102386475,1.646351933479309,2.324709892272949,29.100000381469727,-177.3000030517578,-30.30000114440918
267306,1.3452235460281372,0.5167955160140991,0.45578494668006897,-0.18292799592018127,2.1646480560302734,2.903981924057007,12.300000190734863,-172.5,-38.70000076293945
267326,2.2932801246643066,3.41599440574646,0.26258477568626404,1.9436099529266357,3.361301898956299,5.884183883666992,14.700000762939453,-172.5,-26.700000762939453
267349,5.159581184387207,11.615936279296875,-2.5439021587371826,-0.09146399796009064,8.300357818603516,14.176919937133789,-4.5,-179.70001220703125,-25.500001907348633
267369,8.78313159942627,18.937206268310547,-4.459156036376953,0.6554920077323914,9.230241775512695,19.23792839050293,-16.5,-179.70001220703125,-28.500001907348633
267389,14.137707710266113,19.56705093383789,-6.7560248374938965,-0.46494197845458984,7.904013633728027,15.526013374328613,-28.500001907348633,-174.90000915527344,-30.30000114440918
267409,13.70704460144043,19.599349975585938,-6.101058483123779,2.3170878887176514,0.5564059615135193,-1.9740979671478271,-40.5,-174.90000915527344,-28.500001907348633
267430,17.651199340820312,19.598752975463867,-7.489946365356445,2.903981924057007,1.478667974472046,5.4649739265441895,-38.10000228881836,-165.3000030517578,-29.100000381469727
267450,19.394784927368164,19.599349975585938,-6.703388214111328,-5.022897720336914,-0.2439039945602417,2.0503180027008057,-52.500003814697266,-170.10000610351562,-23.100000381469727
267472,14.262121200561523,19.599349975585938,-6.121993541717529,3.193617820739746,-2.843005895614624,-12.561056137084961,-50.10000228881836,-165.3000030517578,-29.100000381469727
267535,3.174942970275879,9.29095458984375,-1.030002236366272,-0.22103799879550934,-8.056453704833984,-17.599197387695312,-4.5,-186.90000915527344,-26.700000762939453
267566,-0.8039041757583618,-1.738203525543213,0.5377305150032043,0.46494197845458984,-3.7805118560791016,-18.590057373046875,17.100000381469727,-182.10000610351562,-31.500001907348633
267587,-1.3422328233718872,-4.166065692901611,1.1346771717071533,-4.222588062286377,-0.9070180058479309,-0.4344539940357208,41.10000228881836,-177.3000030517578,-26.700000762939453
267627,2.310626268386841,3.2592811584472656,0.0059814294800162315,0.4039659798145294,1.189031958580017,5.777475833892822,26.700000762939453,-177.3000030517578,-23.700000762939453
267647,1.3709436655044556,1.8973095417022705,-0.44501838088035583,-1.0061039924621582,1.4558019638061523,0.7774440050125122,29.100000381469727,-179.70001220703125,-19.5
267667,1.1137422323226929,-0.7201641201972961,-0.08852516114711761,-0.09146399796009064,0.41158798336982727,-0.5030519962310791,21.900001525878906,-182.10000610351562,-24.900001525878906
267687,0.8140726089477539,-1.3541957139968872,0.3433340787887573,-0.13719600439071655,-1.2347639799118042,1.425313949584961,26.700000762939453,-184.5,-20.700000762939453
267707,0.7506694197654724,-1.0365817546844482,0.6513776779174805,-0.22103799879550934,-0.914639949798584,1.7606819868087769,29.100000381469727,-170.10000610351562,-20.100000381469727
267729,0.8385964632034302,-0.7105938792228699,0.7751932740211487,-0.7088459730148315,-0.6326259970664978,1.806414008140564,17.100000381469727,-177.3000030517578,-26.100000381469727
267749,0.9073829054832458,-0.26557546854019165,0.799717128276825,-1.8673899173736572,-0.20579399168491364,1.4558019638061523,17.100000381469727,-179.70001220703125,-23.100000381469727
267789,0.5676376819610596,-0.42587780952453613,0.724949300289154,-2.3551979064941406,0.038109999150037766,0.6783579587936401,19.5,-172.5,-25.500001907348633
267809,0.3427359163761139,-0.7596415877342224,0.8661110401153564,-2.278977870941162,0.09908600151538849,0.3582339882850647,19.5,-172.5,-24.30000114440918
267829,0.3212027847766876,-0.8942237496376038,1.1711639165878296,-1.753059983253479,0.16768398880958557,0.5564059615135193,17.100000381469727,-179.70001220703125,-18.30000114440918
267851,1.336849570274353,1.4959555864334106,0.7710062861442566,0.2743920087814331,1.1128119230270386,3.163130044937134,21.900001525878906,-182.10000610351562,-27.30000114440918
267873,2.26576566696167,5.947933673858643,0.1118527352809906,1.753059983253479,4.184477806091309,8.772921562194824,17.100000381469727,-177.3000030517578,-27.900001525878906
267893,5.331846237182617,13.96484375,-2.8387866020202637,-0.08384199440479279,8.719568252563477,20.083969116210938,-11.700000762939453,-174.90000915527344,-21.900001525878906
267913,9.821507453918457,19.599349975585938,-4.033277988433838,-3.7271578311920166,6.288149833679199,19.74860191345215,-33.30000305175781,-179.70001220703125,-26.100000381469727
267933,10.188169479370117,19.574827194213867,-4.3831915855407715,0.6783579587936401,3.2317278385162354,-1.6234859228134155,-35.70000076293945,-174.90000915527344,-35.10000228881836
267953,10.36880874633789,19.599349975585938,-6.069356918334961,9.093046188354492,3.9405739307403564,-4.436003684997559,-45.30000305175781,-170.10000610351562,-24.900001525878906
