time,sensor_accX[g],sensor_accY[g],sensor_accZ[g],sensor_gyroX[°/s],sensor_gyroY[°/s],sensor_gyroZ[°/s],sensor_magX[µT],sensor_magY[µT],sensor_magZ[µT]
400980,-3.5936429500579834,7.6981000900268555,-4.4041266441345215,-0.6478700041770935,-0.02286599949002266,-0.2134159952402115,252.3000030517578,-71.70000457763672,2.700000047683716
401000,-3.582876443862915,7.809354782104492,-4.468128204345703,-0.5792719721794128,-0.17530599236488342,-0.23628199100494385,249.90000915527344,-66.9000015258789,1.5
401020,-3.6504664421081543,7.6801557540893555,-4.532129287719727,-0.46494197845458984,-0.1448179930448532,-0.18292799592018127,257.1000061035156,-52.500003814697266,2.700000047683716
401040,-3.5876615047454834,7.848832130432129,-4.398743629455566,-0.20579399168491364,-0.12195199728012085,-0.114329993724823,242.70001220703125,-57.30000305175781,-7.500000476837158
401060,-3.5398101806640625,7.951712608337402,-4.45078182220459,-0.457319974899292,0.2591480016708374,-0.08384199440479279,245.10000610351562,-74.10000610351562,6.300000190734863
401082,-3.5691192150115967,7.975638389587402,-4.449585437774658,-0.5487840175628662,0.4420759975910187,-0.1295740008354187,247.50001525878906,-66.9000015258789,-1.5
401102,-3.699514389038086,7.860795021057129,-4.454370498657227,-0.6402480006217957,0.510673999786377,-0.22103799879550934,240.3000030517578,-64.5,1.5
401122,-3.580483913421631,7.807559967041016,-4.286292552947998,-0.6250039935112,0.5182960033416748,-0.030487999320030212,242.70001220703125,-62.10000228881836,-3.9000000953674316
401142,-3.538015604019165,8.137137413024902,-4.105653285980225,-0.7621999979019165,0.6707359552383423,0.08384199440479279,249.90000915527344,-76.5,-4.5
401162,-3.756337881088257,7.940946102142334,-4.228870868682861,-0.9375059604644775,1.3643379211425781,-0.35061198472976685,249.90000915527344,-76.5,-0.30000001192092896
401182,-3.823928117752075,7.834476470947266,-4.285096168518066,-0.6707359552383423,1.1814099550247192,-0.3277460038661957,259.5,-57.30000305175781,-4.5
401202,-3.892714500427246,7.821317672729492,-4.17085075378418,-0.5487840175628662,1.1509219408035278,-0.1600620001554489,252.3000030517578,-66.9000015258789,2.1000001430511475
401224,-3.7964134216308594,7.7453532218933105,-4.19776725769043,-0.5182960033416748,1.1051899194717407,0.19817200303077698,252.3000030517578,-62.10000228881836,-3.3000001907348633
401266,-3.7449731826782227,7.710660934448242,-4.346107006072998,-0.426831990480423,0.7850660085678101,0.6326259970664978,247.50001525878906,-66.9000015258789,0.9000000357627869
401286,-3.6684107780456543,7.8290934562683105,-4.332947731018066,-0.2896359860897064,0.4725639820098877,0.8079319596290588,242.70001220703125,-69.30000305175781,-2.700000047683716
401326,-3.5158843994140625,7.985806941986084,-4.33234977722168,-0.2134159952402115,0.35061198472976685,0.6554920077323914,249.90000915527344,-66.9000015258789,1.5
401346,-3.49076247215271,7.871561527252197,-4.3502936363220215,-0.15243999660015106,0.44969800114631653,0.35061198472976685,247.50001525878906,-64.5,2.1000001430511475
401370,-3.606204032897949,7.714250087738037,-4.512988567352295,-0.038109999150037766,0.7545779943466187,0.22103799879550934,247.50001525878906,-74.10000610351562,0.30000001192092896
401390,-3.621157646179199,7.698698043823242,-4.718151569366455,0.39634400606155396,0.6326259970664978,0.4192099869251251,254.70001220703125,-66.9000015258789,3.9000000953674316
401410,-3.6295316219329834,7.729203701019287,-4.64996337890625,0.4192099869251251,0.6554920077323914,0.48018598556518555,242.70001220703125,-59.70000076293945,-4.5
401430,-3.65704607963562,7.871561527252197,-4.786340236663818,0.36585599184036255,1.189031958580017,0.5182960033416748,254.70001220703125,-71.70000457763672,-1.5
401450,-3.859816551208496,7.802774906158447,-5.136253833770752,0.4192099869251251,1.829279899597168,0.2439039945602417,254.70001220703125,-62.10000228881836,-3.3000001907348633
401470,-3.994398832321167,7.671781539916992,-5.478989601135254,0.4878079891204834,1.699705958366394,0.2972579896450043,254.70001220703125,-76.5,3.9000000953674316
401490,-3.9327900409698486,7.692716598510742,-5.238536357879639,0.35061198472976685,1.14329993724823,0.6326259970664978,237.90000915527344,-69.30000305175781,3.9000000953674316
401513,-3.7748804092407227,7.758512496948242,-5.264256477355957,-0.2896359860897064,2.1646480560302734,0.8079319596290588,235.50001525878906,-71.70000457763672,9.90000057220459
401533,-3.7222437858581543,7.2476983070373535,-5.2744245529174805,-0.33536797761917114,2.324709892272949,0.8155539631843567,235.50001525878906,-71.70000457763672,0.30000001192092896
401555,-3.4004428386688232,7.351775169372559,-4.950231075286865,-0.23628199100494385,1.8673899173736572,1.3872039318084717,235.50001525878906,-66.9000015258789,3.3000001907348633
401575,-3.171354055404663,7.024590969085693,-4.563830852508545,-0.3201240003108978,2.2103798389434814,1.1128119230270386,242.70001220703125,-74.10000610351562,2.1000001430511475
401597,-2.972172498703003,7.153191566467285,-4.390369415283203,0.07621999830007553,2.6753220558166504,1.0061039924621582,252.3000030517578,-83.70000457763672,2.700000047683716
401617,-3.138456106185913,7.297344207763672,-4.563830852508545,0.20579399168491364,3.2241058349609375,0.5030519962310791,242.70001220703125,-78.9000015258789,-0.30000001192092896
401637,-3.3196935653686523,7.388261795043945,-4.9167351722717285,0.4878079891204834,3.109776020050049,0.3887220025062561,235.50001525878906,-83.70000457763672,2.1000001430511475
401657,-3.540408134460449,7.6442670822143555,-5.105748176574707,0.7545779943466187,2.8201398849487305,0.426831990480423,233.10000610351562,-71.70000457763672,1.5
401681,-3.6767847537994385,7.993582725524902,-5.884530544281006,0.9375059604644775,3.0640439987182617,0.7012239694595337,235.50001525878906,-76.5,6.300000190734863
401705,-3.789235830307007,8.24121379852295,-6.205733299255371,0.6707359552383423,2.0579400062561035,1.196653962135315,228.3000030517578,-81.30000305175781,3.3000001907348633
401725,-4.051820278167725,8.061172485351562,-6.139339447021484,-0.07621999830007553,1.8216580152511597,1.295740008354187,218.70001220703125,-81.30000305175781,3.9000000953674316
401745,-4.207935810089111,7.710660934448242,-6.669294357299805,-0.26677000522613525,2.0122079849243164,2.0122079849243164,223.50001525878906,-86.10000610351562,1.5
401766,-4.211524486541748,7.534807205200195,-6.747650623321533,-0.39634400606155396,1.6387299299240112,2.5000159740448,211.50001525878906,-86.10000610351562,10.5
401786,-4.050025939941406,7.65981912612915,-6.544880390167236,-1.013725996017456,0.5564059615135193,3.75002384185791,213.90000915527344,-74.10000610351562,8.700000762939453
401806,-3.953126907348633,7.595817565917969,-6.251192092895508,-1.9207439422607422,0.457319974899292,3.8338658809661865,206.70001220703125,-88.5,9.90000057220459
401826,-4.0613908767700195,7.386467456817627,-6.405513286590576,-2.179892063140869,0.46494197845458984,3.8491098880767822,211.50001525878906,-86.10000610351562,1.5
401846,-3.958510160446167,7.32306432723999,-6.4216628074646,-2.439039945602417,0.12195199728012085,3.9253299236297607,209.10000610351562,-88.5,9.90000057220459
401866,-3.7336084842681885,6.973748683929443,-6.226668357849121,-2.492393970489502,-0.28201398253440857,4.32167387008667,206.70001220703125,-98.10000610351562,6.300000190734863
401887,-3.6289334297180176,6.980926513671875,-6.127974510192871,-2.5762360095977783,-0.342989981174469,4.596065998077393,192.3000030517578,-98.10000610351562,8.100000381469727
401907,-3.4650421142578125,6.970757961273193,-5.995785236358643,-2.9268479347229004,-0.228659987449646,4.923811912536621,201.90000915527344,-98.10000610351562,5.700000286102295
401927,-3.1408486366271973,7.155584335327148,-6.033468246459961,-3.0716660022735596,-0.06859800219535828,5.236313819885254,194.70001220703125,-110.10000610351562,5.700000286102295
401949,-2.7646167278289795,7.268035411834717,-5.806173801422119,-3.246971845626831,-0.6936019659042358,5.099117755889893,199.50001525878906,-100.50000762939453,-0.9000000357627869
401969,-2.4637508392333984,7.009039402008057,-5.524448394775391,-3.4375219345092773,-0.7469559907913208,5.472595691680908,180.3000030517578,-112.50000762939453,3.9000000953674316
401989,-2.048041582107544,7.430131912231445,-5.463438034057617,-3.559473991394043,-0.7774440050125122,5.983269691467285,177.90000915527344,-122.10000610351562,-3.9000000953674316
402009,-1.9032909870147705,7.381682395935059,-5.288780212402344,-3.7195358276367188,-0.8993960022926331,5.800342082977295,187.5,-112.50000762939453,-0.9000000357627869
402032,-1.5910602807998657,7.477385520935059,-5.065074443817139,-3.551851987838745,-1.3338500261306763,5.7164998054504395,175.5,-119.70000457763672,-0.9000000357627869
402052,-0.8834571838378906,7.905655860900879,-4.82820987701416,-3.163130044937134,-1.9893419742584229,5.670767784118652,177.90000915527344,-122.10000610351562,2.1000001430511475
402072,-0.2883049249649048,8.275307655334473,-4.315601348876953,-3.1783738136291504,-2.835383892059326,5.266801834106445,161.10000610351562,-124.50000762939453,-0.9000000357627869
402094,0.5335435271263123,8.499611854553223,-3.875368356704712,-3.147886037826538,-3.239349842071533,5.266801834106445,163.5,-124.50000762939453,1.5
402114,0.903195858001709,8.705970764160156,-3.1288859844207764,-3.3765459060668945,-3.5213639736175537,5.266801834106445,170.70001220703125,-136.5,-4.5
402175,0.44800907373428345,8.79808521270752,-2.688652753829956,-2.5000159740448,-3.8491098880767822,4.146368026733398,144.3000030517578,-131.70001220703125,-8.700000762939453
402195,0.2135370373725891,8.896180152893066,-2.116229772567749,-2.7210538387298584,-4.367405891418457,3.803377866744995,146.70001220703125,-153.3000030517578,-3.3000001907348633
402215,0.13338588178157806,9.02597713470459,-1.9643014669418335,-2.5152599811553955,-3.7347798347473145,3.5289859771728516,144.3000030517578,-138.90000915527344,-8.700000762939453
402235,0.7207622528076172,10.29882526397705,-2.4793026447296143,-2.1646480560302734,-3.666181802749634,4.230209827423096,137.10000610351562,-150.90000915527344,-6.900000095367432
402255,1.3380458354949951,11.053682327270508,-2.152716636657715,-2.3170878887176514,-4.527467727661133,4.10825777053833,132.3000030517578,-150.90000915527344,-6.900000095367432
402275,0.12441373616456985,8.927882194519043,-1.8386914730072021,-2.8582499027252197,-3.2622158527374268,2.743919849395752,139.5,-148.5,-6.900000095367432
402295,0.08493629842996597,8.990687370300293,-1.8763744831085205,-2.3551979064941406,-3.414655923843384,3.3308138847351074,137.10000610351562,-148.5,-12.90000057220459
402315,0.21293890476226807,9.530810356140137,-1.8763744831085205,-1.7378159761428833,-3.4375219345092773,3.3689239025115967,129.90000915527344,-153.3000030517578,-9.90000057220459
402336,-0.11304902285337448,8.812440872192383,-2.2645692825317383,-1.2652519941329956,-3.8872199058532715,2.7058098316192627,125.10000610351562,-150.90000915527344,-14.100000381469727
402357,-0.1591060310602188,8.550454139709473,-2.2250919342041016,-0.6936019659042358,-4.74850606918335,2.8658719062805176,132.3000030517578,-153.3000030517578,-16.5
402377,0.16389118134975433,9.017603874206543,-2.146735191345215,-0.48018598556518555,-5.190581798553467,3.2164838314056396,125.10000610351562,-155.70001220703125,-12.300000190734863
402418,0.38041892647743225,8.99128532409668,-2.134174108505249,-1.6234859228134155,-4.458869934082031,2.7667858600616455,132.3000030517578,-158.10000610351562,-13.500000953674316
402438,0.07656230032444,8.038443565368652,-2.304046630859375,-1.653973937034607,-4.28356409072876,2.4542839527130127,125.10000610351562,-153.3000030517578,-18.30000114440918
402458,0.19798532128334045,8.005545616149902,-2.1024725437164307,-0.6478700041770935,-4.67990779876709,3.5747179985046387,120.30000305175781,-158.10000610351562,-14.100000381469727
402478,0.7105938792228699,8.995471954345703,-2.047443389892578,-0.5564059615135193,-4.230209827423096,4.352161884307861,120.30000305175781,-165.3000030517578,-15.90000057220459
402499,0.7668192982673645,8.848328590393066,-1.8757764101028442,-1.2576299905776978,-3.361301898956299,3.803377866744995,103.50000762939453,-165.3000030517578,-9.300000190734863
402519,0.8374001383781433,8.857300758361816,-1.8979076147079468,-1.3033620119094849,-2.637212038040161,3.7881338596343994,103.50000762939453,-167.70001220703125,-21.900001525878906
402539,0.7686136960983276,8.716737747192383,-1.9577219486236572,-1.4939119815826416,-2.088428020477295,3.4298999309539795,105.9000015258789,-165.3000030517578,-17.700000762939453
402559,0.7422954440116882,8.141921997070312,-1.8823559284210205,-1.4481799602508545,-1.8521459102630615,3.193617820739746,113.10000610351562,-165.3000030517578,-14.700000762939453
402579,1.018039345741272,8.464919090270996,-1.6945390701293945,-0.8384199738502502,-1.600619912147522,3.452765941619873,108.30000305175781,-165.3000030517578,-19.5
402599,1.1083589792251587,8.94343376159668,-1.7118852138519287,-0.967993974685669,-1.0899460315704346,3.1173980236053467,103.50000762939453,-165.3000030517578,-12.300000190734863
402622,0.9935154914855957,8.686232566833496,-1.709492564201355,-1.1814099550247192,-0.6097599864006042,2.2637338638305664,103.50000762939453,-160.5,-20.100000381469727
402642,1.0383762121200562,8.600099563598633,-1.6736040115356445,-0.8993960022926331,-0.4725639820098877,1.935987949371338,96.30000305175781,-165.3000030517578,-15.300000190734863
402662,1.1257051229476929,8.590529441833496,-1.5844807624816895,-0.7926880121231079,-0.228659987449646,2.0579400062561035,101.10000610351562,-162.90000915527344,-16.5
402706,1.035983681678772,8.360244750976562,-1.6831743717193604,-0.48018598556518555,0.07621999830007553,1.9512319564819336,89.10000610351562,-172.5,-18.900001525878906
402727,1.1586029529571533,9.299328804016113,-1.9260203838348389,0.015243999660015106,0.10670799762010574,1.653973937034607,89.10000610351562,-172.5,-15.90000057220459
402747,1.2124358415603638,9.23114013671875,-2.083332061767578,-0.2591480016708374,0.09908600151538849,0.4725639820098877,89.10000610351562,-160.5,-16.5
402767,1.3506067991256714,9.032556533813477,-2.1036689281463623,-0.114329993724823,-0.030487999320030212,-0.15243999660015106,79.5,-172.5,-15.300000190734863
402787,1.6933428049087524,9.258056640625,-2.0946967601776123,0.02286599949002266,-0.06859800219535828,-0.06859800219535828,89.10000610351562,-170.10000610351562,-23.700000762939453
402810,1.8237379789352417,9.356152534484863,-2.3124208450317383,-0.28201398253440857,0.6631140112876892,-0.28201398253440857,93.9000015258789,-162.90000915527344,-14.100000381469727
402830,2.0253121852874756,9.563708305358887,-2.7646167278289795,-0.08384199440479279,0.8917739987373352,-0.510673999786377,89.10000610351562,-167.70001220703125,-19.5
402851,1.8536450862884521,8.57677173614502,-2.6192681789398193,-0.3887220025062561,0.6250039935112,-0.9451279640197754,86.70000457763672,-165.3000030517578,-8.700000762939453
402872,1.6969316005706787,7.958890438079834,-2.375225782394409,-0.3734779953956604,1.1509219408035278,-0.4344539940357208,86.70000457763672,-165.3000030517578,-21.900001525878906
402893,1.4588706493377686,10.528512954711914,-3.8945088386535645,0.426831990480423,3.559473991394043,-0.26677000522613525,84.30000305175781,-172.5,-19.5
402913,1.2770352363586426,10.513559341430664,-4.535717964172363,0.2972579896450043,3.513741970062256,-1.4405579566955566,79.5,-170.10000610351562,-19.5
402933,1.4947593212127686,9.31009578704834,-4.032680034637451,0.5564059615135193,1.189031958580017,-2.6295900344848633,93.9000015258789,-160.5,-11.700000762939453
402956,2.4194884300231934,10.861080169677734,-4.37003231048584,0.5182960033416748,1.7225719690322876,-1.2881180047988892,93.9000015258789,-150.90000915527344,-18.30000114440918
402976,1.6036213636398315,9.46142578125,-4.20075798034668,-0.6707359552383423,1.6844619512557983,-2.8582499027252197,96.30000305175781,-174.90000915527344,-19.5
402996,1.533638596534729,9.55294132232666,-4.565625190734863,0.23628199100494385,1.7454379796981812,-1.5091559886932373,86.70000457763672,-160.5,-19.5
403016,1.735212802886963,10.62182331085205,-4.8629021644592285,0.5335400104522705,1.2271419763565063,-0.9984819889068604,93.9000015258789,-162.90000915527344,-13.500000953674316
403039,1.333858847618103,9.849021911621094,-4.455566883087158,0.12195199728012085,0.02286599949002266,-1.9054999351501465,93.9000015258789,-158.10000610351562,-17.700000762939453
403059,1.302755355834961,9.736571311950684,-3.9148457050323486,0.3734779953956604,-0.3201240003108978,-1.7149499654769897,96.30000305175781,-167.70001220703125,-13.500000953674316
403079,0.9785618782043457,8.75023365020752,-3.5637357234954834,-0.4420759975910187,-0.12195199728012085,-2.3475759029388428,103.50000762939453,-165.3000030517578,-13.500000953674316
403099,0.6531721353530884,8.137735366821289,-3.2479162216186523,-0.46494197845458984,0.4878079891204834,-1.5701320171356201,108.30000305175781,-158.10000610351562,-12.90000057220459
403119,0.4695422351360321,7.7070722579956055,-3.1928870677948,-0.8841519951820374,1.2576299905776978,-0.967993974685669,101.10000610351562,-167.70001220703125,-20.700000762939453
403139,0.4946642518043518,7.7094645500183105,-3.3274693489074707,-0.7088459730148315,1.829279899597168,0.07621999830007553,96.30000305175781,-165.3000030517578,-14.700000762939453
403162,0.5981429815292358,7.676567077636719,-3.2048499584198,-0.9756159782409668,1.92836594581604,0.49542999267578125,91.5,-155.70001220703125,-18.30000114440918
403182,0.6657330989837646,7.37390661239624,-3.3155064582824707,-0.914639949798584,2.134160041809082,0.8307979702949524,101.10000610351562,-165.3000030517578,-23.100000381469727
403202,1.223800539970398,7.979227066040039,-3.338235855102539,-0.6402480006217957,1.753059983253479,1.981719970703125,98.70000457763672,-174.90000915527344,-17.700000762939453
403222,1.4092248678207397,8.103042602539062,-3.4536774158477783,-1.2042759656906128,1.829279899597168,2.187514066696167,96.30000305175781,-165.3000030517578,-17.100000381469727
403242,1.455880045890808,8.198147773742676,-3.8352928161621094,-0.8155539631843567,1.6234859228134155,2.5609920024871826,93.9000015258789,-165.3000030517578,-19.5
403262,1.82254159450531,8.400918006896973,-3.66302752494812,-0.6554920077323914,0.571649968624115,2.7286758422851562,84.30000305175781,-155.70001220703125,-16.5
403282,1.9086742401123047,8.472695350646973,-3.63312029838562,-0.9908599853515625,0.5335400104522705,2.7591638565063477,84.30000305175781,-160.5,-15.90000057220459
403305,1.8560376167297363,8.52892017364502,-3.815553903579712,-1.1280559301376343,0.3734779953956604,2.385685920715332,81.9000015258789,-165.3000030517578,-14.100000381469727
403325,1.8829541206359863,8.450563430786133,-3.782656192779541,-1.0518360137939453,-0.08384199440479279,1.9893419742584229,93.9000015258789,-165.3000030517578,-11.100000381469727
403349,1.9014965295791626,8.535500526428223,-3.7336084842681885,-1.013725996017456,-0.25152599811553955,1.577754020690918,74.70000457763672,-165.3000030517578,-5.700000286102295
403369,1.8578320741653442,8.575575828552246,-3.753347158432007,-1.0747020244598389,-0.46494197845458984,0.9908599853515625,74.70000457763672,-179.70001220703125,-12.90000057220459
403389,1.8171583414077759,8.071939468383789,-3.46384596824646,-1.3338500261306763,-0.5182960033416748,0.3887220025062561,69.9000015258789,-158.10000610351562,-9.300000190734863
403449,2.2191104888916016,8.481069564819336,-3.248514413833618,-1.829279899597168,-0.20579399168491364,0.6250039935112,79.5,-172.5,-17.700000762939453
403499,2.586968421936035,8.930274963378906,-2.5714166164398193,-1.9893419742584229,-0.7926880121231079,1.5472660064697266,77.10000610351562,-160.5,-14.700000762939453
403519,2.330364942550659,8.628211975097656,-2.3883848190307617,-1.9740979671478271,-0.38109999895095825,1.2728739976882935,79.5,-172.5,-14.700000762939453
403559,1.8745800256729126,8.477479934692383,-2.0229194164276123,-1.1737879514694214,-0.967993974685669,0.9756159782409668,57.900001525878906,-184.5,-21.30000114440918
403603,2.795720338821411,11.813921928405762,-1.937385082244873,-0.5030519962310791,-0.39634400606155396,2.6067240238189697,65.10000610351562,-174.90000915527344,-17.100000381469727
403623,4.160682678222656,14.13411808013916,-2.0701727867126465,-0.8689079880714417,-0.7774440050125122,2.8277618885040283,72.30000305175781,-172.5,-17.100000381469727
403646,2.6731009483337402,10.859884262084961,-0.8505592942237854,-1.9969639778137207,-0.6783579587936401,-2.8582499027252197,53.10000228881836,-179.70001220703125,-24.900001525878906
403666,1.421785831451416,8.77116870880127,-0.8984107375144958,-0.9375059604644775,0.7774440050125122,-1.829279899597168,67.5,-172.5,-19.5
403728,0.8756812810897827,9.027771949768066,-1.6131916046142578,-0.967993974685669,1.3567159175872803,-2.6677000522613525,60.30000305175781,-167.70001220703125,-20.700000762939453
403797,1.0629000663757324,8.015713691711426,-1.640706181526184,0.23628199100494385,-0.5411620140075684,0.2134159952402115,72.30000305175781,-172.5,-22.5
403818,1.624556303024292,8.704774856567383,-1.7328201532363892,0.28201398253440857,-0.6631140112876892,1.471045970916748,57.900001525878906,-162.90000915527344,-12.300000190734863
403862,2.3034486770629883,9.04691219329834,-1.728633165359497,-0.07621999830007553,-0.7926880121231079,2.240867853164673,57.900001525878906,-167.70001220703125,-20.100000381469727
403882,2.5295467376708984,9.082202911376953,-1.8261305093765259,-0.28201398253440857,-0.7469559907913208,2.3018438816070557,48.30000305175781,-172.5,-24.900001525878906
403903,2.703606128692627,9.200037002563477,-1.7591384649276733,-0.28201398253440857,-0.914639949798584,2.5000159740448,67.5,-165.3000030517578,-14.100000381469727
403923,2.9530317783355713,9.619933128356934,-1.7537552118301392,-0.457319974899292,-0.8231759667396545,2.5533699989318848,65.10000610351562,-167.70001220703125,-24.900001525878906
403943,3.2353553771972656,10.095457077026367,-1.7711013555526733,-0.8612859845161438,-0.8079319596290588,2.1189160346984863,50.70000076293945,-165.3000030517578,-18.900001525878906
403963,3.0361738204956055,9.42733097076416,-1.5372273921966553,-1.371959924697876,-0.5792719721794128,1.0518360137939453,57.900001525878906,-165.3000030517578,-27.30000114440918
403983,2.8178515434265137,8.818421363830566,-1.3769251108169556,-1.5015339851379395,-0.36585599184036255,1.0289700031280518,55.500003814697266,-179.70001220703125,-24.30000114440918
404007,2.828019857406616,8.455946922302246,-1.001291275024414,-1.1661659479141235,0.13719600439071655,1.3186060190200806,53.10000228881836,-172.5,-17.700000762939453
404027,2.7119803428649902,8.75920581817627,-0.9815526008605957,-1.0289700031280518,0.8612859845161438,1.7759259939193726,55.500003814697266,-162.90000915527344,-21.30000114440918
404067,2.313018798828125,8.689223289489746,-1.137069821357727,-0.914639949798584,1.1509219408035278,1.7759259939193726,43.5,-167.70001220703125,-20.100000381469727
404094,2.3835997581481934,8.707765579223633,-1.0036839246749878,-0.8993960022926331,1.0365920066833496,2.0198299884796143,45.900001525878906,-184.5,-24.900001525878906
404114,2.4733211994171143,8.905152320861816,-0.9707860350608826,-0.9832379817962646,1.1204339265823364,2.2713558673858643,36.30000305175781,-162.90000915527344,-21.30000114440918
404156,2.6790823936462402,9.164746284484863,-0.8613258600234985,-0.9451279640197754,1.1356779336929321,1.3490939140319824,38.70000076293945,-167.70001220703125,-22.5
404216,2.8920211791992188,8.69640064239502,-1.0126560926437378,-0.228659987449646,1.371959924697876,0.7240899801254272,33.900001525878906,-177.3000030517578,-21.900001525878906
404277,2.7161672115325928,6.97554349899292,-1.2686612606048584,-1.067080020904541,1.5701320171356201,-4.39027214050293,29.100000381469727,-167.70001220703125,-23.100000381469727
404301,2.8513474464416504,6.328950881958008,-1.9074779748916626,1.6920839548110962,1.4939119815826416,-0.5411620140075684,43.5,-184.5,-23.700000762939453
404341,3.2628698348999023,8.950611114501953,-2.4601619243621826,0.33536797761917114,2.995445966720581,-1.3033620119094849,36.30000305175781,-182.10000610351562,-26.100000381469727
404399,3.4112093448638916,7.959488391876221,-2.5409114360809326,1.1661659479141235,2.179892063140869,-1.9436099529266357,45.900001525878906,-165.3000030517578,-27.30000114440918
404419,3.591848611831665,8.30581283569336,-2.4099180698394775,0.739333987236023,2.3018438816070557,-0.7317119836807251,45.900001525878906,-167.70001220703125,-17.100000381469727
404459,3.2209999561309814,8.753822326660156,-3.2299721240997314,0.228659987449646,3.208861827850342,-0.6783579587936401,29.100000381469727,-182.10000610351562,-23.100000381469727
404499,3.8107688426971436,9.27301025390625,-3.2126259803771973,1.0365920066833496,1.5396440029144287,-0.09908600151538849,38.70000076293945,-170.10000610351562,-17.700000762939453
404519,3.6295316219329834,8.823206901550293,-3.3131139278411865,0.19054999947547913,1.7149499654769897,-0.228659987449646,43.5,-160.5,-18.30000114440918
404540,3.5188751220703125,8.799281120300293,-3.416592597961426,0.3201240003108978,1.3186060190200806,0.13719600439071655,29.100000381469727,-170.10000610351562,-15.300000190734863
404580,3.594241142272949,8.677858352661133,-3.1617836952209473,-0.5030519962310791,0.8155539631843567,-0.114329993724823,48.30000305175781,-172.5,-22.5
404603,3.609194755554199,8.299832344055176,-2.858525276184082,-0.7317119836807251,0.6021379828453064,-0.13719600439071655,36.30000305175781,-167.70001220703125,-20.100000381469727
404623,3.5511748790740967,8.24121379852295,-2.6910452842712402,-0.9070180058479309,0.6631140112876892,-0.12195199728012085,41.10000228881836,-160.5,-16.5
404645,3.401638984680176,7.586845397949219,-2.3985533714294434,-1.0594580173492432,0.5792719721794128,-0.10670799762010574,43.5,-167.70001220703125,-14.700000762939453
404665,3.561343193054199,8.002554893493652,-2.4099180698394775,-0.7317119836807251,0.5411620140075684,0.3582339882850647,36.30000305175781,-182.10000610351562,-22.5
404685,3.6731960773468018,8.049808502197266,-2.2974672317504883,-0.8993960022926331,0.5564059615135193,0.4420759975910187,41.10000228881836,-177.3000030517578,-20.100000381469727
404705,3.7844505310058594,8.528322219848633,-2.2603821754455566,-0.8231759667396545,0.48018598556518555,0.6097599864006042,48.30000305175781,-174.90000915527344,-17.100000381469727
404725,3.5158843994140625,8.031265258789062,-2.2663636207580566,-1.3262280225753784,0.6554920077323914,0.06859800219535828,31.500001907348633,-174.90000915527344,-21.900001525878906
404745,3.568521022796631,8.35486125946045,-2.3321595191955566,-0.8460419774055481,0.3887220025062561,0.23628199100494385,33.900001525878906,-172.5,-20.700000762939453
404765,3.4680328369140625,8.460134506225586,-2.358477830886841,-0.8384199738502502,0.10670799762010574,-0.2896359860897064,29.100000381469727,-177.3000030517578,-21.900001525878906
404785,3.890321969985962,9.274805068969727,-2.7018117904663086,-0.2743920087814331,-0.22103799879550934,0.3201240003108978,41.10000228881836,-162.90000915527344,-22.5
404805,3.7330102920532227,8.85072135925293,-2.22389554977417,-0.6250039935112,-1.1737879514694214,-0.2743920087814331,38.70000076293945,-179.70001220703125,-20.100000381469727
404825,3.482388496398926,8.2681303024292,-1.9020946025848389,-1.0289700031280518,-1.1737879514694214,0.18292799592018127,36.30000305175781,-174.90000915527344,-20.100000381469727
404845,3.3370397090911865,8.65153980255127,-1.8536450862884521,-1.0594580173492432,-1.2271419763565063,0.4192099869251251,36.30000305175781,-170.10000610351562,-20.700000762939453
404909,3.2682530879974365,8.382375717163086,-1.4863852262496948,-1.371959924697876,-1.3338500261306763,-0.19817200303077698,24.30000114440918,-179.70001220703125,-14.700000762939453
404935,2.9051804542541504,8.623427391052246,-1.1705658435821533,-0.7088459730148315,-1.5015339851379395,0.5792719721794128,29.100000381469727,-170.10000610351562,-21.900001525878906
404955,2.6970267295837402,9.075623512268066,-0.9767674803733826,-0.914639949798584,-1.4481799602508545,0.8612859845161438,33.900001525878906,-162.90000915527344,-26.100000381469727
404998,2.1144354343414307,9.893284797668457,-1.205856204032898,-0.36585599184036255,-0.8384199738502502,0.4725639820098877,33.900001525878906,-182.10000610351562,-18.30000114440918
405018,2.060004472732544,10.849715232849121,-1.3362513780593872,-0.4878079891204834,-1.1585439443588257,0.44969800114631653,31.500001907348633,-172.5,-23.100000381469727
405062,1.9080760478973389,10.041624069213867,-1.1544159650802612,0.48018598556518555,-1.295740008354187,-0.36585599184036255,29.100000381469727,-167.70001220703125,-24.900001525878906
405082,1.9098705053329468,9.829283714294434,-1.2620816230773926,0.3201240003108978,-0.8993960022926331,-0.25152599811553955,19.5,-184.5,-14.700000762939453
405102,1.6419024467468262,9.449462890625,-1.4869834184646606,0.23628199100494385,-0.8155539631843567,-0.25152599811553955,29.100000381469727,-172.5,-26.700000762939453
405123,1.5659383535385132,9.059473037719727,-1.5880695581436157,0.3125019967556,-1.2271419763565063,-0.2591480016708374,45.900001525878906,-182.10000610351562,-17.100000381469727
405144,1.7489700317382812,8.644362449645996,-1.3260829448699951,0.07621999830007553,-1.7225719690322876,-0.22103799879550934,38.70000076293945,-182.10000610351562,-20.100000381469727
405164,2.0079660415649414,8.221475601196289,-1.2016692161560059,-0.2134159952402115,-1.7683039903640747,0.17530599236488342,26.700000762939453,-167.70001220703125,-21.30000114440918
405184,2.393768072128296,8.161661148071289,-0.8918311595916748,-0.15243999660015106,-1.7301939725875854,1.196653962135315,36.30000305175781,-170.10000610351562,-23.100000381469727
405248,2.6719045639038086,10.552438735961914,-1.8626172542572021,1.3414719104766846,0.05335399881005287,1.6844619512557983,36.30000305175781,-174.90000915527344,-27.30000114440918
405294,2.3387389183044434,9.809544563293457,-1.809382438659668,1.0594580173492432,0.5182960033416748,-0.9298839569091797,31.500001907348633,-177.3000030517578,-20.700000762939453
405314,2.8830490112304688,10.428024291992188,-1.5779011249542236,-0.007621999830007553,0.7545779943466187,-1.3338500261306763,31.500001907348633,-170.10000610351562,-24.900001525878906
405354,2.2430360317230225,8.43740463256836,-1.723249912261963,-0.19817200303077698,2.1570260524749756,0.4192099869251251,33.900001525878906,-174.90000915527344,-15.90000057220459
405376,2.3088319301605225,8.848328590393066,-1.9714791774749756,-0.1600620001554489,2.5000159740448,0.6478700041770935,36.30000305175781,-177.3000030517578,-18.900001525878906
405396,2.41709566116333,8.953601837158203,-2.22987699508667,0.08384199440479279,2.225623846054077,0.739333987236023,21.900001525878906,-170.10000610351562,-18.900001525878906
405416,2.801701784133911,8.841151237487793,-2.166473865509033,0.23628199100494385,1.524399995803833,0.5792719721794128,45.900001525878906,-179.70001220703125,-22.5
405439,3.031388521194458,8.691017150878906,-2.1706607341766357,0.3048799932003021,1.2347639799118042,0.6554920077323914,29.100000381469727,-172.5,-20.100000381469727
405459,3.129483938217163,8.463723182678223,-2.2406435012817383,0.3201240003108978,0.8841519951820374,0.6250039935112,26.700000762939453,-165.3000030517578,-14.700000762939453
405482,3.6714015007019043,8.379982948303223,-2.319598436355591,0.6478700041770935,0.2439039945602417,0.9298839569091797,19.5,-174.90000915527344,-21.30000114440918
405546,4.021315097808838,9.504491806030273,-2.1383612155914307,0.038109999150037766,0.26677000522613525,1.7911700010299683,29.100000381469727,-162.90000915527344,-15.300000190734863
405566,3.517678737640381,9.229944229125977,-2.4936580657958984,-0.5868939757347107,0.5640279650688171,0.510673999786377,31.500001907348633,-179.70001220703125,-22.5
405588,3.2204017639160156,8.851319313049316,-2.4194884300231934,-0.342989981174469,0.1448179930448532,0.030487999320030212,24.30000114440918,-174.90000915527344,-15.90000057220459
405610,2.837590217590332,8.708961486816406,-2.5893609523773193,-0.1448179930448532,0.18292799592018127,-0.457319974899292,12.300000190734863,-167.70001220703125,-19.5
405650,2.598931312561035,8.502004623413086,-2.7137746810913086,-0.02286599949002266,-0.18292799592018127,-1.3262280225753784,36.30000305175781,-172.5,-26.700000762939453
405672,2.504424571990967,8.038443565368652,-2.5319392681121826,0.16768398880958557,-0.571649968624115,-1.471045970916748,24.30000114440918,-170.10000610351562,-14.700000762939453
405712,3.281412363052368,8.516359329223633,-2.038471221923828,-0.5030519962310791,-0.3125019967556,-1.0365920066833496,38.70000076293945,-170.10000610351562,-21.30000114440918
405775,3.6199612617492676,9.23532772064209,-1.7980177402496338,-0.6554920077323914,0.8689079880714417,0.6936019659042358,31.500001907348633,-177.3000030517578,-24.900001525878906
405795,2.9829390048980713,9.709056854248047,-2.549285411834717,-0.19817200303077698,1.6768399477005005,0.19054999947547913,24.30000114440918,-170.10000610351562,-22.5
405857,2.4278624057769775,8.935657501220703,-2.726933717727661,0.6402480006217957,0.35061198472976685,-1.5853760242462158,38.70000076293945,-162.90000915527344,-18.900001525878906
405958,3.055314302444458,8.513368606567383,-1.7268387079238892,-1.829279899597168,0.7926880121231079,0.09908600151538849,41.10000228881836,-172.5,-20.100000381469727
405978,2.866899251937866,8.354263305664062,-1.8685986995697021,-1.5548880100250244,1.1051899194717407,0.22103799879550934,21.900001525878906,-160.5,-29.100000381469727
406022,2.9949018955230713,8.992481231689453,-1.8865429162979126,-0.17530599236488342,0.6250039935112,0.2439039945602417,19.5,-167.70001220703125,-18.900001525878906
406042,3.023014545440674,9.10493278503418,-1.9948067665100098,0.08384199440479279,0.5335400104522705,-0.2972579896450043,21.900001525878906,-179.70001220703125,-17.700000762939453
406106,2.9201340675354004,8.988892555236816,-2.2549989223480225,0.44969800114631653,-0.22103799879550934,-0.7621999979019165,38.70000076293945,-170.10000610351562,-21.900001525878906
406497,2.5762016773223877,9.086389541625977,-2.1712589263916016,-0.17530599236488342,0.571649968624115,-0.8765299916267395,45.900001525878906,-170.10000610351562,-18.900001525878906
406518,2.4272642135620117,8.627016067504883,-2.1718571186065674,-0.33536797761917114,0.685979962348938,-0.8841519951820374,45.900001525878906,-179.70001220703125,-14.700000762939453
406560,2.557659387588501,9.153980255126953,-2.2645692825317383,0.08384199440479279,0.6097599864006042,0.2972579896450043,33.900001525878906,-167.70001220703125,-15.90000057220459
406580,2.534331798553467,9.08878231048584,-2.277728319168091,-0.48018598556518555,0.6097599864006042,0.07621999830007553,55.500003814697266,-153.3000030517578,-18.900001525878906
406602,2.42008638381958,8.57497787475586,-2.211334466934204,-0.7926880121231079,0.6554920077323914,-0.02286599949002266,43.5,-172.5,-19.5
406622,2.5762016773223877,9.2999267578125,-2.148529529571533,-0.739333987236023,0.38109999895095825,0.6707359552383423,41.10000228881836,-167.70001220703125,-18.900001525878906
406662,2.5851738452911377,9.237720489501953,-2.0318915843963623,-1.3567159175872803,0.3887220025062561,0.228659987449646,50.70000076293945,-172.5,-24.900001525878906
406723,2.8268237113952637,8.995471954345703,-1.6873613595962524,-0.8841519951820374,0.030487999320030212,1.013725996017456,36.30000305175781,-170.10000610351562,-17.100000381469727
406794,2.4164977073669434,9.197046279907227,-1.9337961673736572,-0.7850660085678101,0.2439039945602417,0.19054999947547913,38.70000076293945,-167.70001220703125,-18.900001525878906
406814,2.1796329021453857,8.811244010925293,-2.0372750759124756,-0.5030519962310791,0.09146399796009064,-0.3582339882850647,36.30000305175781,-177.3000030517578,-21.900001525878906
406854,2.101874351501465,8.90156364440918,-2.1383612155914307,0.060975998640060425,-0.16768398880958557,-0.5182960033416748,38.70000076293945,-177.3000030517578,-22.5
406874,2.2005679607391357,9.2042236328125,-2.169464588165283,0.33536797761917114,-0.2591480016708374,-0.510673999786377,33.900001525878906,-184.5,-23.100000381469727
406894,2.2047550678253174,9.298730850219727,-2.080341339111328,0.060975998640060425,-0.07621999830007553,-0.7240899801254272,53.10000228881836,-177.3000030517578,-16.5
406915,2.2484195232391357,9.27001953125,-2.0067696571350098,-0.25152599811553955,0.28201398253440857,-0.8384199738502502,41.10000228881836,-174.90000915527344,-16.5
406935,2.0970892906188965,9.179101943969727,-2.062397003173828,-0.510673999786377,0.6707359552383423,-0.7926880121231079,31.500001907348633,-165.3000030517578,-18.30000114440918
406957,1.9912179708480835,9.07083797454834,-2.036078691482544,-0.5792719721794128,0.7774440050125122,-0.7012239694595337,31.500001907348633,-184.5,-20.700000762939453
406997,2.0791449546813965,9.074426651000977,-1.8889354467391968,-0.5640279650688171,0.685979962348938,-0.3887220025062561,38.70000076293945,-174.90000915527344,-23.100000381469727
407033,2.2902894020080566,8.75023365020752,-1.8147658109664917,-0.49542999267578125,0.426831990480423,0.13719600439071655,62.70000076293945,-186.90000915527344,-20.100000381469727
407053,2.4374325275421143,8.72929859161377,-1.836298942565918,-0.33536797761917114,0.228659987449646,0.426831990480423,43.5,-174.90000915527344,-26.100000381469727
407093,2.787346363067627,8.933265686035156,-1.833308219909668,0.02286599949002266,-0.030487999320030212,0.8689079880714417,36.30000305175781,-182.10000610351562,-24.30000114440918
407116,2.924320936203003,8.968555450439453,-1.8446729183197021,0.007621999830007553,-0.04573199898004532,0.8079319596290588,50.70000076293945,-177.3000030517578,-22.5
407136,2.9261155128479004,8.912330627441406,-1.9056835174560547,-0.060975998640060425,0,0.6936019659042358,29.100000381469727,-165.3000030517578,-20.700000762939453
407160,2.9584150314331055,8.903956413269043,-2.0007882118225098,-0.02286599949002266,-0.04573199898004532,0.3048799932003021,21.900001525878906,-172.5,-24.900001525878906
407180,2.9733686447143555,9.211999893188477,-2.098285436630249,0.2439039945602417,-0.07621999830007553,0.2591480016708374,41.10000228881836,-170.10000610351562,-19.5
407200,2.9667892456054688,9.28617000579834,-2.2849061489105225,0.015243999660015106,-0.2591480016708374,-0.23628199100494385,36.30000305175781,-177.3000030517578,-24.30000114440918
407220,2.8872361183166504,8.724513053894043,-2.1945865154266357,-0.10670799762010574,-0.28201398253440857,-0.4878079891204834,36.30000305175781,-167.70001220703125,-21.30000114440918
407240,2.822636604309082,8.781336784362793,-2.2376527786254883,0.2134159952402115,-0.4039659798145294,-0.28201398253440857,38.70000076293945,-165.3000030517578,-14.700000762939453
407260,2.828019857406616,8.869263648986816,-2.1778385639190674,0.06859800219535828,-0.28201398253440857,-0.1295740008354187,53.10000228881836,-158.10000610351562,-15.300000190734863
407284,2.765813112258911,9.00803279876709,-2.24183988571167,0.04573199898004532,-0.17530599236488342,-0.17530599236488342,38.70000076293945,-174.90000915527344,-19.5
407305,2.6629323959350586,8.79509449005127,-2.119220495223999,-0.1448179930448532,-0.038109999150037766,-0.26677000522613525,43.5,-165.3000030517578,-17.700000762939453
407325,2.6013238430023193,8.73827075958252,-2.158099889755249,0.02286599949002266,0.3734779953956604,-0.1600620001554489,33.900001525878906,-184.5,-18.30000114440918
407345,2.6312308311462402,8.801673889160156,-2.2107365131378174,0.17530599236488342,0.3887220025062561,-0.04573199898004532,33.900001525878906,-177.3000030517578,-19.5
407387,2.643791913986206,8.98829460144043,-2.1886050701141357,0.2972579896450043,0.228659987449646,-0.2743920087814331,43.5,-172.5,-17.700000762939453
407407,2.6216607093811035,8.830384254455566,-2.184418201446533,0.3048799932003021,0.5640279650688171,-0.7850660085678101,26.700000762939453,-174.90000915527344,-20.700000762939453
407427,2.8238329887390137,8.84473991394043,-2.1652774810791016,0.8079319596290588,0.4344539940357208,-0.7012239694595337,43.5,-174.90000915527344,-20.100000381469727
407447,2.7526538372039795,8.722121238708496,-2.1598942279815674,0.4344539940357208,0.7545779943466187,-0.6631140112876892,33.900001525878906,-172.5,-17.700000762939453
407470,2.7771778106689453,9.186878204345703,-2.4733211994171143,0.39634400606155396,0.6478700041770935,-0.25152599811553955,21.900001525878906,-170.10000610351562,-20.100000381469727
407490,2.744878053665161,8.924293518066406,-2.471526861190796,-0.05335399881005287,0.26677000522613525,-0.2743920087814331,38.70000076293945,-177.3000030517578,-23.700000762939453
407555,2.595940589904785,9.048707008361816,-2.757439136505127,-0.7164679765701294,1.1204339265823364,-0.060975998640060425,38.70000076293945,-165.3000030517578,-17.100000381469727
407580,2.7975146770477295,8.722719192504883,-1.9660959243774414,-0.4344539940357208,0.09908600151538849,-0.5868939757347107,26.700000762939453,-174.90000915527344,-12.90000057220459
407621,2.2585878372192383,8.747840881347656,-2.42008638381958,-0.8155539631843567,0.4344539940357208,0.6250039935112,43.5,-177.3000030517578,-22.5
407641,2.5702202320098877,8.789710998535156,-2.345916748046875,-0.9832379817962646,0.07621999830007553,1.5320219993591309,33.900001525878906,-162.90000915527344,-21.900001525878906
407704,2.6270439624786377,8.695204734802246,-2.1921939849853516,-2.03507399559021,0.5182960033416748,2.294221878051758,24.30000114440918,-165.3000030517578,-16.5
407747,2.938676357269287,8.896778106689453,-1.7513625621795654,-1.8673899173736572,0.8993960022926331,2.782029867172241,14.700000762939453,-165.3000030517578,-23.700000762939453
407767,3.118119239807129,9.057679176330566,-1.627547025680542,-1.875011920928955,1.0365920066833496,2.652456045150757,17.100000381469727,-184.5,-22.5
407787,3.4237704277038574,9.092370986938477,-1.5019370317459106,-2.042695999145508,1.3186060190200806,2.3551979064941406,24.30000114440918,-179.70001220703125,-23.100000381469727
407827,3.326871156692505,8.50918197631836,-1.2656705379486084,-1.9436099529266357,1.7301939725875854,2.240867853164673,2.700000047683716,-177.3000030517578,-27.900001525878906
407959,3.6821682453155518,8.713149070739746,-1.4935630559921265,-0.9298839569091797,0.2591480016708374,1.1814099550247192,2.700000047683716,-174.90000915527344,-35.10000228881836
407999,3.71386981010437,8.709559440612793,-1.3793176412582397,-0.8841519951820374,-0.22103799879550934,1.1128119230270386,-14.100000381469727,-186.90000915527344,-28.500001907348633
408019,3.7814598083496094,8.785524368286133,-1.3422328233718872,-0.9527499675750732,-0.22103799879550934,0.967993974685669,2.700000047683716,-174.90000915527344,-26.700000762939453
408062,3.746169328689575,8.710158348083496,-1.3571864366531372,-0.7698220014572144,-0.22103799879550934,0.3277460038661957,-9.300000190734863,-170.10000610351562,-23.700000762939453
408082,3.8430685997009277,8.813636779785156,-1.3841028213500977,-0.6250039935112,-0.3277460038661957,0.3048799932003021,-2.1000001430511475,-174.90000915527344,-30.900001525878906
408146,3.7629175186157227,8.487648963928223,-1.3230922222137451,-0.739333987236023,-0.2896359860897064,0.7926880121231079,-6.900000095367432,-172.5,-18.30000114440918
408258,4.033876419067383,8.375197410583496,-1.1508270502090454,-0.7164679765701294,-0.35061198472976685,-0.5411620140075684,-6.900000095367432,-170.10000610351562,-22.5
408377,3.910658836364746,8.647353172302246,-1.3529994487762451,-0.1448179930448532,0.2591480016708374,-0.05335399881005287,-11.700000762939453,-179.70001220703125,-21.900001525878906
408662,3.8496482372283936,8.74903678894043,-1.3811120986938477,0.04573199898004532,0.015243999660015106,-0.2972579896450043,0.30000001192092896,-172.5,-29.700000762939453
408683,3.7814598083496094,8.75800895690918,-1.4516929388046265,-0.015243999660015106,0.038109999150037766,-0.35061198472976685,0.30000001192092896,-165.3000030517578,-29.100000381469727
408723,3.6773829460144043,8.718531608581543,-1.4905723333358765,0.060975998640060425,-0.09908600151538849,-0.510673999786377,-2.1000001430511475,-174.90000915527344,-27.30000114440918
408743,3.7001123428344727,8.758607864379883,-1.4666465520858765,0.015243999660015106,-0.1600620001554489,-0.5945159792900085,-2.1000001430511475,-170.10000610351562,-18.30000114440918
408763,3.762319326400757,8.76099967956543,-1.420589566230774,-0.07621999830007553,-0.09908600151538849,-0.6326259970664978,0.30000001192092896,-177.3000030517578,-27.30000114440918
408783,3.7150659561157227,8.64555835723877,-1.3721399307250977,-0.23628199100494385,0.030487999320030212,-0.6097599864006042,-14.100000381469727,-179.70001220703125,-23.700000762939453
408844,3.6223537921905518,8.745448112487793,-1.4636558294296265,-0.17530599236488342,0.2439039945602417,-0.342989981174469,-14.100000381469727,-170.10000610351562,-27.30000114440918
408896,3.603213310241699,8.740663528442383,-1.4857871532440186,-0.08384199440479279,0.2591480016708374,-0.39634400606155396,7.500000476837158,-174.90000915527344,-28.500001907348633
408916,3.639699935913086,8.743654251098633,-1.4863852262496948,-0.1600620001554489,0.22103799879550934,-0.3887220025062561,12.300000190734863,-174.90000915527344,-27.30000114440918
408959,3.621157646179199,8.665895462036133,-1.4391319751739502,-0.060975998640060425,0.13719600439071655,-0.2439039945602417,-4.5,-182.10000610351562,-17.700000762939453
408979,3.642690658569336,8.694605827331543,-1.445711612701416,-0.05335399881005287,0.09908600151538849,-0.2591480016708374,2.700000047683716,-182.10000610351562,-24.900001525878906
409001,3.693532943725586,8.83397388458252,-1.4905723333358765,-0.030487999320030212,0.05335399881005287,-0.2591480016708374,5.100000381469727,-174.90000915527344,-19.5
409042,3.746767520904541,8.796290397644043,-1.4768149852752686,0.07621999830007553,0.05335399881005287,-0.25152599811553955,-14.100000381469727,-184.5,-30.30000114440918
409072,3.6857569217681885,8.729896545410156,-1.516890525817871,-0.2591480016708374,0.13719600439071655,-0.44969800114631653,12.300000190734863,-170.10000610351562,-18.900001525878906
409092,3.6199612617492676,8.637184143066406,-1.505525827407837,-0.09908600151538849,0.17530599236488342,-0.3887220025062561,0.30000001192092896,-167.70001220703125,-26.100000381469727
409137,3.7001123428344727,8.77595329284668,-1.428963541984558,-0.09146399796009064,0.3277460038661957,-0.20579399168491364,-2.1000001430511475,-177.3000030517578,-29.100000381469727
409157,3.594839334487915,8.76399040222168,-1.5713216066360474,-0.25152599811553955,0.4725639820098877,-0.2591480016708374,-6.900000095367432,-184.5,-26.100000381469727
409177,3.606204032897949,8.695204734802246,-1.5575642585754395,-0.16768398880958557,0.3734779953956604,-0.2439039945602417,-9.300000190734863,-177.3000030517578,-26.100000381469727
409199,3.612185478210449,8.646156311035156,-1.5007407665252686,-0.16768398880958557,0.3201240003108978,-0.19817200303077698,2.700000047683716,-174.90000915527344,-22.5
409220,3.7090845108032227,8.76399040222168,-1.4696372747421265,-0.17530599236488342,0.2591480016708374,-0.08384199440479279,7.500000476837158,-170.10000610351562,-22.5
409240,3.6947290897369385,8.656325340270996,-1.4720298051834106,-0.35061198472976685,0.35061198472976685,-0.060975998640060425,-9.300000190734863,-172.5,-24.30000114440918
409260,3.6917383670806885,8.658119201660156,-1.5043295621871948,-0.25152599811553955,0.2743920087814331,0.09146399796009064,-6.900000095367432,-189.3000030517578,-23.100000381469727
409320,3.8532369136810303,8.714942932128906,-1.3565882444381714,-0.38109999895095825,0.2743920087814331,0.030487999320030212,0.30000001192092896,-179.70001220703125,-24.900001525878906
409341,3.884340524673462,8.764589309692383,-1.406832218170166,-0.44969800114631653,0.33536797761917114,0.038109999150037766,0.30000001192092896,-172.5,-21.30000114440918
409402,3.913649559020996,8.63060474395752,-1.3500087261199951,-0.3582339882850647,0.25152599811553955,0.02286599949002266,7.500000476837158,-179.70001220703125,-21.900001525878906
409559,4.017726421356201,8.357254028320312,-1.4726279973983765,-0.2591480016708374,-0.426831990480423,-0.1600620001554489,14.700000762939453,-170.10000610351562,-21.30000114440918
409579,4.086512565612793,8.64675521850586,-1.406832218170166,-0.015243999660015106,-0.5945159792900085,0,2.700000047683716,-186.90000915527344,-23.700000762939453
409619,4.118812561035156,8.779542922973633,-1.1915007829666138,-0.49542999267578125,-0.3125019967556,-0.8307979702949524,9.90000057220459,-182.10000610351562,-22.5
409675,4.041053771972656,8.499013900756836,-1.193893313407898,0.114329993724823,-0.33536797761917114,-1.8216580152511597,9.90000057220459,-177.3000030517578,-27.900001525878906
409696,3.9955949783325195,8.43142318725586,-1.2549039125442505,0.6021379828453064,-0.3201240003108978,-1.6387299299240112,12.300000190734863,-182.10000610351562,-25.500001907348633
409737,3.4740142822265625,7.487553596496582,-1.2907925844192505,0.5487840175628662,-0.5030519962310791,-1.875011920928955,0.30000001192092896,-179.70001220703125,-24.30000114440918
409757,3.1904945373535156,6.714753150939941,-1.119125485420227,0.5792719721794128,-0.5792719721794128,-1.9131219387054443,2.700000047683716,-165.3000030517578,-28.500001907348633
409778,3.1516153812408447,6.813446521759033,-1.1143403053283691,0.8307979702949524,-0.5792719721794128,-1.600619912147522,12.300000190734863,-165.3000030517578,-22.5
409800,2.47990083694458,5.676376819610596,-0.9175513386726379,-0.060975998640060425,-0.7698220014572144,-2.6067240238189697,17.100000381469727,-165.3000030517578,-27.900001525878906
409820,1.7962234020233154,3.8735737800598145,-0.4725329577922821,-0.6478700041770935,-1.0061039924621582,-3.5366079807281494,21.900001525878906,-179.70001220703125,-24.900001525878906
409840,1.2662686109542847,2.324383497238159,-0.3427359163761139,-0.800309956073761,-0.1600620001554489,-2.492393970489502,19.5,-182.10000610351562,-17.100000381469727
409860,1.636519193649292,3.768300771713257,-0.7578471302986145,-0.6021379828453064,0.9375059604644775,1.9512319564819336,21.900001525878906,-184.5,-14.700000762939453
409880,2.536126136779785,7.321269989013672,-1.4851889610290527,-0.3582339882850647,2.179892063140869,5.525949954986572,17.100000381469727,-177.3000030517578,-27.30000114440918
409900,3.866396188735962,11.460419654846191,-2.408721685409546,-0.13719600439071655,3.3231918811798096,7.972611904144287,5.100000381469727,-179.70001220703125,-20.100000381469727
409920,3.8436667919158936,14.25374698638916,-3.4411165714263916,-1.3872039318084717,3.0640439987182617,5.823207855224609,5.100000381469727,-174.90000915527344,-27.30000114440918
409980,10.931660652160645,19.573631286621094,-6.7410712242126465,2.385685920715332,5.800342082977295,7.942123889923096,-11.700000762939453,-172.5,-30.30000114440918
410058,5.376707077026367,13.010208129882812,-3.1037638187408447,-1.6158639192581177,-3.7347798347473145,-8.521395683288574,5.100000381469727,-177.3000030517578,-18.900001525878906
410099,0.42169079184532166,0.3020622134208679,1.1639862060546875,-1.4939119815826416,-4.626554012298584,-15.13729190826416,31.500001907348633,-179.70001220703125,-24.30000114440918
410119,-1.4750205278396606,-2.7652149200439453,1.1562104225158691,-2.9725799560546875,0.038109999150037766,-8.513773918151855,36.30000305175781,-172.5,-21.30000114440918
410159,0.4109242260456085,0.3355582058429718,0.46415895223617554,1.1585439443588257,-1.1737879514694214,0.36585599184036255,50.70000076293945,-165.3000030517578,-21.30000114440918
410179,1.1723601818084717,1.7178666591644287,0.1824336051940918,1.6234859228134155,-0.967993974685669,0.7088459730148315,45.900001525878906,-179.70001220703125,-22.5
410220,0.016748003661632538,-0.4426257908344269,0.49645867943763733,0.08384199440479279,-1.0823240280151367,-1.4862899780273438,41.10000228881836,-167.70001220703125,-26.700000762939453
410240,-0.19798532128334045,-0.2679680585861206,0.4043446481227875,0.5945159792900085,-0.9375059604644775,-1.021347999572754,41.10000228881836,-174.90000915527344,-22.5
410284,-0.09211401641368866,-0.23447205126285553,0.4474109411239624,-1.0747020244598389,-0.8460419774055481,-2.294221878051758,57.900001525878906,-177.3000030517578,-16.5
410304,-0.10946016013622284,-1.0353854894638062,0.6465925574302673,-1.5472660064697266,-0.7012239694595337,-2.1570260524749756,53.10000228881836,-182.10000610351562,-21.900001525878906
410324,-0.023327575996518135,-1.4044396877288818,0.8918311595916748,-1.829279899597168,-0.5182960033416748,-0.19054999947547913,48.30000305175781,-172.5,-21.900001525878906
410344,-0.34213778376579285,-0.6005355715751648,1.0874239206314087,-2.0960500240325928,0.8612859845161438,3.163130044937134,60.30000305175781,-182.10000610351562,-26.700000762939453
410367,0.2823234796524048,4.017127990722656,-0.5443100929260254,-0.19817200303077698,3.902463912963867,9.016825675964355,43.5,-177.3000030517578,-21.900001525878906
410387,1.8871411085128784,11.554925918579102,-2.301654100418091,2.6677000522613525,7.057971954345703,17.126632690429688,26.700000762939453,-177.3000030517578,-26.700000762939453
410448,13.31047534942627,19.599349975585938,-6.363643169403076,4.847591876983643,3.3765459060668945,1.067080020904541,-9.300000190734863,-174.90000915527344,-22.5
410468,19.599349975585938,19.599349975585938,-9.192859649658203,-0.030487999320030212,4.733262062072754,14.344603538513184,-11.700000762939453,-167.70001220703125,-21.900001525878906
410511,13.72977352142334,19.599349975585938,-5.183506965637207,-0.1448179930448532,-5.114361763000488,-7.78206205368042,-16.5,-182.10000610351562,-24.900001525878906
410532,5.799594402313232,14.677830696105957,-2.3566832542419434,-1.6768399477005005,-3.96343994140625,-12.850691795349121,-16.5,-162.90000915527344,-22.5
410552,1.8985058069229126,6.598713397979736,-0.8463723063468933,-0.28201398253440857,-4.93143367767334,-21.39495277404785,21.900001525878906,-162.90000915527344,-23.700000762939453
410572,-1.4738242626190186,-0.8996070027351379,0.403148353099823,0.5259180068969727,-3.4222779273986816,-22.02758026123047,41.10000228881836,-170.10000610351562,-24.900001525878906
410636,-0.06160872429609299,0.029907148331403732,-0.4444202184677124,5.525949954986572,-1.7301939725875854,2.5152599811553955,65.10000610351562,-162.90000915527344,-15.90000057220459
410656,1.2746427059173584,3.4028353691101074,-0.3840077817440033,4.344540119171143,-1.2118979692459106,3.5213639736175537,50.70000076293945,-167.70001220703125,-21.30000114440918
410676,0.6974347233772278,2.622856855392456,-0.34213778376579285,1.0975680351257324,0.22103799879550934,-1.4405579566955566,53.10000228881836,-182.10000610351562,-16.5
410698,-0.43784064054489136,-0.355895072221756,-0.09749730676412582,-0.12195199728012085,-0.08384199440479279,-3.757645845413208,69.9000015258789,-170.10000610351562,-23.100000381469727
410759,-0.7261455655097961,-0.4204944968223572,-0.2356683313846588,-1.4939119815826416,0.8689079880714417,-0.3734779953956604,48.30000305175781,-170.10000610351562,-20.100000381469727
410819,-0.43365365266799927,0.33017492294311523,0.3337637782096863,-3.4680099487304688,0.2439039945602417,1.9512319564819336,60.30000305175781,-170.10000610351562,-23.100000381469727
410839,-0.4444202184677124,-1.0856294631958008,0.724949300289154,-4.10825777053833,0.17530599236488342,0.8231759667396545,55.500003814697266,-172.5,-21.900001525878906
410879,1.132882833480835,3.8861348628997803,-0.00717771565541625,-0.2134159952402115,2.3094658851623535,7.652487754821777,45.900001525878906,-174.90000915527344,-19.5
410899,2.059406280517578,9.203027725219727,-0.8810645937919617,-0.38109999895095825,5.350644111633301,12.82020378112793,41.10000228881836,-177.3000030517578,-17.100000381469727
410922,9.67257022857666,19.599349975585938,-6.394148349761963,-0.015243999660015106,11.044278144836426,25.495590209960938,-2.1000001430511475,-186.90000915527344,-21.900001525878906
410942,14.615623474121094,19.548507690429688,-4.650561809539795,-4.1387457847595215,-0.2134159952402115,9.161643981933594,-21.30000114440918,-182.10000610351562,-27.900001525878906
410984,19.599349975585938,19.599349975585938,-9.040332794189453,-2.2484898567199707,12.035138130187988,13.064107894897461,-21.30000114440918,-165.3000030517578,-27.900001525878906
411004,19.01017951965332,19.599349975585938,-8.869263648986816,0.23628199100494385,-3.818621873855591,-2.5533699989318848,-23.700000762939453,-162.90000915527344,-32.70000076293945
411067,5.644077301025391,12.203910827636719,-3.4805939197540283,0.5335400104522705,-6.775958061218262,-17.27907371520996,5.100000381469727,-179.70001220703125,-23.100000381469727
411176,2.1114447116851807,2.196381092071533,0.5837875604629517,2.545747995376587,0.9984819889068604,0.46494197845458984,57.900001525878906,-174.90000915527344,-24.30000114440918
411236,0.5024400949478149,-0.30565106868743896,0.9444677233695984,0.44969800114631653,0.48018598556518555,-0.2743920087814331,57.900001525878906,-162.90000915527344,-17.700000762939453
411280,-0.09510473161935806,-0.29368820786476135,0.3648672103881836,-0.33536797761917114,0.853663980960846,-2.3170878887176514,55.500003814697266,-165.3000030517578,-18.900001525878906
411359,0.7458842992782593,-0.9941136240959167,0.5784042477607727,-1.707327961921692,1.829279899597168,0.39634400606155396,65.10000610351562,-165.3000030517578,-17.700000762939453
411379,0.602928102016449,0.7201641201972961,0.4019520878791809,-1.2042759656906128,3.4680099487304688,2.8048958778381348,77.10000610351562,-170.10000610351562,-18.30000114440918
411419,1.3799158334732056,12.848709106445312,-4.555456638336182,1.067080020904541,11.585439682006836,13.681489944458008,48.30000305175781,-174.90000915527344,-23.100000381469727
411460,12.238005638122559,19.537742614746094,-5.461045265197754,-4.618931770324707,-5.304912090301514,10.465005874633789,0.30000001192092896,-174.90000915527344,-18.900001525878906
411500,17.09911346435547,19.599349975585938,-9.502696990966797,0.7164679765701294,14.984851837158203,6.844555854797363,-4.5,-167.70001220703125,-15.300000190734863
411539,11.293537139892578,19.599349975585938,-6.947430610656738,0.5792719721794128,-9.222620010375977,-5.807963848114014,-11.700000762939453,-184.5,-21.30000114440918
411559,7.824308395385742,19.580209732055664,-4.256385326385498,-0.3582339882850647,-5.632658004760742,-7.324741840362549,5.100000381469727,-170.10000610351562,-19.5
411600,0.21712589263916016,3.597231864929199,-1.516890525817871,0.2972579896450043,-8.35371208190918,-25.846200942993164,45.900001525878906,-174.90000915527344,-16.5
411620,-3.6199612617492676,-3.5099029541015625,0.7518657445907593,-0.10670799762010574,-5.7164998054504395,-19.82482147216797,48.30000305175781,-170.10000610351562,-17.700000762939453
411640,-2.852543830871582,-3.993800640106201,-0.1812373250722885,-2.8811159133911133,0.7240899801254272,-4.458869934082031,62.70000076293945,-160.5,-9.90000057220459
411660,-0.14953574538230896,-0.03768300637602806,-0.5371323823928833,-1.0899460315704346,-1.2804960012435913,1.9054999351501465,65.10000610351562,-165.3000030517578,-18.30000114440918
411680,0.9468603134155273,1.1562104225158691,0.06220686808228493,1.6082419157028198,-2.126538038253784,1.2118979692459106,74.70000457763672,-177.3000030517578,-20.100000381469727
411700,1.5701253414154053,1.4606651067733765,-0.1722651720046997,0.4344539940357208,-0.9984819889068604,1.6844619512557983,74.70000457763672,-158.10000610351562,-15.90000057220459
411723,0.7991189956665039,-0.28292161226272583,0.03648672252893448,-1.1128119230270386,-0.853663980960846,0.6021379828453064,69.9000015258789,-172.5,-10.5
411743,0.7369121313095093,-1.0963960886001587,0.3959706425666809,-0.800309956073761,-1.425313949584961,1.600619912147522,60.30000305175781,-167.70001220703125,-18.30000114440918
411763,0.7482768297195435,-0.1573116034269333,0.3134269118309021,-0.6783579587936401,-0.6478700041770935,1.935987949371338,62.70000076293945,-170.10000610351562,-15.300000190734863
411823,1.0802462100982666,-0.08015115559101105,0.7955301403999329,-2.3628199100494385,0.030487999320030212,1.7225719690322876,62.70000076293945,-179.70001220703125,-16.5
411844,0.9863377809524536,-0.14953574538230896,0.5855819582939148,-2.8125178813934326,0.7088459730148315,1.6311079263687134,67.5,-167.70001220703125,-19.5
411865,0.5478989481925964,-1.0963960886001587,0.8397927284240723,-2.835383892059326,1.1280559301376343,1.5548880100250244,55.500003814697266,-174.90000915527344,-15.300000190734863
411886,1.0611056089401245,2.2095401287078857,0.18662060797214508,-0.09146399796009064,3.0716660022735596,6.349125862121582,53.10000228881836,-174.90000915527344,-21.30000114440918
411950,8.018106460571289,19.599349975585938,-6.857110977172852,-1.189031958580017,10.221101760864258,22.477277755737305,12.300000190734863,-172.5,-17.100000381469727
411970,12.684220314025879,19.549705505371094,-6.090291500091553,-3.4222779273986816,3.0792880058288574,10.78512954711914,12.300000190734863,-179.70001220703125,-20.100000381469727
411993,13.204604148864746,19.599349975585938,-7.791410446166992,3.910085916519165,5.007653713226318,4.169233798980713,-9.300000190734863,-162.90000915527344,-18.30000114440918
412013,18.278650283813477,19.599349975585938,-9.28317928314209,-2.134160041809082,7.583889961242676,7.896391868591309,-21.30000114440918,-177.3000030517578,-26.700000762939453
412033,15.923164367675781,19.599349975585938,-9.25626277923584,0.5259180068969727,-2.843005895614624,-2.1036720275878906,-4.5,-172.5,-20.100000381469727
412057,9.590025901794434,19.599349975585938,-5.849240303039551,0.6631140112876892,-8.89487361907959,-6.9360198974609375,-2.1000001430511475,-174.90000915527344,-20.700000762939453
412077,5.347996234893799,15.136606216430664,-4.716357231140137,1.5701320171356201,-8.757678031921387,-14.070211410522461,-11.700000762939453,-170.10000610351562,-24.900001525878906
412137,-2.507415294647217,-4.53751277923584,1.1418548822402954,0.3887220025062561,-3.3917899131774902,-10.548848152160645,38.70000076293945,-170.10000610351562,-19.5
412157,0.4043446481227875,-0.48629024624824524,-0.2548089027404785,-2.073184013366699,-1.1280559301376343,0.8993960022926331,62.70000076293945,-160.5,-20.100000381469727
412177,1.2453336715698242,1.2507169246673584,0.7949320077896118,0.28201398253440857,-2.5686140060424805,0.1600620001554489,62.70000076293945,-170.10000610351562,-23.700000762939453
412197,1.3733363151550293,0.599937379360199,0.47612181305885315,-0.030487999320030212,0.2972579896450043,-0.6250039935112,57.900001525878906,-186.90000915527344,-15.90000057220459
412217,1.0993868112564087,0.7255474328994751,0.33795076608657837,-0.7774440050125122,0.44969800114631653,0.6326259970664978,67.5,-172.5,-18.900001525878906
412239,0.8972144722938538,-0.07476787269115448,0.6711164116859436,-1.371959924697876,0.342989981174469,0.7012239694595337,72.30000305175781,-162.90000915527344,-18.900001525878906
412260,0.8828590512275696,-0.5245713591575623,1.2848111391067505,-1.9131219387054443,0.19054999947547913,1.242385983467102,62.70000076293945,-182.10000610351562,-15.90000057220459
412280,0.5987411141395569,-0.2177240401506424,1.3476160764694214,-2.39330792427063,1.707327961921692,1.577754020690918,48.30000305175781,-177.3000030517578,-17.100000381469727
412300,-0.08074930310249329,0.025122005492448807,0.6298445463180542,-2.0960500240325928,2.545747995376587,0.48018598556518555,77.10000610351562,-165.3000030517578,-10.5
412320,-0.7135845422744751,-0.611900269985199,0.2631829082965851,-1.021347999572754,1.2652519941329956,-1.577754020690918,65.10000610351562,-172.5,-23.700000762939453
412340,-0.5736191272735596,-0.8224465847015381,0.36905422806739807,-0.6783579587936401,0.49542999267578125,-1.6234859228134155,45.900001525878906,-174.90000915527344,-14.700000762939453
412360,-0.14235801994800568,-1.0688815116882324,0.7566508650779724,-0.4420759975910187,-0.07621999830007553,-0.9984819889068604,60.30000305175781,-170.10000610351562,-18.30000114440918
412380,0.27275320887565613,-0.26138848066329956,0.809287428855896,-0.19054999947547913,0.7621999979019165,0.9908599853515625,67.5,-182.10000610351562,-12.300000190734863
412400,1.85843026638031,4.206141471862793,-0.7925394177436829,2.14178204536438,3.6356940269470215,8.414688110351562,67.5,-172.5,-22.5
412420,2.4673397541046143,7.957096099853516,-0.5784042477607727,-1.3109840154647827,3.902463912963867,9.603719711303711,53.10000228881836,-170.10000610351562,-16.5
412441,5.705685615539551,17.379642486572266,-5.5280375480651855,1.1204339265823364,14.382713317871094,22.309593200683594,19.5,-177.3000030517578,-21.30000114440918
412461,8.812440872192383,19.599349975585938,-6.623237133026123,-3.246971845626831,13.422341346740723,21.631235122680664,12.300000190734863,-172.5,-26.100000381469727
412481,10.959774017333984,19.547910690307617,-5.460447311401367,-0.8765299916267395,1.1585439443588257,6.844555854797363,2.700000047683716,-160.5,-18.30000114440918
412501,15.1760835647583,19.598154067993164,-8.77415943145752,3.208861827850342,8.986337661743164,10.579336166381836,-11.700000762939453,-172.5,-20.100000381469727
412524,19.148948669433594,19.599349975585938,-8.908740997314453,-1.8978779315948486,3.1707520484924316,4.375028133392334,-11.700000762939453,-172.5,-25.500001907348633
412544,14.395506858825684,19.599349975585938,-7.446281909942627,1.425313949584961,-6.714982032775879,-8.147917747497559,-28.500001907348633,-165.3000030517578,-20.700000762939453
412564,10.55004596710205,19.599349975585938,-4.9167351722717285,-0.12195199728012085,-7.980233669281006,-8.727190017700195,0.30000001192092896,-155.70001220703125,-21.30000114440918
412584,6.221284866333008,16.510540008544922,-3.5930447578430176,0.3125019967556,-7.1951680183410645,-15.838515281677246,12.300000190734863,-172.5,-21.30000114440918
412604,2.47391939163208,7.555741786956787,-1.7250443696975708,0.6783579587936401,-9.649452209472656,-24.923938751220703,19.5,-179.70001220703125,-23.700000762939453
412624,-0.9354956150054932,-0.8583351373672485,0.7865580320358276,1.1128119230270386,-9.07017993927002,-26.074861526489258,53.10000228881836,-170.10000610351562,-23.100000381469727
412646,-3.1910927295684814,-5.480783939361572,0.9743748903274536,0.41158798336982727,-1.935987949371338,-12.210443496704102,62.70000076293945,-172.5,-19.5
412666,-0.6268538236618042,-1.729231357574463,-0.22908875346183777,-1.2347639799118042,0.5259180068969727,1.7378159761428833,74.70000457763672,-172.5,-13.500000953674316
412687,0.34692293405532837,1.8500561714172363,-0.5144029259681702,2.187514066696167,0.22103799879550934,2.987823963165283,86.70000457763672,-172.5,-20.100000381469727
412749,-0.04366443678736687,-1.120919942855835,-0.13577845692634583,0.5182960033416748,-1.196653962135315,-1.021347999572754,69.9000015258789,-170.10000610351562,-22.5
412799,-0.13637660443782806,0.46415895223617554,0.07716044038534164,-1.0975680351257324,0.4725639820098877,0.7698220014572144,77.10000610351562,-150.90000915527344,-23.100000381469727
412820,-0.3086417615413666,-0.26437920331954956,0.04844957962632179,-2.1722700595855713,0.8384199738502502,0.1600620001554489,69.9000015258789,-172.5,-16.5
412860,-0.4844958186149597,-1.2453336715698242,0.176452174782753,-2.3094658851623535,0.6554920077323914,1.0442140102386475,65.10000610351562,-179.70001220703125,-20.700000762939453
412880,-0.20217232406139374,-0.809885561466217,0.4103260636329651,-1.6234859228134155,0.5868939757347107,2.896359920501709,55.500003814697266,-160.5,-18.900001525878906
412900,0.9713841676712036,3.5810818672180176,-0.5975448489189148,1.5625100135803223,2.690565824508667,9.557988166809082,60.30000305175781,-162.90000915527344,-16.5
412920,2.9829390048980713,9.039734840393066,-1.7800735235214233,-0.48018598556518555,3.8338658809661865,13.384231567382812,38.70000076293945,-174.90000915527344,-16.5
412984,9.722813606262207,19.539535522460938,-5.4413065910339355,-2.5609920024871826,3.757645845413208,5.3582658767700195,-11.700000762939453,-167.70001220703125,-21.900001525878906
413004,9.122278213500977,19.599349975585938,-7.8290934562683105,9.115911483764648,8.483285903930664,3.8414878845214844,0.30000001192092896,-153.3000030517578,-16.5
413024,19.599349975585938,19.599349975585938,-10.911922454833984,-3.193617820739746,11.311047554016113,14.397957801818848,-18.900001525878906,-167.70001220703125,-20.100000381469727
413047,14.76456069946289,19.599349975585938,-8.36562728881836,2.28659987449646,-11.044278144836426,-12.210443496704102,-26.100000381469727,-160.5,-20.700000762939453
413067,9.700682640075684,19.599349975585938,-5.120701789855957,1.3643379211425781,-10.0686616897583,-10.190613746643066,0.30000001192092896,-165.3000030517578,-12.300000190734863
413087,6.488655090332031,17.870119094848633,-4.69781494140625,0.09146399796009064,-3.1402640342712402,-9.298839569091797,5.100000381469727,-172.5,-17.100000381469727
413107,3.8077781200408936,11.577056884765625,-4.079933166503906,0.914639949798584,-6.623517990112305,-16.920839309692383,29.100000381469727,-172.5,-17.700000762939453
413127,1.2495206594467163,4.340723514556885,-1.2010711431503296,1.1737879514694214,-11.6387939453125,-22.454410552978516,31.500001907348633,-162.90000915527344,-14.700000762939453
413147,-1.7100907564163208,-1.922431468963623,1.520479440689087,-0.3582339882850647,-7.378095626831055,-18.856826782226562,53.10000228881836,-177.3000030517578,-18.30000114440918
413167,-2.0498359203338623,-3.2353553771972656,0.1561153084039688,-1.0899460315704346,0.3277460038661957,-5.807963848114014,72.30000305175781,-172.5,-16.5
413187,0.23207947611808777,0.42767223715782166,-0.06220686808228493,-1.5853760242462158,-0.7926880121231079,2.1189160346984863,67.5,-165.3000030517578,-20.100000381469727
413210,0.46415895223617554,0.43903693556785583,-0.1692744642496109,-0.09146399796009064,0.9756159782409668,0.6554920077323914,62.70000076293945,-179.70001220703125,-12.300000190734863
413230,0.22490175068378448,-0.2619866132736206,-0.31282877922058105,-0.342989981174469,0.7164679765701294,1.5472660064697266,81.9000015258789,-160.5,-17.100000381469727
413250,0.19499461352825165,-0.23806090652942657,0.17405959963798523,-0.3125019967556,-0.1295740008354187,2.599102020263672,74.70000457763672,-162.90000915527344,-12.90000057220459
413270,0.16389118134975433,0.5484970808029175,0.0957028716802597,-0.5868939757347107,0.2439039945602417,2.492393970489502,74.70000457763672,-170.10000610351562,-15.300000190734863
413293,-0.03887929394841194,0.28052905201911926,0.3337637782096863,-1.5167779922485352,0.17530599236488342,0.7545779943466187,84.30000305175781,-170.10000610351562,-14.700000762939453
413335,0.35410064458847046,-0.703416109085083,0.9654027819633484,-2.6753220558166504,0.4344539940357208,0.7164679765701294,65.10000610351562,-170.10000610351562,-15.300000190734863
413355,0.19020946323871613,-1.0443576574325562,1.125106930732727,-2.896359920501709,1.1585439443588257,1.9054999351501465,55.500003814697266,-170.10000610351562,-12.300000190734863
413375,0.4695422351360321,0.6651349663734436,0.8403908610343933,-1.3033620119094849,3.2241058349609375,4.78661584854126,60.30000305175781,-165.3000030517578,-12.90000057220459
413399,4.568017959594727,11.841436386108398,-2.7071950435638428,-0.5335400104522705,7.1875457763671875,17.751638412475586,33.900001525878906,-179.70001220703125,-18.900001525878906
413419,4.60809326171875,16.316741943359375,-2.993107318878174,-0.685979962348938,6.493943691253662,12.789715766906738,24.30000114440918,-177.3000030517578,-19.5
413479,5.505906105041504,14.32552433013916,-3.7276270389556885,5.6097917556762695,0.7850660085678101,-3.810999870300293,17.100000381469727,-162.90000915527344,-18.30000114440918
413575,1.8129713535308838,7.835672855377197,-2.832206964492798,0.7317119836807251,-0.44969800114631653,-7.789683818817139,31.500001907348633,-174.90000915527344,-24.900001525878906
413595,1.6664263010025024,7.154986381530762,-2.9996869564056396,0.8689079880714417,-0.060975998640060425,-5.632658004760742,36.30000305175781,-172.5,-15.90000057220459
413638,1.5551717281341553,5.807370185852051,-2.0366768836975098,-0.914639949798584,1.013725996017456,-2.2103798389434814,48.30000305175781,-174.90000915527344,-20.100000381469727
413658,1.4827964305877686,5.231358528137207,-1.9732736349105835,-0.7774440050125122,0.36585599184036255,-2.179892063140869,53.10000228881836,-172.5,-23.700000762939453
413679,1.3583827018737793,4.641589641571045,-1.7627273797988892,-0.7545779943466187,0.13719600439071655,-1.9512319564819336,53.10000228881836,-162.90000915527344,-12.90000057220459
413700,1.0886201858520508,4.265357494354248,-1.634724736213684,-0.17530599236488342,-0.1448179930448532,-1.5091559886932373,43.5,-170.10000610351562,-18.30000114440918
413740,1.8656079769134521,6.447382926940918,-1.7041093111038208,-0.05335399881005287,-0.7469559907913208,-0.2972579896450043,57.900001525878906,-170.10000610351562,-20.100000381469727
413760,2.0617988109588623,6.762604236602783,-1.6442949771881104,-0.20579399168491364,-0.8384199738502502,-1.0289700031280518,53.10000228881836,-162.90000915527344,-18.30000114440918
413783,2.042060136795044,7.410991191864014,-1.732222080230713,-0.20579399168491364,-0.6173819899559021,-1.4100699424743652,57.900001525878906,-165.3000030517578,-18.900001525878906
413844,3.4417147636413574,13.19204330444336,-3.454275608062744,1.2118979692459106,0.7850660085678101,-2.9725799560546875,53.10000228881836,-162.90000915527344,-21.30000114440918
413874,2.8956100940704346,11.531000137329102,-2.823234796524048,1.7987920045852661,-1.5625100135803223,-8.17840576171875,77.10000610351562,-162.90000915527344,-20.100000381469727
413894,2.0875189304351807,10.11280345916748,-1.824336051940918,1.2804960012435913,0.19817200303077698,-7.492425918579102,74.70000457763672,-165.3000030517578,-15.300000190734863
413934,0.91575688123703,9.61275577545166,-2.957218885421753,0.5640279650688171,3.4298999309539795,-6.356747627258301,81.9000015258789,-153.3000030517578,-14.700000762939453
413954,0.29488447308540344,8.235830307006836,-2.847160577774048,0.7850660085678101,2.835383892059326,-6.089977741241455,77.10000610351562,-155.70001220703125,-14.100000381469727
413994,0.44382208585739136,8.31478500366211,-2.5767998695373535,0.1448179930448532,2.0045859813690186,-4.093013763427734,89.10000610351562,-160.5,-12.90000057220459
414018,0.43365365266799927,7.7399702072143555,-2.4733211994171143,0.1600620001554489,1.2804960012435913,-4.885701656341553,96.30000305175781,-162.90000915527344,-7.500000476837158
414038,0.3576894998550415,7.146612167358398,-2.0582098960876465,-0.07621999830007553,0.5030519962310791,-4.916189670562744,108.30000305175781,-155.70001220703125,-18.30000114440918
414060,0.16269488632678986,6.918121814727783,-2.1652774810791016,-0.20579399168491364,0.8612859845161438,-4.123501777648926,98.70000457763672,-150.90000915527344,-24.30000114440918
414080,0.20277047157287598,7.285381317138672,-2.2406435012817383,-0.1600620001554489,-0.12195199728012085,-2.7591638565063477,110.70000457763672,-165.3000030517578,-15.90000057220459
414101,0.5353379845619202,7.987601280212402,-1.8985058069229126,-0.35061198472976685,0.09146399796009064,-0.8689079880714417,115.50000762939453,-158.10000610351562,-12.90000057220459
414141,1.436739444732666,11.872539520263672,-3.0894083976745605,-1.7606819868087769,1.7301939725875854,-1.7225719690322876,120.30000305175781,-160.5,-20.700000762939453
414177,-0.08433815836906433,9.450060844421387,-4.286890506744385,1.5929979085922241,1.935987949371338,-3.9253299236297607,115.50000762939453,-143.70001220703125,-16.5
414197,0.5024400949478149,10.571578979492188,-4.481287002563477,2.6219680309295654,0.5640279650688171,-2.6600780487060547,127.50000762939453,-146.10000610351562,-14.700000762939453
414237,0.6884625554084778,9.432116508483887,-3.7748804092407227,1.4405579566955566,-0.8307979702949524,-2.8048958778381348,120.30000305175781,-148.5,-6.900000095367432
414257,0.9283179044723511,8.23523235321045,-3.5392119884490967,1.0061039924621582,-0.739333987236023,-2.7134318351745605,141.90000915527344,-155.70001220703125,-15.300000190734863
414277,1.0975923538208008,8.28906536102295,-3.3819003105163574,0.8841519951820374,-0.9298839569091797,-2.4161739349365234,125.10000610351562,-148.5,-11.700000762939453
414320,1.3601771593093872,8.243606567382812,-2.990116596221924,-0.06859800219535828,-0.9070180058479309,-2.9802019596099854,137.10000610351562,-146.10000610351562,-8.700000762939453
414500,0.6160872578620911,10.270712852478027,-3.4447054862976074,0.457319974899292,-2.7744078636169434,-0.2439039945602417,151.5,-150.90000915527344,-11.700000762939453
414553,0.6950421333312988,9.200634956359863,-2.577996253967285,-0.571649968624115,-4.5503339767456055,2.8658719062805176,149.10000610351562,-138.90000915527344,-12.90000057220459
414678,-2.7969164848327637,8.164651870727539,-2.8423755168914795,-0.7088459730148315,0.5564059615135193,0.6402480006217957,151.5,-150.90000915527344,-22.5
414775,-3.5697171688079834,9.134241104125977,-3.048734664916992,-1.371959924697876,-0.25152599811553955,2.8811159133911133,134.70001220703125,-160.5,-10.5
414835,-2.626445770263672,10.432211875915527,-3.0451457500457764,-0.6783579587936401,-1.7454379796981812,3.353679895401001,129.90000915527344,-155.70001220703125,-11.700000762939453
414855,-2.2466249465942383,10.134934425354004,-2.7939257621765137,-1.0594580173492432,-1.3109840154647827,2.8201398849487305,110.70000457763672,-155.70001220703125,-26.700000762939453
414875,-1.6012287139892578,9.502696990966797,-2.5857720375061035,-1.1204339265823364,-1.1128119230270386,2.8125178813934326,115.50000762939453,-158.10000610351562,-17.100000381469727
414935,-1.1143403053283691,8.88661003112793,-1.8865429162979126,-1.707327961921692,-0.3277460038661957,2.385685920715332,105.9000015258789,-155.70001220703125,-16.5
415257,2.862114191055298,8.939247131347656,-3.148026466369629,-1.0975680351257324,1.6844619512557983,0.015243999660015106,67.5,-174.90000915527344,-18.900001525878906
415277,3.422574043273926,8.988892555236816,-3.165372610092163,-0.38109999895095825,1.2042759656906128,0.5335400104522705,74.70000457763672,-170.10000610351562,-15.300000190734863
415323,2.7012135982513428,8.773561477661133,-3.630727767944336,-0.9527499675750732,2.545747995376587,1.425313949584961,67.5,-160.5,-18.30000114440918
415363,3.0086591243743896,10.102036476135254,-3.3107213973999023,-0.030487999320030212,-0.8079319596290588,0.7088459730148315,67.5,-170.10000610351562,-20.700000762939453
415383,3.636709213256836,10.182785987854004,-3.780263662338257,-0.7774440050125122,1.2576299905776978,0.5335400104522705,72.30000305175781,-162.90000915527344,-12.90000057220459
415403,3.946547269821167,10.018296241760254,-3.1312785148620605,-1.1356779336929321,0.04573199898004532,-0.030487999320030212,69.9000015258789,-160.5,-13.500000953674316
415423,3.9184346199035645,8.724513053894043,-2.6784842014312744,-2.1646480560302734,-0.2591480016708374,-1.8597679138183594,65.10000610351562,-172.5,-14.700000762939453
415443,3.558352470397949,7.862589359283447,-2.036078691482544,-1.875011920928955,-0.9298839569091797,-2.0960500240325928,60.30000305175781,-155.70001220703125,-23.100000381469727
415463,3.142045021057129,7.640678405761719,-2.1915957927703857,-1.829279899597168,0.6173819899559021,-1.7911700010299683,72.30000305175781,-170.10000610351562,-15.90000057220459
415483,3.1246988773345947,7.7309980392456055,-2.3034486770629883,-1.577754020690918,-0.10670799762010574,-1.7759259939193726,77.10000610351562,-174.90000915527344,-21.30000114440918
415503,3.5374176502227783,7.661613464355469,-1.7998121976852417,-1.2500079870224,-1.7301939725875854,-2.5609920024871826,57.900001525878906,-165.3000030517578,-17.100000381469727
415523,3.720449209213257,7.154387950897217,-1.2818204164505005,-1.1204339265823364,-2.339953899383545,-2.8048958778381348,72.30000305175781,-165.3000030517578,-18.900001525878906
415546,3.910658836364746,8.002554893493652,-1.3829065561294556,-0.7164679765701294,-1.14329993724823,-1.3567159175872803,65.10000610351562,-165.3000030517578,-21.900001525878906
415566,3.7958152294158936,7.840457916259766,-1.4253747463226318,-0.5792719721794128,-0.7850660085678101,-1.1128119230270386,72.30000305175781,-174.90000915527344,-15.300000190734863
415586,4.229468822479248,8.79808521270752,-1.61737859249115,0.20579399168491364,-0.739333987236023,0.114329993724823,81.9000015258789,-177.3000030517578,-27.900001525878906
415608,4.017127990722656,8.923096656799316,-1.742390513420105,-0.17530599236488342,-0.038109999150037766,-0.4420759975910187,77.10000610351562,-165.3000030517578,-21.30000114440918
415628,3.8352928161621094,8.971546173095703,-1.9230296611785889,0.07621999830007553,-0.007621999830007553,-0.5030519962310791,77.10000610351562,-162.90000915527344,-20.700000762939453
415648,4.0853166580200195,9.74015998840332,-2.325579881668091,0.5335400104522705,-0.3201240003108978,-0.3125019967556,77.10000610351562,-172.5,-17.100000381469727
415710,2.813664436340332,9.133045196533203,-2.0456490516662598,1.189031958580017,-2.179892063140869,-0.2896359860897064,81.9000015258789,-158.10000610351562,-19.5
415737,2.5732109546661377,9.592418670654297,-2.27174711227417,1.2576299905776978,-1.981719970703125,-0.7926880121231079,89.10000610351562,-167.70001220703125,-16.5
415757,1.8159620761871338,9.404004096984863,-2.0606024265289307,0.457319974899292,-2.2103798389434814,-1.2804960012435913,81.9000015258789,-165.3000030517578,-26.700000762939453
415800,0.3780263662338257,9.20242977142334,-2.2675600051879883,0.8460419774055481,-1.5396440029144287,-1.0594580173492432,91.5,-160.5,-21.30000114440918
415821,0.25660333037376404,9.64565372467041,-2.2466249465942383,0.6936019659042358,-1.9740979671478271,-0.5182960033416748,81.9000015258789,-165.3000030517578,-17.700000762939453
415841,-0.2631829082965851,9.777843475341797,-2.0815374851226807,0.5868939757347107,-1.6844619512557983,-0.7926880121231079,101.10000610351562,-165.3000030517578,-15.90000057220459
415864,-1.330868124961853,10.29284381866455,-3.0744547843933105,1.189031958580017,-0.7850660085678101,-0.35061198472976685,96.30000305175781,-170.10000610351562,-15.300000190734863
415884,-1.5677326917648315,9.825096130371094,-3.132474660873413,0.9375059604644775,-1.471045970916748,-0.6097599864006042,89.10000610351562,-165.3000030517578,-20.100000381469727
415904,-1.5838825702667236,9.72640323638916,-2.974565029144287,1.6844619512557983,-1.9054999351501465,0.228659987449646,89.10000610351562,-162.90000915527344,-14.100000381469727
415927,-1.114938497543335,10.239011764526367,-2.715569019317627,1.1737879514694214,-1.5853760242462158,0.800309956073761,98.70000457763672,-158.10000610351562,-17.100000381469727
415947,-1.2561002969741821,9.908238410949707,-2.7317190170288086,0.2972579896450043,0.05335399881005287,0.17530599236488342,89.10000610351562,-160.5,-20.700000762939453
415967,-1.4110193252563477,9.535594940185547,-3.0236127376556396,-0.08384199440479279,0.6783579587936401,-0.35061198472976685,84.30000305175781,-158.10000610351562,-17.700000762939453
416027,-1.5192831754684448,9.049304962158203,-3.2168128490448,0.6097599864006042,0.6250039935112,-0.6478700041770935,93.9000015258789,-165.3000030517578,-15.90000057220459
416047,-1.2405484914779663,9.396227836608887,-3.1904945373535156,0.6250039935112,0.2972579896450043,0.007621999830007553,96.30000305175781,-162.90000915527344,-17.700000762939453
416067,-0.8834571838378906,8.944031715393066,-3.0266034603118896,0.19054999947547913,-0.06859800219535828,-0.030487999320030212,93.9000015258789,-153.3000030517578,-17.100000381469727
416088,-0.8302224278450012,8.57796859741211,-2.793327569961548,0.13719600439071655,-0.22103799879550934,-0.25152599811553955,98.70000457763672,-165.3000030517578,-12.300000190734863
416108,-1.0246188640594482,8.10962200164795,-2.805290460586548,0.3048799932003021,-0.030487999320030212,0.2591480016708374,91.5,-170.10000610351562,-15.300000190734863
416128,-0.3780263662338257,8.847132682800293,-2.9045822620391846,-0.114329993724823,-0.38109999895095825,1.0289700031280518,89.10000610351562,-172.5,-20.700000762939453
416168,0.1309933066368103,8.63479232788086,-2.643791913986206,-0.060975998640060425,-0.7850660085678101,-0.33536797761917114,101.10000610351562,-162.90000915527344,-15.300000190734863
416188,0.3858022093772888,8.738868713378906,-2.3411316871643066,-0.685979962348938,-0.3887220025062561,-0.48018598556518555,91.5,-160.5,-16.5
416211,0.16090045869350433,8.097061157226562,-2.8190479278564453,0.06859800219535828,0.25152599811553955,-0.5640279650688171,96.30000305175781,-160.5,-21.900001525878906
416231,0.34811919927597046,8.918312072753906,-3.0212202072143555,0.007621999830007553,0.02286599949002266,-0.18292799592018127,96.30000305175781,-160.5,-16.5
416251,0.4545886516571045,8.342300415039062,-2.9859297275543213,-0.23628199100494385,0.038109999150037766,-0.6936019659042358,91.5,-153.3000030517578,-18.30000114440918
416271,1.1023775339126587,9.22336483001709,-2.7430837154388428,0.19054999947547913,-0.3734779953956604,-0.3048799932003021,77.10000610351562,-172.5,-21.30000114440918
416331,1.437935709953308,8.756813049316406,-2.9937055110931396,-0.9222619533538818,1.5015339851379395,-1.425313949584961,105.9000015258789,-162.90000915527344,-17.100000381469727
416352,1.520479440689087,8.446974754333496,-3.245523691177368,-0.6402480006217957,1.9207439422607422,-1.2576299905776978,101.10000610351562,-182.10000610351562,-23.100000381469727
416373,2.396160840988159,9.790404319763184,-3.279019832611084,0.09908600151538849,1.6692179441452026,0.08384199440479279,96.30000305175781,-158.10000610351562,-12.90000057220459
416393,3.4776031970977783,11.182282447814941,-3.7001123428344727,0.15243999660015106,2.080806016921997,-0.20579399168491364,81.9000015258789,-165.3000030517578,-15.300000190734863
416414,2.9398727416992188,9.32205867767334,-3.48777174949646,-0.510673999786377,0.9375059604644775,-2.4619059562683105,91.5,-158.10000610351562,-11.700000762939453
416434,2.602519989013672,8.259756088256836,-2.989518642425537,0.07621999830007553,0.510673999786377,-1.5167779922485352,93.9000015258789,-162.90000915527344,-5.700000286102295
416457,2.8860397338867188,8.948817253112793,-3.0947916507720947,0.09908600151538849,0.914639949798584,-0.4420759975910187,93.9000015258789,-167.70001220703125,-16.5
416477,3.2586829662323,9.627111434936523,-3.404031753540039,0.7317119836807251,0.9527499675750732,-0.426831990480423,96.30000305175781,-162.90000915527344,-19.5
416499,2.5474908351898193,8.3339262008667,-3.043351411819458,-0.3734779953956604,0.48018598556518555,-1.471045970916748,105.9000015258789,-162.90000915527344,-18.30000114440918
416519,2.358477830886841,7.874552249908447,-2.9051804542541504,-0.25152599811553955,0.28201398253440857,-1.425313949584961,91.5,-146.10000610351562,-12.90000057220459
416539,2.000190019607544,7.943338871002197,-2.8986008167266846,0.20579399168491364,0.7164679765701294,-0.6173819899559021,105.9000015258789,-158.10000610351562,-13.500000953674316
416579,1.6999223232269287,8.418862342834473,-3.395657539367676,0.7545779943466187,-0.015243999660015106,-0.5640279650688171,113.10000610351562,-155.70001220703125,-20.700000762939453
416599,2.6282401084899902,9.643858909606934,-3.162381887435913,0.6783579587936401,-1.3490939140319824,0.44969800114631653,98.70000457763672,-153.3000030517578,-11.100000381469727
416620,1.8548413515090942,8.037845611572266,-2.6132867336273193,-0.914639949798584,-0.8155539631843567,-0.8689079880714417,98.70000457763672,-162.90000915527344,-9.90000057220459
416640,1.5414143800735474,8.573183059692383,-3.1229045391082764,-0.015243999660015106,0.114329993724823,1.3795819282531738,103.50000762939453,-160.5,-6.300000190734863
416660,1.636519193649292,10.230637550354004,-3.555959939956665,0.1295740008354187,-0.4725639820098877,1.0899460315704346,105.9000015258789,-162.90000915527344,-15.90000057220459
416682,1.5850788354873657,9.505687713623047,-3.433340549468994,-0.015243999660015106,-1.1737879514694214,-0.4039659798145294,93.9000015258789,-167.70001220703125,-18.900001525878906
416702,1.6580523252487183,10.413070678710938,-3.2867956161499023,0.7317119836807251,-1.5320219993591309,0.35061198472976685,96.30000305175781,-160.5,-11.700000762939453
416766,-0.812876284122467,9.877135276794434,-3.48777174949646,0.030487999320030212,-0.9984819889068604,-2.332331895828247,103.50000762939453,-160.5,-13.500000953674316
416786,-1.2704557180404663,8.679652214050293,-3.3011510372161865,-0.4878079891204834,-1.0899460315704346,-2.6295900344848633,117.9000015258789,-158.10000610351562,-11.700000762939453
416806,-1.9325999021530151,7.669987201690674,-3.082230806350708,-0.16768398880958557,-1.1814099550247192,-1.2881180047988892,113.10000610351562,-153.3000030517578,-12.300000190734863
416826,-1.530647873878479,8.502004623413086,-2.9051804542541504,-0.39634400606155396,-0.914639949798584,1.1356779336929321,115.50000762939453,-167.70001220703125,-15.90000057220459
416846,-1.4726279973983765,8.470900535583496,-2.6880545616149902,-0.7240899801254272,-0.3582339882850647,0.571649968624115,115.50000762939453,-153.3000030517578,-16.5
416908,-0.37025049328804016,8.53908920288086,-2.658745527267456,-0.015243999660015106,-0.3125019967556,0.05335399881005287,115.50000762939453,-153.3000030517578,-13.500000953674316
417118,0.9779637455940247,8.536696434020996,-3.6163723468780518,0,-0.1448179930448532,-0.10670799762010574,110.70000457763672,-165.3000030517578,-11.700000762939453
417138,0.8601295948028564,8.780738830566406,-3.3663487434387207,-0.6021379828453064,-0.15243999660015106,0.18292799592018127,108.30000305175781,-158.10000610351562,-17.700000762939453
417178,2.799309015274048,11.710443496704102,-3.490164279937744,-1.295740008354187,-0.5487840175628662,0.3277460038661957,115.50000762939453,-153.3000030517578,-9.90000057220459
417240,0.8661110401153564,10.083494186401367,-2.900395154953003,-1.0061039924621582,1.7911700010299683,1.6158639192581177,108.30000305175781,-158.10000610351562,-12.90000057220459
417260,0.5221788287162781,9.70427131652832,-2.9225265979766846,-0.5792719721794128,2.0198299884796143,-1.4024479389190674,103.50000762939453,-158.10000610351562,-16.5
417300,0.12680630385875702,8.80107593536377,-2.7616260051727295,-0.5182960033416748,1.4862899780273438,-0.5335400104522705,105.9000015258789,-155.70001220703125,-11.100000381469727
417320,0.0927121639251709,8.733485221862793,-2.935685634613037,-0.36585599184036255,1.7378159761428833,-0.6783579587936401,108.30000305175781,-155.70001220703125,-14.700000762939453
417340,0.11544159054756165,8.79090690612793,-2.754448413848877,-0.060975998640060425,1.2881180047988892,-0.36585599184036255,113.10000610351562,-160.5,-10.5
417360,0.07237529754638672,9.09476375579834,-3.066679000854492,0.007621999830007553,1.5167779922485352,-0.5564059615135193,108.30000305175781,-158.10000610351562,-11.700000762939453
417380,0.18063917756080627,9.037342071533203,-3.1707558631896973,0.08384199440479279,1.0823240280151367,-0.7240899801254272,115.50000762939453,-158.10000610351562,-17.700000762939453
417400,0.2781364917755127,9.008631706237793,-3.031388521194458,0.030487999320030212,0.7164679765701294,-0.6554920077323914,110.70000457763672,-160.5,-14.100000381469727
417420,0.1722651720046997,8.90156364440918,-3.052323579788208,-0.13719600439071655,0.6936019659042358,-0.7164679765701294,120.30000305175781,-153.3000030517578,-11.700000762939453
417440,0.16209673881530762,9.296338081359863,-3.3346471786499023,-0.08384199440479279,0.46494197845458984,-0.4192099869251251,108.30000305175781,-162.90000915527344,-12.300000190734863
417462,0.24822933971881866,9.329833984375,-3.3107213973999023,-0.17530599236488342,-0.07621999830007553,-0.7240899801254272,110.70000457763672,-165.3000030517578,-17.100000381469727
417482,0.2506219148635864,9.126465797424316,-3.1079509258270264,-0.4192099869251251,-0.3201240003108978,-0.800309956073761,122.70000457763672,-148.5,-12.90000057220459
417502,0.3116324841976166,9.374096870422363,-3.093595504760742,-0.3582339882850647,-0.20579399168491364,-0.6936019659042358,127.50000762939453,-153.3000030517578,-16.5
417522,0.2799309194087982,9.191662788391113,-3.043351411819458,-0.6173819899559021,-0.030487999320030212,-1.1356779336929321,113.10000610351562,-153.3000030517578,-14.100000381469727
417544,0.22549989819526672,9.213794708251953,-2.860917806625366,-0.8917739987373352,0.3201240003108978,-0.9222619533538818,120.30000305175781,-162.90000915527344,-10.5
417564,0.06340315192937851,8.533705711364746,-2.8393847942352295,-1.189031958580017,0.8384199738502502,-1.2042759656906128,127.50000762939453,-143.70001220703125,-23.100000381469727
417584,0.13876916468143463,8.68742847442627,-3.020023822784424,-0.3048799932003021,0.8460419774055481,-0.38109999895095825,129.90000915527344,-141.3000030517578,-8.700000762939453
417604,0.12321744859218597,9.058277130126953,-2.9847333431243896,-0.1600620001554489,0.7621999979019165,-0.33536797761917114,117.9000015258789,-153.3000030517578,-16.5
417645,0.2661736309528351,8.800477981567383,-2.8011035919189453,-0.114329993724823,0.33536797761917114,-0.5487840175628662,115.50000762939453,-148.5,-9.300000190734863
417665,0.4043446481227875,8.80107593536377,-2.723942995071411,-0.18292799592018127,0.4344539940357208,-0.48018598556518555,101.10000610351562,-155.70001220703125,-16.5
417689,0.3678579330444336,8.76399040222168,-2.873478889465332,-0.17530599236488342,0.685979962348938,-0.5182960033416748,117.9000015258789,-155.70001220703125,-18.30000114440918
417710,0.358885794878006,8.945826530456543,-2.855534553527832,0.007621999830007553,0.4725639820098877,-0.5259180068969727,125.10000610351562,-150.90000915527344,-11.100000381469727
417730,0.349913626909256,9.10373592376709,-2.8363940715789795,0.02286599949002266,0.39634400606155396,-0.7240899801254272,105.9000015258789,-174.90000915527344,-17.100000381469727
417752,0.04904772341251373,8.87584400177002,-2.768803834915161,-0.28201398253440857,0.510673999786377,-0.9984819889068604,113.10000610351562,-158.10000610351562,-15.300000190734863
417812,-0.8475685715675354,9.556529998779297,-2.724541187286377,0.3582339882850647,-0.5564059615135193,-1.2500079870224,129.90000915527344,-153.3000030517578,-12.300000190734863
417838,-1.0347872972488403,11.781621932983398,-2.7203543186187744,0.038109999150037766,-1.3643379211425781,-1.3872039318084717,125.10000610351562,-153.3000030517578,-14.100000381469727
417858,-1.8817577362060547,11.629693984985352,-2.9709761142730713,-1.1814099550247192,-1.242385983467102,-3.8414878845214844,125.10000610351562,-155.70001220703125,-15.300000190734863
417898,-3.785048723220825,7.57009744644165,-2.9195358753204346,-1.3262280225753784,-3.666181802749634,-4.8018598556518555,134.70001220703125,-141.3000030517578,-3.9000000953674316
417922,-2.3949644565582275,9.515856742858887,-2.751457691192627,-2.0655620098114014,-6.707359790802002,-2.28659987449646,144.3000030517578,-155.70001220703125,-17.100000381469727
417942,-1.2961758375167847,8.921900749206543,-1.6472856998443604,-2.644834041595459,-9.657073974609375,-3.650938034057617,151.5,-148.5,-23.100000381469727
417965,-1.2477262020111084,7.037750244140625,-0.8948218822479248,-1.8369019031524658,-9.557988166809082,-3.803377866744995,156.3000030517578,-153.3000030517578,-10.5
417985,-1.8410841226577759,6.121395111083984,-1.0138523578643799,-1.8597679138183594,-8.64334774017334,-2.3628199100494385,146.70001220703125,-155.70001220703125,-18.900001525878906
418005,-2.068378448486328,6.117208003997803,-1.1909027099609375,-1.0442140102386475,-10.335432052612305,-0.33536797761917114,163.5,-153.3000030517578,-24.30000114440918
418025,-1.9320018291473389,5.812753200531006,-0.46714967489242554,-1.371959924697876,-12.515323638916016,-0.2896359860897064,153.90000915527344,-143.70001220703125,-26.700000762939453
418047,-1.4062341451644897,6.681855201721191,-0.8344094157218933,-0.3582339882850647,-12.469592094421387,-0.26677000522613525,156.3000030517578,-138.90000915527344,-17.700000762939453
418068,-1.1639862060546875,7.359550952911377,-1.0467501878738403,0.1295740008354187,-13.933015823364258,-1.0518360137939453,146.70001220703125,-150.90000915527344,-25.500001907348633
418088,0.14056359231472015,7.28717565536499,-0.7141827344894409,-1.0442140102386475,-14.992473602294922,-1.6234859228134155,151.5,-155.70001220703125,-24.30000114440918
418152,-0.48210322856903076,10.018296241760254,-4.108644008636475,6.806446075439453,-6.920775890350342,7.271388053894043,153.90000915527344,-146.10000610351562,-24.900001525878906
418172,-0.11065644770860672,13.812915802001953,-5.464035987854004,3.102154016494751,-3.6814258098602295,4.725639820098877,156.3000030517578,-143.70001220703125,-25.500001907348633
418232,-0.12680630385875702,13.72199821472168,-8.520546913146973,5.815586090087891,6.463455677032471,5.236313819885254,151.5,-153.3000030517578,-23.100000381469727
418262,1.8608227968215942,15.305282592773438,-10.08289623260498,2.8201398849487305,5.0000319480896,1.1128119230270386,139.5,-158.10000610351562,-24.900001525878906
418283,1.205856204032898,13.413355827331543,-9.158764839172363,1.3262280225753784,1.4100699424743652,-1.4329359531402588,156.3000030517578,-146.10000610351562,-23.700000762939453
418303,1.2866054773330688,13.71781063079834,-7.833280563354492,-0.8384199738502502,2.0655620098114014,-0.8765299916267395,127.50000762939453,-148.5,-12.90000057220459
418366,-0.9618139266967773,9.342992782592773,-6.476093769073486,-2.4085519313812256,7.507669925689697,-2.9802019596099854,151.5,-148.5,-20.700000762939453
418386,-0.9456640481948853,9.572081565856934,-5.4712138175964355,-2.4619059562683105,6.112843990325928,-2.1189160346984863,156.3000030517578,-148.5,-14.100000381469727
418406,-1.426571011543274,8.74006462097168,-4.32935905456543,-2.637212038040161,6.036623954772949,-3.4756319522857666,153.90000915527344,-146.10000610351562,-27.30000114440918
418430,-1.5647419691085815,7.577275276184082,-3.380105972290039,-2.4695279598236084,6.265284061431885,-3.3231918811798096,165.90000915527344,-153.3000030517578,-15.90000057220459
418493,-1.9930124282836914,6.005953788757324,-1.9960031509399414,-1.600619912147522,4.984787940979004,-1.7835479974746704,165.90000915527344,-150.90000915527344,-21.900001525878906
418553,-1.3230922222137451,6.879242420196533,-0.5831893682479858,-1.471045970916748,3.292703866958618,-2.9192259311676025,153.90000915527344,-148.5,-18.30000114440918
418613,-1.7268387079238892,8.204727172851562,-0.8541481494903564,-1.577754020690918,4.771371841430664,-1.935987949371338,173.10000610351562,-141.3000030517578,-18.900001525878906
418633,-1.8578320741653442,8.098855972290039,-1.0216281414031982,-1.7683039903640747,5.14484977722168,-2.3704419136047363,175.5,-136.5,-17.700000762939453
418653,-2.6061089038848877,7.7369794845581055,-1.4475059509277344,-1.5091559886932373,5.701255798339844,-2.5686140060424805,177.90000915527344,-141.3000030517578,-19.5
418693,-2.045050859451294,10.669673919677734,-2.0964910984039307,0.3201240003108978,4.230209827423096,-0.5259180068969727,182.70001220703125,-129.3000030517578,-19.5
418759,-3.3274693489074707,9.444677352905273,-3.1312785148620605,0.25152599811553955,3.254593849182129,-1.1737879514694214,180.3000030517578,-136.5,-11.700000762939453
418796,-3.2826085090637207,9.49611759185791,-3.335245132446289,0.6402480006217957,1.875011920928955,-1.653973937034607,170.70001220703125,-129.3000030517578,-14.100000381469727
418857,-2.572613000869751,8.831581115722656,-3.2084388732910156,0.8993960022926331,-0.5564059615135193,0.4192099869251251,182.70001220703125,-129.3000030517578,-14.100000381469727
418877,-2.4368345737457275,8.43740463256836,-2.9966962337493896,0.39634400606155396,-0.4344539940357208,0.41158798336982727,182.70001220703125,-124.50000762939453,-25.500001907348633
418919,-1.2584928274154663,9.209009170532227,-2.7652149200439453,0.20579399168491364,-1.1204339265823364,1.4100699424743652,182.70001220703125,-138.90000915527344,-13.500000953674316
418940,-0.8290261626243591,9.24609375,-2.688652753829956,-0.38109999895095825,-0.6631140112876892,1.0518360137939453,175.5,-129.3000030517578,-12.90000057220459
418960,-0.8942237496376038,8.986499786376953,-2.8328051567077637,-0.4344539940357208,-0.09908600151538849,0.7469559907913208,168.3000030517578,-134.10000610351562,-17.100000381469727
418980,-0.9432714581489563,9.20542049407959,-2.974565029144287,-0.09908600151538849,-0.3582339882850647,0.6326259970664978,168.3000030517578,-126.9000015258789,-20.100000381469727
419002,-0.8804664611816406,9.094165802001953,-2.8190479278564453,-0.12195199728012085,-0.41158798336982727,0.5640279650688171,173.10000610351562,-129.3000030517578,-9.300000190734863
419042,-1.2638760805130005,8.911731719970703,-3.3585727214813232,-0.4878079891204834,0.7012239694595337,0.4725639820098877,180.3000030517578,-138.90000915527344,-13.500000953674316
419062,-1.2447354793548584,9.449462890625,-3.9597065448760986,0.1448179930448532,0.739333987236023,0.7469559907913208,173.10000610351562,-134.10000610351562,-15.90000057220459
419082,-1.22200608253479,9.26523494720459,-3.8287131786346436,0.06859800219535828,-0.6173819899559021,0.5868939757347107,168.3000030517578,-148.5,-11.100000381469727
419102,-1.1035737991333008,8.784327507019043,-3.46982741355896,-0.1600620001554489,-0.5487840175628662,0.6097599864006042,175.5,-124.50000762939453,-16.5
419167,-1.1233124732971191,8.99726676940918,-3.47879958152771,-0.457319974899292,0.8155539631843567,0.510673999786377,173.10000610351562,-143.70001220703125,-15.300000190734863
419187,-1.1639862060546875,8.746644973754883,-3.460257053375244,-0.6173819899559021,0.9451279640197754,0.2972579896450043,168.3000030517578,-124.50000762939453,-16.5
419207,-1.1376678943634033,8.77715015411377,-3.2150185108184814,-0.4725639820098877,0.6707359552383423,0.08384199440479279,163.5,-141.3000030517578,-14.700000762939453
419267,-1.0724703073501587,9.09895133972168,-3.081632614135742,-0.4192099869251251,1.5548880100250244,-0.5564059615135193,161.10000610351562,-124.50000762939453,-12.90000057220459
419331,-1.193893313407898,8.704176902770996,-2.855534553527832,0.04573199898004532,1.3872039318084717,-0.46494197845458984,168.3000030517578,-143.70001220703125,-14.700000762939453
419351,-1.1765471696853638,8.911731719970703,-2.9823408126831055,-0.007621999830007553,1.6615959405899048,-0.5182960033416748,168.3000030517578,-134.10000610351562,-14.700000762939453
419373,-1.2525113821029663,9.325647354125977,-3.4853789806365967,0.114329993724823,1.9207439422607422,-0.7012239694595337,163.5,-131.70001220703125,-18.30000114440918
419393,-1.3655604124069214,9.10672664642334,-3.5457916259765625,0.030487999320030212,1.3109840154647827,-0.9984819889068604,161.10000610351562,-129.3000030517578,-10.5
419453,-1.5007407665252686,9.011622428894043,-3.5188751220703125,-0.46494197845458984,1.0975680351257324,-0.4192099869251251,170.70001220703125,-126.9000015258789,-18.900001525878906
419474,-1.516890525817871,8.836365699768066,-3.5248565673828125,-0.3582339882850647,0.5487840175628662,-0.19817200303077698,168.3000030517578,-124.50000762939453,-13.500000953674316
419494,-1.506722092628479,8.924891471862793,-3.490164279937744,-0.2896359860897064,0.28201398253440857,-0.16768398880958557,173.10000610351562,-136.5,-10.5
419516,-1.4181970357894897,9.082202911376953,-3.538015604019165,-0.33536797761917114,0.1600620001554489,-0.17530599236488342,180.3000030517578,-129.3000030517578,-14.700000762939453
419536,-1.4732261896133423,8.851319313049316,-3.460257053375244,-0.4420759975910187,0.02286599949002266,-0.2972579896450043,175.5,-136.5,-16.5
419558,-1.4421226978302002,8.683241844177246,-3.3645541667938232,-0.4725639820098877,-0.09908600151538849,-0.06859800219535828,161.10000610351562,-138.90000915527344,-14.100000381469727
419578,-1.3392421007156372,8.77894401550293,-3.3047399520874023,-0.5792719721794128,-0.07621999830007553,0.16768398880958557,161.10000610351562,-131.70001220703125,-9.300000190734863
419638,-0.9923191666603088,8.680251121520996,-3.165372610092163,-0.5411620140075684,-0.23628199100494385,0.07621999830007553,168.3000030517578,-141.3000030517578,-15.90000057220459
419658,-0.8984107375144958,8.83875846862793,-3.270047664642334,-0.35061198472976685,0.20579399168491364,0.030487999320030212,173.10000610351562,-131.70001220703125,-14.100000381469727
419678,-0.90977543592453,8.850123405456543,-3.329861879348755,-0.2743920087814331,0.3125019967556,-0.05335399881005287,168.3000030517578,-141.3000030517578,-16.5
419698,-0.7165752649307251,8.983509063720703,-3.222196102142334,-0.16768398880958557,0.114329993724823,-0.1448179930448532,153.90000915527344,-136.5,-12.300000190734863
419719,-0.5520859360694885,9.239514350891113,-3.145035743713379,-0.426831990480423,0.4420759975910187,-0.2439039945602417,165.90000915527344,-136.5,-14.100000381469727
419739,-0.815268874168396,8.989490509033203,-3.079838275909424,-1.067080020904541,1.0442140102386475,-0.6783579587936401,173.10000610351562,-126.9000015258789,-13.500000953674316
419759,-0.9073829054832458,8.722121238708496,-3.0188276767730713,-1.189031958580017,1.1585439443588257,-0.967993974685669,163.5,-136.5,-14.700000762939453
419779,-1.1514252424240112,8.578566551208496,-2.7622241973876953,-1.067080020904541,1.295740008354187,-1.1128119230270386,153.90000915527344,-131.70001220703125,-17.700000762939453
419799,-1.2830166816711426,9.088184356689453,-2.896806478500366,-0.800309956073761,1.7759259939193726,-0.9756159782409668,168.3000030517578,-143.70001220703125,-14.700000762939453
419819,-1.7358108758926392,8.640174865722656,-2.7191579341888428,-0.7012239694595337,1.3643379211425781,-1.3795819282531738,170.70001220703125,-131.70001220703125,-15.300000190734863
419839,-2.1742496490478516,9.125866889953613,-2.3806090354919434,-0.44969800114631653,0.8689079880714417,-0.5792719721794128,173.10000610351562,-126.9000015258789,-17.700000762939453
419859,-3.395059585571289,9.075623512268066,-2.396758794784546,-0.5564059615135193,0.5564059615135193,-0.4878079891204834,163.5,-134.10000610351562,-12.90000057220459
419879,-3.783254384994507,9.168933868408203,-2.18800687789917,0.06859800219535828,-0.49542999267578125,0.06859800219535828,170.70001220703125,-124.50000762939453,-17.700000762939453
419939,-6.200948238372803,9.69051456451416,-2.831608772277832,0.19054999947547913,-1.7149499654769897,1.1814099550247192,158.70001220703125,-148.5,-11.700000762939453
419959,-5.306724548339844,10.188169479370117,-2.551079750061035,0.5487840175628662,-4.1387457847595215,3.193617820739746,170.70001220703125,-146.10000610351562,-10.5
419979,-4.681664943695068,10.130148887634277,-2.5032284259796143,0.26677000522613525,-5.594547748565674,3.208861827850342,161.10000610351562,-138.90000915527344,-7.500000476837158
420022,-3.48179030418396,7.244109630584717,-2.4188902378082275,0.8841519951820374,-7.225656032562256,1.6234859228134155,173.10000610351562,-136.5,-14.700000762939453
420057,-2.24483060836792,6.607087135314941,-3.4776031970977783,2.195136070251465,-10.602201461791992,3.4908759593963623,161.10000610351562,-153.3000030517578,-15.90000057220459
420077,-1.7944289445877075,6.591535568237305,-2.363861083984375,0.4420759975910187,-12.728739738464355,2.682943820953369,158.70001220703125,-146.10000610351562,-23.700000762939453
420119,0.09689915925264359,5.613571643829346,-2.5738091468811035,-0.35061198472976685,-13.407097816467285,2.1494040489196777,158.70001220703125,-134.10000610351562,-17.100000381469727
420160,1.5515828132629395,5.145226001739502,-3.66003680229187,2.0960500240325928,-10.617445945739746,4.839970111846924,168.3000030517578,-153.3000030517578,-21.900001525878906
420259,3.287393808364868,13.94091796875,-7.248296737670898,0.6250039935112,0.6021379828453064,0.3734779953956604,122.70000457763672,-148.5,-20.700000762939453
420301,3.124100685119629,12.741043090820312,-7.063470363616943,0.10670799762010574,-1.7454379796981812,-0.9298839569091797,139.5,-148.5,-19.5
420321,1.9816476106643677,12.211687088012695,-5.617758750915527,-1.3414719104766846,1.2728739976882935,-2.2637338638305664,139.5,-153.3000030517578,-21.30000114440918
420363,0.6011337041854858,10.503390312194824,-7.168145179748535,-1.9664759635925293,9.61134147644043,-5.365887641906738,146.70001220703125,-153.3000030517578,-19.5
420383,-0.5730209946632385,9.095361709594727,-6.636994361877441,-2.850627899169922,8.940606117248535,-5.6097917556762695,153.90000915527344,-141.3000030517578,-15.90000057220459
420403,-1.5982379913330078,8.264541625976562,-5.965280055999756,-3.1250200271606445,8.696702003479004,-4.397893905639648,156.3000030517578,-134.10000610351562,-17.700000762939453
420423,-1.925422191619873,7.839262008666992,-5.361753463745117,-3.0183119773864746,8.117429733276367,-3.254593849182129,144.3000030517578,-146.10000610351562,-20.100000381469727
420486,-1.5150961875915527,7.14481782913208,-3.6767847537994385,-2.0960500240325928,8.795787811279297,-2.339953899383545,144.3000030517578,-136.5,-16.5
420541,-1.6742022037506104,7.54019021987915,-2.8950119018554688,-1.6844619512557983,6.814067840576172,-2.5000159740448,170.70001220703125,-150.90000915527344,-19.5
420582,-1.648482084274292,7.961282730102539,-2.649773359298706,-1.0975680351257324,4.397893905639648,-1.699705958366394,156.3000030517578,-131.70001220703125,-20.700000762939453
420602,-1.4977500438690186,8.2980375289917,-1.3960657119750977,-1.8673899173736572,3.8491098880767822,-2.3551979064941406,180.3000030517578,-138.90000915527344,-17.100000381469727
420642,-2.360272169113159,8.218484878540039,-2.3985533714294434,-0.9984819889068604,5.175337791442871,-1.7835479974746704,182.70001220703125,-131.70001220703125,-14.700000762939453
420686,-2.5259578227996826,9.07981014251709,-1.7059037685394287,-0.9603719711303711,4.314052104949951,-0.5182960033416748,165.90000915527344,-129.3000030517578,-14.100000381469727
420716,-2.811271905899048,9.034351348876953,-2.25081205368042,-0.426831990480423,2.995445966720581,-0.8689079880714417,173.10000610351562,-126.9000015258789,-16.5
420736,-2.665325164794922,9.183887481689453,-2.164081335067749,-0.4878079891204834,2.8125178813934326,-0.6402480006217957,170.70001220703125,-136.5,-14.700000762939453
420776,-2.601922035217285,8.834571838378906,-2.444610357284546,-0.25152599811553955,1.9893419742584229,-0.2896359860897064,173.10000610351562,-141.3000030517578,-15.90000057220459
420796,-2.861515998840332,9.318469047546387,-2.551079750061035,-0.007621999830007553,1.371959924697876,0.39634400606155396,163.5,-146.10000610351562,-20.100000381469727
420816,-2.909367322921753,10.047605514526367,-2.6778860092163086,-0.038109999150037766,0.5335400104522705,0.2134159952402115,168.3000030517578,-131.70001220703125,-17.100000381469727
420836,-2.8663010597229004,9.810142517089844,-2.7849535942077637,-0.5335400104522705,0.038109999150037766,-0.7317119836807251,149.10000610351562,-122.10000610351562,-15.90000057220459
420918,-1.4660484790802002,9.08878231048584,-2.6635305881500244,-0.914639949798584,-1.067080020904541,0.6402480006217957,158.70001220703125,-129.3000030517578,-6.900000095367432
421020,-0.8230447173118591,9.177308082580566,-2.703606128692627,0.6554920077323914,-0.3048799932003021,0.9984819889068604,168.3000030517578,-146.10000610351562,-12.300000190734863
421040,-0.8344094157218933,9.3956298828125,-2.9667892456054688,0.015243999660015106,0.19817200303077698,0.28201398253440857,168.3000030517578,-134.10000610351562,-18.30000114440918
421080,-1.3362513780593872,8.896778106689453,-3.22578501701355,-0.060975998640060425,0.060975998640060425,-0.038109999150037766,168.3000030517578,-138.90000915527344,-9.300000190734863
421124,-1.0563204288482666,9.24429988861084,-3.109147071838379,-0.02286599949002266,-0.8689079880714417,0.3887220025062561,153.90000915527344,-143.70001220703125,-12.90000057220459
421144,-0.9755712151527405,8.935657501220703,-3.049332857131958,-0.5182960033416748,-0.5030519962310791,0.426831990480423,153.90000915527344,-138.90000915527344,-12.90000057220459
421187,-0.7476786971092224,8.909937858581543,-3.0325849056243896,-0.685979962348938,0.2134159952402115,0.8155539631843567,153.90000915527344,-136.5,-8.100000381469727
421227,-0.4342517852783203,9.33880615234375,-2.7759814262390137,-0.5182960033416748,0.4878079891204834,0.8155539631843567,163.5,-148.5,-17.700000762939453
421317,-0.7560527324676514,8.966761589050293,-2.863908529281616,-0.114329993724823,0.4420759975910187,0.22103799879550934,149.10000610351562,-146.10000610351562,-9.90000057220459
421379,-0.9983006119728088,9.056482315063477,-2.993107318878174,-0.571649968624115,0.9756159782409668,-0.02286599949002266,158.70001220703125,-134.10000610351562,-12.300000190734863
421436,-0.7500712871551514,9.282580375671387,-2.7652149200439453,-0.3048799932003021,1.0061039924621582,-0.015243999660015106,156.3000030517578,-138.90000915527344,-17.100000381469727
421459,-0.7955301403999329,9.008631706237793,-3.027799606323242,-0.25152599811553955,1.1585439443588257,-0.36585599184036255,151.5,-141.3000030517578,-8.100000381469727
421519,-0.4844958186149597,9.051697731018066,-2.723942995071411,-0.18292799592018127,0.7469559907913208,-0.7164679765701294,163.5,-138.90000915527344,-16.5
421554,-0.703416109085083,8.63479232788086,-2.9560225009918213,-0.13719600439071655,0.9984819889068604,-0.6097599864006042,161.10000610351562,-138.90000915527344,-21.30000114440918
421575,-0.506627082824707,8.79509449005127,-2.732915163040161,-0.114329993724823,0.8460419774055481,-0.426831990480423,149.10000610351562,-134.10000610351562,-12.90000057220459
421617,-0.8780738711357117,8.582155227661133,-2.810673713684082,-0.2972579896450043,1.1280559301376343,-0.7850660085678101,151.5,-129.3000030517578,-12.90000057220459
421637,-1.114938497543335,8.85969352722168,-2.6868581771850586,0.114329993724823,0.8231759667396545,-0.39634400606155396,163.5,-136.5,-10.5
421657,-1.446907877922058,9.034351348876953,-2.504424571990967,-0.015243999660015106,0.7469559907913208,-0.6631140112876892,161.10000610351562,-153.3000030517578,-15.90000057220459
421680,-2.1060614585876465,8.960780143737793,-2.3919737339019775,-0.08384199440479279,0.6936019659042358,-0.8231759667396545,151.5,-153.3000030517578,-15.90000057220459
421700,-3.0864176750183105,9.43331241607666,-2.6186699867248535,0.6326259970664978,0.5182960033416748,-0.17530599236488342,161.10000610351562,-141.3000030517578,-17.100000381469727
421720,-3.8203392028808594,11.391633033752441,-2.4129087924957275,1.0594580173492432,-1.2500079870224,1.371959924697876,156.3000030517578,-143.70001220703125,-16.5
421740,-5.11711311340332,11.639264106750488,-1.0485446453094482,-1.0747020244598389,-2.782029867172241,-0.48018598556518555,163.5,-148.5,-19.5
421763,-7.410393238067627,8.266335487365723,-1.8351026773452759,-0.4878079891204834,1.0061039924621582,-0.7469559907913208,161.10000610351562,-131.70001220703125,-21.900001525878906
421783,-6.4312334060668945,10.069138526916504,-3.3077306747436523,1.3643379211425781,-0.41158798336982727,3.048799991607666,165.90000915527344,-146.10000610351562,-9.300000190734863
421803,-6.078329086303711,9.763487815856934,-3.165372610092163,1.2576299905776978,-4.57319974899292,3.0106899738311768,170.70001220703125,-134.10000610351562,-17.700000762939453
421823,-5.681161880493164,7.628117084503174,-3.091202974319458,0.8307979702949524,-6.410101890563965,3.201239824295044,149.10000610351562,-134.10000610351562,-15.300000190734863
421885,-1.2477262020111084,6.742865562438965,-3.7718896865844727,3.3841679096221924,-12.873558044433594,4.085391998291016,144.3000030517578,-155.70001220703125,-17.700000762939453
422161,4.54349422454834,13.808728218078613,-8.670082092285156,-0.8231759667396545,6.036623954772949,-1.013725996017456,122.70000457763672,-143.70001220703125,-20.100000381469727
422181,3.460257053375244,12.180583000183105,-9.01521110534668,-2.195136070251465,6.730226039886475,-4.1387457847595215,122.70000457763672,-153.3000030517578,-15.300000190734863
422221,0.596946656703949,9.427929878234863,-5.941952228546143,-5.426863670349121,4.100636005401611,-5.259180068969727,132.3000030517578,-148.5,-13.500000953674316
422263,-0.4181019365787506,7.2985405921936035,-4.86708927154541,-4.53508996963501,10.236346244812012,-5.426863670349121,132.3000030517578,-153.3000030517578,-18.900001525878906
422397,-1.1364716291427612,6.574189186096191,-1.7639236450195312,-1.189031958580017,5.678390026092529,-3.4298999309539795,156.3000030517578,-136.5,-19.5
422418,-1.327877402305603,6.918121814727783,-1.6861650943756104,-1.471045970916748,7.865903854370117,-3.8338658809661865,163.5,-141.3000030517578,-18.900001525878906
422460,-1.9367868900299072,7.318877220153809,-2.0905096530914307,-0.20579399168491364,5.754610061645508,-4.42838191986084,153.90000915527344,-146.10000610351562,-16.5
422500,-2.253204584121704,8.938648223876953,-1.2034636735916138,-1.8369019031524658,7.865903854370117,-4.42838191986084,158.70001220703125,-153.3000030517578,-18.30000114440918
422540,-3.213223934173584,8.80705738067627,-1.6759966611862183,0.2743920087814331,4.519845962524414,-1.2042759656906128,168.3000030517578,-129.3000030517578,-12.90000057220459
422636,-3.749160051345825,10.619430541992188,-3.430349826812744,0.46494197845458984,0.5335400104522705,0.4039659798145294,165.90000915527344,-138.90000915527344,-17.100000381469727
422656,-3.517080783843994,9.97642707824707,-3.431546211242676,-0.41158798336982727,-0.7317119836807251,0.015243999660015106,168.3000030517578,-138.90000915527344,-12.90000057220459
422699,-2.259186029434204,8.972743034362793,-2.926713466644287,-0.9832379817962646,-1.8978779315948486,1.067080020904541,156.3000030517578,-126.9000015258789,-10.5
422719,-1.6460894346237183,9.032556533813477,-2.875871419906616,-1.021347999572754,-1.9664759635925293,1.4100699424743652,173.10000610351562,-136.5,-9.90000057220459
422741,-1.2668668031692505,8.653334617614746,-2.414703130722046,-0.9984819889068604,-1.882633924484253,1.242385983467102,158.70001220703125,-124.50000762939453,-15.300000190734863
422761,-1.1903045177459717,8.86866569519043,-2.5415093898773193,-0.8155539631843567,-0.8689079880714417,1.3262280225753784,168.3000030517578,-134.10000610351562,-17.100000381469727
422802,-1.2076506614685059,8.749635696411133,-2.694634199142456,0,-0.5945159792900085,0.8307979702949524,165.90000915527344,-143.70001220703125,-15.300000190734863
422866,-1.0545260906219482,8.59471607208252,-3.1306803226470947,0.25152599811553955,-0.6478700041770935,0.7621999979019165,161.10000610351562,-134.10000610351562,-14.100000381469727
422941,-0.4515979290008545,8.846534729003906,-3.3430211544036865,0.20579399168491364,-1.3643379211425781,0.5792719721794128,165.90000915527344,-141.3000030517578,-15.90000057220459
422983,-0.5867782831192017,9.113903999328613,-3.4829864501953125,-0.800309956073761,0,0.13719600439071655,165.90000915527344,-124.50000762939453,-16.5
423025,-0.7410991191864014,9.00025749206543,-3.255094051361084,-0.46494197845458984,-0.22103799879550934,0.114329993724823,161.10000610351562,-141.3000030517578,-19.5
423053,-0.6693220138549805,8.939247131347656,-3.123502492904663,-0.7012239694595337,0.06859800219535828,0.04573199898004532,151.5,-141.3000030517578,-17.700000762939453
423073,-0.7686136960983276,8.744850158691406,-3.1402506828308105,-0.7774440050125122,0.36585599184036255,0.07621999830007553,165.90000915527344,-129.3000030517578,-15.90000057220459
423134,-0.818857729434967,9.142017364501953,-3.2096352577209473,-0.5182960033416748,0.7240899801254272,-0.2439039945602417,146.70001220703125,-141.3000030517578,-15.300000190734863
423418,-2.7119803428649902,8.82380485534668,-1.1627899408340454,0.5259180068969727,-1.1204339265823364,-0.19817200303077698,156.3000030517578,-143.70001220703125,-15.300000190734863
423438,-3.7300195693969727,10.039231300354004,-1.1950896978378296,0.48018598556518555,-0.6631140112876892,0.6554920077323914,173.10000610351562,-141.3000030517578,-11.700000762939453
