time,sensor_accX[g],sensor_accY[g],sensor_accZ[g],sensor_gyroX[°/s],sensor_gyroY[°/s],sensor_gyroZ[°/s],sensor_magX[µT],sensor_magY[µT],sensor_magZ[µT]
1243898,-3.3908724784851074,7.2476983070373535,-5.266648769378662,-0.19817200303077698,-0.038109999150037766,-0.1600620001554489,264.3000183105469,-50.10000228881836,5.700000286102295
1243918,-3.42197585105896,7.252483367919922,-5.240928649902344,-0.3582339882850647,0.038109999150037766,-0.3582339882850647,259.5,-52.500003814697266,12.300000190734863
1243938,-3.4291536808013916,7.130462169647217,-5.273826599121094,-0.3201240003108978,0.060975998640060425,-0.228659987449646,252.3000030517578,-54.900001525878906,4.5
1243981,-3.4560701847076416,7.255474090576172,-5.282798767089844,-0.2896359860897064,0.13719600439071655,-0.1600620001554489,257.1000061035156,-52.500003814697266,5.100000381469727
1244041,-3.5009307861328125,7.238128185272217,-5.304930210113525,-0.2896359860897064,0.2972579896450043,-0.16768398880958557,254.70001220703125,-42.900001525878906,7.500000476837158
1244061,-3.502725124359131,7.015618801116943,-5.211021423339844,-0.33536797761917114,0.19817200303077698,-0.19054999947547913,252.3000030517578,-64.5,5.700000286102295
1244081,-3.4590609073638916,7.096368312835693,-5.261863708496094,-0.2591480016708374,0.26677000522613525,0.02286599949002266,257.1000061035156,-52.500003814697266,8.100000381469727
1244101,-3.4028353691101074,7.271026134490967,-5.305528163909912,-0.16768398880958557,0.18292799592018127,0.04573199898004532,240.3000030517578,-59.70000076293945,-0.9000000357627869
1244121,-3.3878817558288574,7.149602890014648,-5.299546718597412,-0.25152599811553955,0.1448179930448532,-0.09908600151538849,247.50001525878906,-57.30000305175781,6.300000190734863
1244141,-3.3932650089263916,7.09397554397583,-5.223582744598389,-0.2439039945602417,0.15243999660015106,-0.19054999947547913,249.90000915527344,-50.10000228881836,6.300000190734863
1244161,-3.3902742862701416,7.154387950897217,-5.251695156097412,-0.26677000522613525,0.19817200303077698,-0.2591480016708374,259.5,-54.900001525878906,9.300000190734863
1244181,-3.4835846424102783,7.055694580078125,-5.294761657714844,-0.3048799932003021,0.2972579896450043,-0.3734779953956604,254.70001220703125,-57.30000305175781,12.300000190734863
1244201,-3.380704164505005,7.181304454803467,-5.289976596832275,-0.16768398880958557,0.2134159952402115,-0.342989981174469,261.9000244140625,-57.30000305175781,6.900000095367432
1244221,-3.425564765930176,7.128667831420898,-5.278013706207275,-0.22103799879550934,0.28201398253440857,-0.4192099869251251,252.3000030517578,-52.500003814697266,2.700000047683716
1244241,-3.42496657371521,7.204033851623535,-5.351585388183594,-0.2134159952402115,0.28201398253440857,-0.38109999895095825,261.9000244140625,-45.30000305175781,3.9000000953674316
1244261,-3.4805939197540283,6.976739406585693,-5.236741542816162,-0.342989981174469,0.1600620001554489,-0.4039659798145294,242.70001220703125,-59.70000076293945,6.900000095367432
1244281,-3.4596588611602783,7.07004976272583,-5.318687438964844,-0.33536797761917114,0.2439039945602417,-0.19054999947547913,257.1000061035156,-54.900001525878906,9.90000057220459
1244301,-3.437527656555176,7.179510116577148,-5.287583827972412,-0.426831990480423,0.13719600439071655,-0.3125019967556,254.70001220703125,-50.10000228881836,6.300000190734863
1244324,-3.4913604259490967,7.225566864013672,-5.484971046447754,-0.5411620140075684,0.39634400606155396,-0.342989981174469,261.9000244140625,-62.10000228881836,9.300000190734863
1244344,-3.4231722354888916,7.463029861450195,-5.3575663566589355,-0.5945159792900085,0.05335399881005287,-0.426831990480423,259.5,-50.10000228881836,7.500000476837158
1244364,-3.470425605773926,7.133452892303467,-5.345005512237549,-1.1204339265823364,0.2896359860897064,-0.7088459730148315,249.90000915527344,-57.30000305175781,12.90000057220459
1244384,-3.558950662612915,6.979132175445557,-5.362351894378662,-0.9984819889068604,0.426831990480423,-0.5030519962310791,254.70001220703125,-52.500003814697266,4.5
1244404,-3.618764877319336,7.107732772827148,-5.272032260894775,-0.9603719711303711,0.46494197845458984,-0.3582339882850647,257.1000061035156,-54.900001525878906,5.100000381469727
1244424,-3.70190691947937,6.985113620758057,-5.3844828605651855,-1.2195199728012085,0.8765299916267395,-0.38109999895095825,252.3000030517578,-57.30000305175781,4.5
1244444,-3.794619083404541,6.8068671226501465,-5.4030256271362305,-1.2042759656906128,0.9451279640197754,-0.35061198472976685,252.3000030517578,-47.70000076293945,10.5
1244464,-3.850844383239746,6.698005199432373,-5.356968402862549,-1.2271419763565063,1.0747020244598389,-0.09908600151538849,254.70001220703125,-50.10000228881836,5.100000381469727
1244484,-3.7306177616119385,6.922906875610352,-5.340818405151367,-1.2804960012435913,1.1661659479141235,0.26677000522613525,259.5,-52.500003814697266,14.700000762939453
1244504,-3.779665470123291,6.83797025680542,-5.3551740646362305,-1.5548880100250244,1.524399995803833,0.2591480016708374,249.90000915527344,-47.70000076293945,10.5
1244524,-3.8669943809509277,6.585554122924805,-5.234947204589844,-1.6082419157028198,1.4100699424743652,0.1448179930448532,247.50001525878906,-50.10000228881836,9.90000057220459
1244587,-4.345508575439453,6.549067497253418,-5.772677898406982,-1.1814099550247192,1.3338500261306763,0.7012239694595337,249.90000915527344,-62.10000228881836,5.100000381469727
1244610,-4.47171688079834,6.980328559875488,-5.922811508178711,-0.8231759667396545,0.7240899801254272,1.4329359531402588,254.70001220703125,-69.30000305175781,3.9000000953674316
1244630,-4.548279285430908,7.124480724334717,-6.158480167388916,-0.8079319596290588,0.739333987236023,1.5167779922485352,245.10000610351562,-69.30000305175781,9.300000190734863
1244650,-4.24262809753418,7.576676845550537,-6.345698833465576,-0.5640279650688171,0.17530599236488342,2.0122079849243164,242.70001220703125,-78.9000015258789,6.300000190734863
1244670,-4.1002702713012695,7.6681928634643555,-6.035860538482666,-1.0518360137939453,-0.6097599864006042,1.7301939725875854,254.70001220703125,-78.9000015258789,5.100000381469727
1244690,-3.972865581512451,7.533012390136719,-5.668002605438232,-1.2804960012435913,-0.4878079891204834,1.875011920928955,228.3000030517578,-64.5,2.1000001430511475
1244711,-3.886733055114746,7.8649821281433105,-5.657834529876709,-1.7301939725875854,0.2743920087814331,1.7759259939193726,247.50001525878906,-66.9000015258789,6.300000190734863
1244731,-4.114027500152588,7.780643939971924,-5.813351631164551,-1.8597679138183594,0.7850660085678101,1.371959924697876,237.90000915527344,-59.70000076293945,2.700000047683716
1244751,-4.209132194519043,8.053397178649902,-5.991598129272461,-1.92836594581604,0.8384199738502502,1.067080020904541,247.50001525878906,-54.900001525878906,6.300000190734863
1244771,-4.307227611541748,7.366130828857422,-5.955709457397461,-2.0045859813690186,0.5564059615135193,0.49542999267578125,240.3000030517578,-76.5,10.5
1244834,-3.8472557067871094,7.2835869789123535,-5.555552005767822,-2.4695279598236084,0.3048799932003021,2.6677000522613525,240.3000030517578,-78.9000015258789,2.700000047683716
1244854,-3.6522610187530518,7.110125541687012,-5.214610576629639,-2.743919849395752,-0.08384199440479279,3.1250200271606445,237.90000915527344,-74.10000610351562,12.90000057220459
1244874,-3.2108314037323,7.308709144592285,-5.023204803466797,-2.743919849395752,-0.08384199440479279,3.7957558631896973,223.50001525878906,-86.10000610351562,6.900000095367432
1244894,-3.1133341789245605,7.130462169647217,-4.881444931030273,-2.957335948944092,-0.04573199898004532,3.6280720233917236,225.90000915527344,-78.9000015258789,8.700000762939453
1244914,-3.118119239807129,6.93367338180542,-4.915538787841797,-2.8201398849487305,-0.10670799762010574,3.757645845413208,211.50001525878906,-86.10000610351562,8.700000762939453
1244938,-3.0331830978393555,7.220183849334717,-5.06627082824707,-2.545747995376587,-0.6021379828453064,3.7957558631896973,230.70001220703125,-95.70000457763672,8.100000381469727
1244958,-2.878862142562866,7.422356128692627,-5.112328052520752,-2.3704419136047363,-1.0594580173492432,3.803377866744995,221.10000610351562,-102.9000015258789,6.900000095367432
1244979,-2.7442798614501953,7.442094802856445,-4.98073673248291,-2.3704419136047363,-1.3872039318084717,3.6356940269470215,206.70001220703125,-107.70000457763672,2.1000001430511475
1244999,-2.7652149200439453,7.368523120880127,-4.8778557777404785,-2.591480016708374,-1.196653962135315,3.5747179985046387,211.50001525878906,-93.30000305175781,-3.9000000953674316
1245019,-2.878862142562866,7.547966003417969,-5.0154290199279785,-2.6219680309295654,-1.0899460315704346,3.49849796295166,209.10000610351562,-93.30000305175781,-1.5
1245041,-2.8507494926452637,7.5790696144104,-4.935277462005615,-2.6295900344848633,-1.2195199728012085,3.3231918811798096,209.10000610351562,-110.10000610351562,-3.3000001907348633
1245062,-2.855534553527832,7.6801557540893555,-4.91494083404541,-2.7591638565063477,-1.242385983467102,3.208861827850342,213.90000915527344,-110.10000610351562,-5.100000381469727
1245082,-2.6545584201812744,8.059378623962402,-5.049522876739502,-2.736297845840454,-1.2347639799118042,3.5899620056152344,201.90000915527344,-110.10000610351562,3.3000001907348633
1245124,-2.521770715713501,8.2382230758667,-4.88204288482666,-2.8582499027252197,-1.9740979671478271,3.3155698776245117,201.90000915527344,-117.30000305175781,-2.700000047683716
1245144,-2.43503999710083,8.455946922302246,-4.582373142242432,-2.949713945388794,-2.743919849395752,3.4756319522857666,206.70001220703125,-122.10000610351562,0.30000001192092896
1245168,-2.112640857696533,8.296242713928223,-4.270740985870361,-2.9116039276123047,-3.208861827850342,3.5975840091705322,187.5,-119.70000457763672,-8.700000762939453
1245192,-1.82553231716156,8.40869426727295,-4.066175937652588,-2.8201398849487305,-4.054903984069824,3.910085916519165,197.10000610351562,-124.50000762939453,-6.300000190734863
1245253,-1.193893313407898,8.694605827331543,-3.4835846424102783,-2.8658719062805176,-5.236313819885254,4.085391998291016,197.10000610351562,-141.3000030517578,-6.900000095367432
1245273,-0.718967854976654,9.20841121673584,-3.6044094562530518,-2.5152599811553955,-5.7164998054504395,4.710395812988281,177.90000915527344,-143.70001220703125,-2.700000047683716
1245293,-0.5807968378067017,9.395031929016113,-2.9703779220581055,-2.7591638565063477,-6.943641662597656,4.32167387008667,187.5,-141.3000030517578,-4.5
1245313,-0.5670395493507385,8.825599670410156,-2.340533494949341,-3.208861827850342,-6.989373683929443,4.077769756317139,180.3000030517578,-146.10000610351562,-11.700000762939453
1245333,-0.5556747913360596,8.499611854553223,-2.1413519382476807,-3.155508041381836,-6.6768717765808105,4.161612033843994,175.5,-143.70001220703125,-8.700000762939453
1245353,-0.3206046223640442,8.780738830566406,-1.9977974891662598,-2.6219680309295654,-6.227173805236816,5.1067399978637695,168.3000030517578,-146.10000610351562,-11.700000762939453
1245373,-0.2601921856403351,9.57387638092041,-1.8799633979797363,-2.7134318351745605,-5.975647926330566,5.434485912322998,163.5,-158.10000610351562,-17.100000381469727
1245393,-0.3768300712108612,10.22824478149414,-2.0522284507751465,-2.3475759029388428,-4.900945663452148,4.420759677886963,163.5,-160.5,-17.100000381469727
1245413,-0.31881019473075867,10.221665382385254,-2.0372750759124756,-2.187514066696167,-5.007653713226318,3.971061944961548,156.3000030517578,-155.70001220703125,-15.90000057220459
1245433,-0.37742820382118225,9.61574649810791,-1.4983481168746948,-2.080806016921997,-4.908567905426025,3.1783738136291504,156.3000030517578,-148.5,-20.100000381469727
1245455,-0.39058735966682434,9.72819709777832,-1.4869834184646606,-2.042695999145508,-4.367405891418457,3.239349842071533,161.10000610351562,-148.5,-17.100000381469727
1245476,-0.6208723783493042,9.295740127563477,-1.4552818536758423,-2.1036720275878906,-3.711913824081421,3.0869100093841553,151.5,-150.90000915527344,-15.90000057220459
1245498,-0.6884625554084778,9.188074111938477,-1.5743123292922974,-1.9436099529266357,-3.2164838314056396,3.399411916732788,156.3000030517578,-153.3000030517578,-17.100000381469727
1245518,-0.5532822608947754,8.951807975769043,-1.3972619771957397,-1.9131219387054443,-3.102154016494751,3.902463912963867,158.70001220703125,-172.5,-18.900001525878906
1245538,-0.12860073149204254,9.27001953125,-1.3595789670944214,-1.806414008140564,-2.8125178813934326,4.519845962524414,149.10000610351562,-150.90000915527344,-27.900001525878906
1245558,-0.059814296662807465,8.765785217285156,-1.1705658435821533,-2.179892063140869,-2.385685920715332,4.504601955413818,139.5,-167.70001220703125,-17.100000381469727
1245601,0.2924919128417969,9.063660621643066,-1.0808444023132324,-1.3872039318084717,-1.5701320171356201,4.6951518058776855,149.10000610351562,-155.70001220703125,-23.100000381469727
1245621,0.45578494668006897,8.929078102111816,-0.9384863376617432,-1.4024479389190674,-1.4329359531402588,4.268320083618164,139.5,-155.70001220703125,-21.30000114440918
1245641,0.5455064177513123,8.745448112487793,-0.709397554397583,-1.1128119230270386,-1.1356779336929321,3.9329519271850586,132.3000030517578,-162.90000915527344,-18.30000114440918
1245701,0.6220687031745911,9.16953182220459,-1.21602463722229,-0.1448179930448532,-0.2591480016708374,3.559473991394043,139.5,-174.90000915527344,-20.700000762939453
1245727,0.6232649683952332,9.02418327331543,-1.3015590906143188,0.23628199100494385,-0.2743920087814331,3.5213639736175537,113.10000610351562,-167.70001220703125,-23.700000762939453
1245748,0.7841654419898987,9.221570014953613,-1.2883999347686768,0.1448179930448532,-0.26677000522613525,3.6280720233917236,113.10000610351562,-172.5,-24.900001525878906
1245789,0.8230447173118591,9.50508975982666,-1.5091147422790527,-0.5259180068969727,0.19817200303077698,3.0640439987182617,108.30000305175781,-177.3000030517578,-23.700000762939453
1245852,0.8900367617607117,8.912330627441406,-1.0634982585906982,-0.510673999786377,0.3582339882850647,2.3475759029388428,98.70000457763672,-179.70001220703125,-23.700000762939453
1245872,1.035983681678772,8.87165641784668,-0.8511574268341064,-0.510673999786377,0.6021379828453064,2.1646480560302734,91.5,-179.70001220703125,-24.900001525878906
1245894,1.2321745157241821,9.185083389282227,-1.0593111515045166,-0.2591480016708374,1.2042759656906128,2.0045859813690186,89.10000610351562,-184.5,-24.30000114440918
1245914,1.4863852262496948,9.565502166748047,-1.0634982585906982,-0.114329993724823,1.2271419763565063,1.7378159761428833,96.30000305175781,-186.90000915527344,-26.700000762939453
1245934,1.7711013555526733,9.649242401123047,-1.1011812686920166,-0.19054999947547913,1.3567159175872803,1.2347639799118042,86.70000457763672,-167.70001220703125,-19.5
1245955,1.9397776126861572,9.53499698638916,-1.0216281414031982,0.060975998640060425,1.4024479389190674,0.7926880121231079,93.9000015258789,-182.10000610351562,-17.700000762939453
1245975,2.0821356773376465,9.613353729248047,-1.2243986129760742,0.3048799932003021,1.9512319564819336,0.4344539940357208,91.5,-184.5,-27.900001525878906
1245995,2.1736514568328857,9.851414680480957,-1.4983481168746948,0.5259180068969727,2.3475759029388428,0.07621999830007553,72.30000305175781,-182.10000610351562,-15.300000190734863
1246035,1.8853466510772705,9.273608207702637,-1.8560376167297363,0.4725639820098877,3.056421995162964,-1.1737879514694214,79.5,-177.3000030517578,-29.100000381469727
1246058,1.7836623191833496,9.382471084594727,-2.22389554977417,0.967993974685669,3.513741970062256,-0.9984819889068604,81.9000015258789,-182.10000610351562,-17.700000762939453
1246078,1.6670244932174683,9.562511444091797,-2.6719045639038086,1.295740008354187,4.161612033843994,-0.9984819889068604,81.9000015258789,-174.90000915527344,-21.900001525878906
1246100,1.8805614709854126,9.85859203338623,-3.657644271850586,1.6615959405899048,4.664663791656494,0.030487999320030212,65.10000610351562,-174.90000915527344,-19.5
1246120,2.060004472732544,10.11280345916748,-3.6624293327331543,1.4939119815826416,3.4832539558410645,0.8384199738502502,91.5,-177.3000030517578,-19.5
1246140,2.027106523513794,10.024277687072754,-3.5810818672180176,0.9832379817962646,3.0259339809417725,0.853663980960846,81.9000015258789,-174.90000915527344,-26.100000381469727
1246162,1.815363883972168,9.53798770904541,-3.5697171688079834,0.6478700041770935,2.835383892059326,0.5792719721794128,93.9000015258789,-184.5,-14.100000381469727
1246182,1.5563679933547974,9.072632789611816,-3.7342066764831543,0.9222619533538818,2.789651870727539,0.26677000522613525,84.30000305175781,-172.5,-17.100000381469727
1246202,1.4564781188964844,8.920703887939453,-3.8352928161621094,1.2576299905776978,2.1036720275878906,0.342989981174469,84.30000305175781,-177.3000030517578,-20.700000762939453
1246262,1.296773910522461,8.024685859680176,-3.449490547180176,0.5259180068969727,1.9588539600372314,-0.7545779943466187,86.70000457763672,-182.10000610351562,-20.100000381469727
1246282,1.2746427059173584,7.533610820770264,-3.398648262023926,0.457319974899292,1.6234859228134155,-0.571649968624115,86.70000457763672,-170.10000610351562,-21.900001525878906
1246306,1.2417447566986084,7.2716240882873535,-3.3460118770599365,0.3201240003108978,1.5548880100250244,0.228659987449646,69.9000015258789,-170.10000610351562,-17.100000381469727
1246327,1.5270589590072632,7.783036231994629,-3.6133816242218018,0.05335399881005287,1.2195199728012085,1.1356779336929321,72.30000305175781,-179.70001220703125,-17.700000762939453
1246347,1.619771122932434,7.8081583976745605,-3.5451934337615967,0.08384199440479279,0.8765299916267395,1.2271419763565063,84.30000305175781,-179.70001220703125,-12.90000057220459
1246367,1.8201490640640259,8.327346801757812,-3.7150659561157227,0.2591480016708374,0.5487840175628662,1.471045970916748,74.70000457763672,-174.90000915527344,-14.100000381469727
1246388,2.0408637523651123,8.72630786895752,-3.5984280109405518,-0.1600620001554489,-0.16768398880958557,1.0899460315704346,72.30000305175781,-172.5,-15.300000190734863
1246450,2.032489776611328,8.769373893737793,-4.020118713378906,0.015243999660015106,-0.8079319596290588,0.22103799879550934,81.9000015258789,-165.3000030517578,-17.100000381469727
1246470,1.8919261693954468,8.574379920959473,-3.984828472137451,0.07621999830007553,-0.9908599853515625,0.46494197845458984,77.10000610351562,-167.70001220703125,-15.90000057220459
1246490,1.8099806308746338,8.504995346069336,-3.8681905269622803,0.05335399881005287,-1.2576299905776978,0.7774440050125122,77.10000610351562,-172.5,-14.700000762939453
1246510,2.045050859451294,8.958985328674316,-3.7515528202056885,-0.07621999830007553,-1.3033620119094849,0.9908599853515625,67.5,-174.90000915527344,-17.700000762939453
1246573,2.0097603797912598,8.433218002319336,-3.380704164505005,-1.1356779336929321,-0.6554920077323914,0.35061198472976685,77.10000610351562,-174.90000915527344,-15.300000190734863
1246593,2.1951847076416016,8.391945838928223,-3.2156167030334473,-1.3414719104766846,-0.510673999786377,0.4420759975910187,60.30000305175781,-170.10000610351562,-24.30000114440918
1246613,2.3052430152893066,8.037845611572266,-2.9380781650543213,-1.471045970916748,-0.342989981174469,0.6936019659042358,60.30000305175781,-170.10000610351562,-15.300000190734863
1246633,2.4284603595733643,8.19934368133545,-2.9410688877105713,-1.242385983467102,-0.2591480016708374,1.14329993724823,65.10000610351562,-182.10000610351562,-15.300000190734863
1246653,2.3201966285705566,8.074332237243652,-2.8956100940704346,-1.3414719104766846,-0.20579399168491364,1.0518360137939453,72.30000305175781,-184.5,-11.100000381469727
1246673,2.334552049636841,8.125174522399902,-2.7951221466064453,-1.2271419763565063,-0.23628199100494385,1.0442140102386475,57.900001525878906,-179.70001220703125,-14.100000381469727
1246693,2.536724328994751,8.78193473815918,-2.9045822620391846,-0.9984819889068604,-0.25152599811553955,0.9222619533538818,62.70000076293945,-177.3000030517578,-16.5
1246713,2.4846858978271484,8.370412826538086,-2.679680585861206,-1.5701320171356201,-0.36585599184036255,0.114329993724823,72.30000305175781,-189.3000030517578,-23.700000762939453
1246733,2.537322521209717,8.539687156677246,-2.7616260051727295,-0.9375059604644775,-0.4039659798145294,0.26677000522613525,77.10000610351562,-170.10000610351562,-18.900001525878906
1246753,2.2191104888916016,8.564210891723633,-2.8124682903289795,-0.5564059615135193,-0.7164679765701294,-0.114329993724823,74.70000457763672,-174.90000915527344,-15.300000190734863
1246773,2.1892032623291016,8.712550163269043,-2.7771778106689453,-0.39634400606155396,-1.013725996017456,-0.15243999660015106,77.10000610351562,-184.5,-13.500000953674316
1246793,2.1838200092315674,8.457143783569336,-2.459563970565796,-0.7317119836807251,-1.4100699424743652,-0.4420759975910187,69.9000015258789,-182.10000610351562,-24.30000114440918
1246813,2.241241693496704,8.22326946258545,-2.268158197402954,-0.8079319596290588,-1.5015339851379395,-0.22103799879550934,62.70000076293945,-172.5,-15.300000190734863
1246877,2.2071475982666016,9.322656631469727,-2.0127511024475098,-1.0975680351257324,-1.9740979671478271,-0.36585599184036255,65.10000610351562,-179.70001220703125,-24.900001525878906
1246897,2.530742883682251,9.88371467590332,-2.274139642715454,-0.5259180068969727,-1.6768399477005005,0.07621999830007553,67.5,-184.5,-8.700000762939453
1246917,2.772392749786377,11.154767990112305,-2.46494722366333,-0.4725639820098877,-1.5625100135803223,0.967993974685669,62.70000076293945,-170.10000610351562,-18.30000114440918
1246939,3.4710235595703125,12.948598861694336,-2.551677942276001,-1.0289700031280518,-2.2103798389434814,2.195136070251465,55.500003814697266,-179.70001220703125,-19.5
1246979,1.4869834184646606,9.941136360168457,-1.2561002969741821,-2.1189160346984863,-1.7454379796981812,-3.711913824081421,65.10000610351562,-177.3000030517578,-23.700000762939453
1247000,0.7949320077896118,9.740757942199707,-1.3751306533813477,-1.5015339851379395,-1.3490939140319824,-2.652456045150757,74.70000457763672,-177.3000030517578,-27.900001525878906
1247020,0.9642064571380615,9.843040466308594,-1.3535975217819214,-1.829279899597168,-1.196653962135315,-2.6219680309295654,72.30000305175781,-179.70001220703125,-24.900001525878906
1247041,0.7728007435798645,8.828590393066406,-1.302755355834961,-1.9207439422607422,-1.4939119815826416,-3.0792880058288574,67.5,-179.70001220703125,-18.900001525878906
1247061,0.6753033995628357,8.185586929321289,-1.031198501586914,-1.4100699424743652,-1.7987920045852661,-1.7987920045852661,67.5,-167.70001220703125,-23.700000762939453
1247104,1.1789398193359375,7.645463466644287,-0.6250594258308411,-1.7454379796981812,-0.8765299916267395,0.9908599853515625,77.10000610351562,-177.3000030517578,-19.5
1247124,1.8249342441558838,8.32973861694336,-0.6687238216400146,-1.4100699424743652,-0.09146399796009064,2.1112940311431885,77.10000610351562,-179.70001220703125,-23.100000381469727
1247167,2.393170118331909,9.48415470123291,-0.8499611616134644,-1.5625100135803223,0.7240899801254272,2.332331895828247,74.70000457763672,-167.70001220703125,-24.900001525878906
1247228,2.0976874828338623,9.01222038269043,-1.0186375379562378,-0.8612859845161438,0.8917739987373352,1.242385983467102,69.9000015258789,-179.70001220703125,-23.100000381469727
1247288,2.1772403717041016,9.29813289642334,-1.1364716291427612,0.13719600439071655,0.4878079891204834,1.2271419763565063,62.70000076293945,-184.5,-26.100000381469727
1247309,2.089313507080078,9.314282417297363,-1.125106930732727,0.10670799762010574,0.5259180068969727,1.0594580173492432,62.70000076293945,-177.3000030517578,-20.100000381469727
1247349,2.0761542320251465,8.939845085144043,-1.0168430805206299,-0.16768398880958557,0.5792719721794128,0.6478700041770935,55.500003814697266,-186.90000915527344,-20.700000762939453
1247369,2.0522284507751465,8.905750274658203,-0.9779637455940247,-0.1600620001554489,0.8384199738502502,0.7926880121231079,48.30000305175781,-182.10000610351562,-22.5
1247389,2.1473333835601807,9.06784725189209,-0.9881321787834167,-0.07621999830007553,1.021347999572754,1.0289700031280518,45.900001525878906,-179.70001220703125,-20.100000381469727
1247413,2.035480499267578,9.033753395080566,-0.8924292922019958,-0.3048799932003021,1.4024479389190674,0.7774440050125122,65.10000610351562,-182.10000610351562,-21.30000114440918
1247433,2.002582550048828,8.97513484954834,-0.8547462821006775,-0.1448179930448532,1.5853760242462158,0.5335400104522705,43.5,-172.5,-21.30000114440918
1247453,2.0911078453063965,9.432116508483887,-0.9725804924964905,0.030487999320030212,1.6158639192581177,0.3201240003108978,45.900001525878906,-177.3000030517578,-22.5
1247555,2.6934378147125244,9.664793968200684,-1.2931851148605347,0.6707359552383423,0.7469559907913208,0.6936019659042358,43.5,-189.3000030517578,-26.700000762939453
1247585,2.7197561264038086,9.003846168518066,-1.2895961999893188,0.3582339882850647,0.6478700041770935,0.739333987236023,41.10000228881836,-189.3000030517578,-21.900001525878906
1247645,3.3735263347625732,8.900965690612793,-1.1627899408340454,-0.1295740008354187,1.013725996017456,1.021347999572754,45.900001525878906,-184.5,-26.700000762939453
1247685,3.3609652519226074,8.585145950317383,-1.508516550064087,0.060975998640060425,1.7149499654769897,0.9070180058479309,38.70000076293945,-184.5,-28.500001907348633
1247712,3.9010884761810303,9.87653636932373,-1.9684885740280151,0.571649968624115,2.042695999145508,1.4558019638061523,38.70000076293945,-186.90000915527344,-18.900001525878906
1247733,3.377115249633789,8.705970764160156,-1.845271110534668,-0.685979962348938,2.3018438816070557,0.19054999947547913,33.900001525878906,-179.70001220703125,-21.30000114440918
1247773,2.9829390048980713,8.662904739379883,-2.962602138519287,0.38109999895095825,2.39330792427063,0.46494197845458984,50.70000076293945,-165.3000030517578,-22.5
1247793,2.9649946689605713,8.523537635803223,-2.874077081680298,0.5945159792900085,1.6082419157028198,-0.02286599949002266,41.10000228881836,-177.3000030517578,-24.30000114440918
1247813,2.9458541870117188,8.57079029083252,-3.076249361038208,1.1051899194717407,1.5015339851379395,-0.3048799932003021,41.10000228881836,-182.10000610351562,-17.100000381469727
1247855,2.8040943145751953,9.08698844909668,-3.341226577758789,1.371959924697876,0.3277460038661957,-0.5259180068969727,45.900001525878906,-184.5,-20.100000381469727
1247972,2.536126136779785,8.66948413848877,-3.019425630569458,0.2439039945602417,0.08384199440479279,-1.9893419742584229,53.10000228881836,-177.3000030517578,-16.5
1248032,2.8304126262664795,8.408095359802246,-2.7281301021575928,-0.5487840175628662,0.09908600151538849,-0.6707359552383423,48.30000305175781,-191.70001220703125,-19.5
1248070,3.0182294845581055,8.512770652770996,-2.6067070960998535,-0.5868939757347107,0.02286599949002266,0.5487840175628662,62.70000076293945,-179.70001220703125,-18.900001525878906
1248092,3.1288859844207764,8.580361366271973,-2.4511899948120117,-0.7698220014572144,-0.02286599949002266,0.7850660085678101,45.900001525878906,-189.3000030517578,-18.30000114440918
1248132,3.1934852600097656,8.338112831115723,-2.542107582092285,-0.8079319596290588,0.030487999320030212,0.5564059615135193,43.5,-174.90000915527344,-18.30000114440918
1248173,3.350796937942505,8.415273666381836,-2.5474908351898193,-0.33536797761917114,-0.5030519962310791,0.28201398253440857,45.900001525878906,-179.70001220703125,-15.300000190734863
1248236,3.6385037899017334,8.492433547973633,-2.4727230072021484,-0.19817200303077698,-0.7469559907913208,0.3734779953956604,31.500001907348633,-179.70001220703125,-17.100000381469727
1248256,3.6791775226593018,8.356057167053223,-2.549285411834717,-0.739333987236023,-0.6402480006217957,0.426831990480423,53.10000228881836,-179.70001220703125,-16.5
1248276,3.6714015007019043,8.668288230895996,-2.6240532398223877,-0.2591480016708374,-0.6707359552383423,0.9603719711303711,41.10000228881836,-189.3000030517578,-18.30000114440918
1248296,4.136158466339111,9.829283714294434,-2.956620693206787,0.007621999830007553,-0.3734779953956604,1.9054999351501465,43.5,-191.70001220703125,-18.900001525878906
1248316,3.9926042556762695,9.524828910827637,-2.7251393795013428,-1.0061039924621582,-1.1051899194717407,0.9222619533538818,43.5,-182.10000610351562,-20.100000381469727
1248356,3.2921788692474365,8.649147033691406,-1.8991038799285889,-0.8307979702949524,-1.067080020904541,1.5320219993591309,29.100000381469727,-189.3000030517578,-15.90000057220459
1248376,2.9039840698242188,8.864479064941406,-1.8141676187515259,-1.3872039318084717,-0.8460419774055481,0.8689079880714417,31.500001907348633,-182.10000610351562,-20.700000762939453
1248397,2.6402029991149902,9.121082305908203,-1.4917685985565186,-1.4558019638061523,-1.3567159175872803,0.49542999267578125,50.70000076293945,-182.10000610351562,-22.5
1248438,1.9320018291473389,9.204822540283203,-1.0491427183151245,-1.8673899173736572,-1.2195199728012085,-0.8155539631843567,31.500001907348633,-184.5,-21.900001525878906
1248458,1.8087843656539917,8.677260398864746,-0.7961282730102539,-1.3338500261306763,-1.6387299299240112,-0.8231759667396545,50.70000076293945,-182.10000610351562,-26.100000381469727
1248478,2.092902183532715,9.345385551452637,-0.6759015321731567,-0.49542999267578125,-1.4481799602508545,0.19054999947547913,33.900001525878906,-172.5,-19.5
1248538,2.2310733795166016,10.02906322479248,-0.8134744167327881,-0.13719600439071655,-0.7012239694595337,0.3734779953956604,38.70000076293945,-186.90000915527344,-24.30000114440918
1248561,2.095892906188965,9.75930118560791,-0.8427834510803223,-0.39634400606155396,-0.26677000522613525,-0.25152599811553955,41.10000228881836,-179.70001220703125,-19.5
1248581,2.015143632888794,9.35076904296875,-0.9229345917701721,-0.49542999267578125,-0.1295740008354187,-0.5259180068969727,33.900001525878906,-189.3000030517578,-24.30000114440918
1248601,2.011554718017578,9.26104736328125,-1.0383762121200562,-0.3734779953956604,-0.007621999830007553,-0.5030519962310791,36.30000305175781,-194.10000610351562,-21.900001525878906
1248621,1.9678903818130493,9.22635555267334,-1.1867156028747559,-0.510673999786377,0.060975998640060425,-0.5945159792900085,24.30000114440918,-191.70001220703125,-16.5
1248644,1.9367868900299072,8.665895462036133,-1.2728482484817505,-0.7469559907913208,0.114329993724823,-0.8079319596290588,43.5,-179.70001220703125,-20.700000762939453
1248664,2.137763023376465,8.896778106689453,-1.2154265642166138,-0.09908600151538849,-0.22103799879550934,-0.09908600151538849,31.500001907348633,-196.50001525878906,-22.5
1248684,2.4009459018707275,9.192859649658203,-1.117929220199585,-0.36585599184036255,0.10670799762010574,-0.06859800219535828,38.70000076293945,-186.90000915527344,-27.900001525878906
1248705,2.3441224098205566,8.987696647644043,-1.1065645217895508,-0.6097599864006042,0.3734779953956604,-0.13719600439071655,41.10000228881836,-186.90000915527344,-21.30000114440918
1248725,2.4099180698394775,8.838160514831543,-0.92173832654953,-0.5640279650688171,0.35061198472976685,-0.05335399881005287,43.5,-172.5,-23.100000381469727
1248745,2.19099760055542,8.367422103881836,-0.8559426069259644,-0.7926880121231079,0.7469559907913208,-0.20579399168491364,31.500001907348633,-177.3000030517578,-21.30000114440918
1248765,2.3267762660980225,9.197046279907227,-1.1478363275527954,0.114329993724823,0.9984819889068604,0.2439039945602417,33.900001525878906,-177.3000030517578,-23.700000762939453
1248785,3.0158369541168213,10.734871864318848,-1.628743290901184,0.4039659798145294,0.4420759975910187,-0.18292799592018127,38.70000076293945,-179.70001220703125,-19.5
1248807,2.3351502418518066,8.473891258239746,-1.24593186378479,0.05335399881005287,0.06859800219535828,-1.8216580152511597,43.5,-186.90000915527344,-17.100000381469727
1248827,2.2615785598754883,8.030069351196289,-1.5928547382354736,1.4329359531402588,0.16768398880958557,-0.33536797761917114,31.500001907348633,-177.3000030517578,-23.700000762939453
1248847,2.6240532398223877,9.09177303314209,-1.937385082244873,1.524399995803833,-0.10670799762010574,0.6783579587936401,41.10000228881836,-174.90000915527344,-19.5
1248867,2.8417773246765137,8.999659538269043,-2.0193307399749756,1.2042759656906128,-0.3277460038661957,0.4725639820098877,41.10000228881836,-177.3000030517578,-20.100000381469727
1248911,3.2658605575561523,8.759803771972656,-1.9571237564086914,0.3734779953956604,-0.36585599184036255,1.021347999572754,43.5,-186.90000915527344,-21.30000114440918
1248973,3.64807391166687,8.95539665222168,-1.9732736349105835,-0.07621999830007553,-0.28201398253440857,0.7774440050125122,31.500001907348633,-182.10000610351562,-18.30000114440918
1248995,3.636709213256836,8.63180160522461,-2.017536163330078,-0.8765299916267395,0.5259180068969727,0.3582339882850647,29.100000381469727,-167.70001220703125,-27.30000114440918
1249015,3.63611102104187,8.548659324645996,-2.2400453090667725,-0.8384199738502502,0.5945159792900085,0.457319974899292,36.30000305175781,-179.70001220703125,-26.100000381469727
1249035,3.549380302429199,8.438002586364746,-2.041461944580078,-0.41158798336982727,0.3582339882850647,0.8993960022926331,33.900001525878906,-172.5,-18.30000114440918
1249055,3.5697171688079834,9.050500869750977,-1.9714791774749756,-0.571649968624115,0.457319974899292,1.1204339265823364,33.900001525878906,-177.3000030517578,-18.900001525878906
1249098,3.299954891204834,8.64376449584961,-2.1329777240753174,-0.9375059604644775,0.9451279640197754,0.20579399168491364,24.30000114440918,-184.5,-11.100000381469727
1249118,3.055314302444458,8.570192337036133,-2.2878968715667725,-0.571649968624115,0.8689079880714417,0.04573199898004532,36.30000305175781,-186.90000915527344,-24.30000114440918
1249138,3.070267915725708,8.870460510253906,-2.2520081996917725,-0.12195199728012085,0.5792719721794128,0.16768398880958557,19.5,-179.70001220703125,-20.700000762939453
1249158,2.9823408126831055,8.900367736816406,-2.277728319168091,-0.28201398253440857,0.7240899801254272,0,26.700000762939453,-182.10000610351562,-23.100000381469727
1249180,2.8980026245117188,8.86089038848877,-2.2603821754455566,-0.33536797761917114,0.7317119836807251,0.06859800219535828,36.30000305175781,-196.50001525878906,-27.900001525878906
1249200,2.795720338821411,8.72630786895752,-2.1503238677978516,-0.33536797761917114,0.7850660085678101,0.05335399881005287,33.900001525878906,-186.90000915527344,-21.900001525878906
1249220,2.768803834915161,8.84773063659668,-2.193390369415283,-0.2972579896450043,0.8460419774055481,0.12195199728012085,21.900001525878906,-174.90000915527344,-24.30000114440918
1249282,2.5702202320098877,8.621034622192383,-2.4781062602996826,-0.015243999660015106,1.1128119230270386,-0.39634400606155396,38.70000076293945,-182.10000610351562,-17.700000762939453
1249411,2.6808767318725586,9.103137969970703,-2.6988210678100586,0.015243999660015106,-0.08384199440479279,0.2896359860897064,24.30000114440918,-177.3000030517578,-20.700000762939453
1249451,2.9195358753204346,8.81782341003418,-2.319000244140625,0.015243999660015106,-0.7012239694595337,-0.228659987449646,38.70000076293945,-179.70001220703125,-18.30000114440918
1249471,2.924320936203003,8.85969352722168,-2.324981689453125,0.060975998640060425,-0.7469559907913208,-0.28201398253440857,29.100000381469727,-170.10000610351562,-14.700000762939453
1249511,3.2688512802124023,8.71733570098877,-1.9218333959579468,-0.5182960033416748,-0.2591480016708374,-0.7240899801254272,24.30000114440918,-174.90000915527344,-19.5
1249551,3.258084774017334,8.97633171081543,-1.8207472562789917,-0.39634400606155396,0.5030519962310791,0.114329993724823,17.100000381469727,-182.10000610351562,-20.100000381469727
1249571,3.102567672729492,8.653932571411133,-1.8685986995697021,-0.9070180058479309,0.8993960022926331,0.038109999150037766,24.30000114440918,-189.3000030517578,-23.700000762939453
1249595,3.034977436065674,8.694007873535156,-2.107257604598999,-0.5792719721794128,0.8612859845161438,0.3277460038661957,26.700000762939453,-177.3000030517578,-21.30000114440918
1249638,3.150418996810913,9.089380264282227,-1.9128612279891968,-0.2743920087814331,0.2896359860897064,0.6021379828453064,19.5,-191.70001220703125,-24.30000114440918
1249658,3.066679000854492,9.037342071533203,-1.8416821956634521,-0.571649968624115,0.41158798336982727,0.16768398880958557,29.100000381469727,-172.5,-17.700000762939453
1249678,2.965592861175537,8.688624382019043,-1.84048593044281,-0.41158798336982727,0.33536797761917114,0.05335399881005287,26.700000762939453,-182.10000610351562,-18.900001525878906
1249700,2.9673871994018555,8.588136672973633,-1.8602246046066284,-0.2591480016708374,0.2439039945602417,0.12195199728012085,21.900001525878906,-174.90000915527344,-26.100000381469727
1249720,2.9949018955230713,8.741859436035156,-2.044452667236328,0.060975998640060425,0.2134159952402115,0.28201398253440857,19.5,-170.10000610351562,-23.100000381469727
1249740,2.858525276184082,8.64077377319336,-2.119220495223999,0.13719600439071655,0.05335399881005287,0.06859800219535828,31.500001907348633,-189.3000030517578,-19.5
1249760,2.977555751800537,9.01999568939209,-2.065985918045044,0.3734779953956604,-0.23628199100494385,0.04573199898004532,43.5,-184.5,-18.900001525878906
1249820,3.073856830596924,8.790308952331543,-1.8721874952316284,-0.2591480016708374,0.10670799762010574,-0.8079319596290588,26.700000762939453,-184.5,-18.30000114440918
1249840,3.027799606323242,8.65273666381836,-1.8656079769134521,-0.35061198472976685,0.36585599184036255,-0.7850660085678101,36.30000305175781,-189.3000030517578,-18.900001525878906
1249864,3.114530563354492,8.882423400878906,-1.9218333959579468,-0.12195199728012085,0.4192099869251251,-0.6326259970664978,31.500001907348633,-182.10000610351562,-11.700000762939453
1249885,3.19587779045105,8.695204734802246,-1.9631052017211914,-0.3582339882850647,0.510673999786377,-0.6326259970664978,17.100000381469727,-184.5,-19.5
1249926,3.1552040576934814,8.839356422424316,-1.9565256834030151,-0.015243999660015106,0.2439039945602417,-0.3277460038661957,26.700000762939453,-189.3000030517578,-18.900001525878906
1249946,3.3244786262512207,8.78313159942627,-1.9654978513717651,-0.28201398253440857,0.342989981174469,-0.4725639820098877,31.500001907348633,-174.90000915527344,-15.300000190734863
1249968,3.2532997131347656,8.490041732788086,-2.0097603797912598,-0.3734779953956604,0.457319974899292,-0.4420759975910187,31.500001907348633,-186.90000915527344,-24.900001525878906
1249988,3.159391164779663,8.353066444396973,-1.9780588150024414,-0.20579399168491364,0.3277460038661957,-0.09146399796009064,33.900001525878906,-177.3000030517578,-15.300000190734863
1250010,3.594241142272949,8.896778106689453,-1.6640337705612183,-0.19054999947547913,0,0.6478700041770935,36.30000305175781,-189.3000030517578,-12.300000190734863
1250030,3.618166923522949,8.653334617614746,-1.6042194366455078,-0.6554920077323914,0.2896359860897064,0.6783579587936401,36.30000305175781,-179.70001220703125,-23.700000762939453
1250050,3.645681381225586,8.87584400177002,-1.515694260597229,-0.4344539940357208,0.22103799879550934,0.7317119836807251,36.30000305175781,-184.5,-28.500001907348633
1250073,3.3639559745788574,8.57976245880127,-1.7519607543945312,-0.5564059615135193,0.5259180068969727,0.16768398880958557,26.700000762939453,-191.70001220703125,-15.300000190734863
1250093,3.493155002593994,8.689821243286133,-1.7824660539627075,-0.030487999320030212,-0.015243999660015106,0.09146399796009064,31.500001907348633,-184.5,-14.100000381469727
1250113,3.46982741355896,8.80705738067627,-1.85244882106781,-0.06859800219535828,0.12195199728012085,0.08384199440479279,38.70000076293945,-179.70001220703125,-21.900001525878906
1250133,3.0206220149993896,8.738868713378906,-2.035480499267578,-0.25152599811553955,0.06859800219535828,-0.030487999320030212,33.900001525878906,-182.10000610351562,-12.90000057220459
1250156,3.039762496948242,8.873451232910156,-2.092304229736328,-0.08384199440479279,-0.2591480016708374,-0.06859800219535828,33.900001525878906,-186.90000915527344,-21.30000114440918
1250176,3.066679000854492,9.152185440063477,-2.402142286300659,-0.18292799592018127,-0.09908600151538849,-0.2896359860897064,29.100000381469727,-182.10000610351562,-20.100000381469727
1250196,2.7861499786376953,8.397927284240723,-2.3387389183044434,-0.5792719721794128,-0.48018598556518555,-0.6250039935112,26.700000762939453,-179.70001220703125,-12.90000057220459
1250216,2.855534553527832,8.714942932128906,-2.342327833175659,0.13719600439071655,-0.6783579587936401,-0.02286599949002266,21.900001525878906,-167.70001220703125,-24.30000114440918
1250237,2.7382984161376953,9.00025749206543,-2.2250919342041016,-0.3277460038661957,-0.7088459730148315,-0.5030519962310791,33.900001525878906,-198.90000915527344,-18.900001525878906
1250257,2.8722825050354004,8.75920581817627,-2.092304229736328,-0.6097599864006042,-0.6097599864006042,-0.3277460038661957,29.100000381469727,-177.3000030517578,-23.700000762939453
1250277,2.805290460586548,8.73228931427002,-2.1658756732940674,-0.5564059615135193,-0.41158798336982727,0.038109999150037766,26.700000762939453,-177.3000030517578,-28.500001907348633
1250297,2.629436492919922,8.80107593536377,-1.9367868900299072,-0.4420759975910187,-0.5868939757347107,0.4420759975910187,31.500001907348633,-186.90000915527344,-25.500001907348633
1250337,2.5020320415496826,9.139026641845703,-1.9367868900299072,-0.6097599864006042,0.060975998640060425,0.20579399168491364,24.30000114440918,-182.10000610351562,-16.5
1250359,2.2256898880004883,8.79210376739502,-2.0791449546813965,-0.4725639820098877,-0.3048799932003021,0.17530599236488342,38.70000076293945,-170.10000610351562,-21.900001525878906
1250379,1.9541330337524414,9.018799781799316,-2.006171464920044,0.02286599949002266,-0.5259180068969727,0.4420759975910187,29.100000381469727,-184.5,-24.30000114440918
1250401,1.7818678617477417,9.107324600219727,-2.139557361602783,0.007621999830007553,-0.41158798336982727,-0.3277460038661957,17.100000381469727,-182.10000610351562,-19.5
1250421,2.6132867336273193,9.182092666625977,-1.7800735235214233,0.19054999947547913,-0.5411620140075684,-0.4039659798145294,12.300000190734863,-174.90000915527344,-16.5
1250441,2.2370548248291016,8.970948219299316,-1.8566358089447021,0.18292799592018127,0.853663980960846,-0.4420759975910187,24.30000114440918,-186.90000915527344,-27.900001525878906
1250461,1.0760592222213745,10.3137788772583,-2.4810969829559326,1.295740008354187,1.3567159175872803,-0.3201240003108978,26.700000762939453,-179.70001220703125,-21.30000114440918
1250523,2.2968690395355225,8.3518705368042,-1.411617398262024,0.5487840175628662,0.5030519962310791,-0.7698220014572144,24.30000114440918,-182.10000610351562,-22.5
1250543,2.3734312057495117,9.051697731018066,-1.696333408355713,0.6707359552383423,1.0899460315704346,1.2271419763565063,33.900001525878906,-179.70001220703125,-21.30000114440918
1250563,2.845964193344116,9.790404319763184,-1.3123257160186768,0.08384199440479279,0.7774440050125122,1.6844619512557983,26.700000762939453,-167.70001220703125,-18.30000114440918
1250583,3.118119239807129,9.2401123046875,-1.1286958456039429,-1.0061039924621582,1.5396440029144287,0.5487840175628662,31.500001907348633,-186.90000915527344,-21.30000114440918
1250603,2.9673871994018555,8.535500526428223,-1.4564781188964844,-0.5411620140075684,1.882633924484253,-0.10670799762010574,41.10000228881836,-177.3000030517578,-19.5
1250626,2.831010580062866,8.676063537597656,-1.0784517526626587,0.5868939757347107,1.14329993724823,0.3125019967556,26.700000762939453,-184.5,-20.700000762939453
1250646,2.932694911956787,9.377087593078613,-1.5491902828216553,0.2896359860897064,1.5548880100250244,-0.15243999660015106,9.90000057220459,-184.5,-26.100000381469727
1250726,2.741887331008911,8.74604606628418,-2.572014808654785,1.4634239673614502,-0.23628199100494385,-0.39634400606155396,19.5,-189.3000030517578,-21.30000114440918
1250768,3.7808616161346436,8.540285110473633,-2.0318915843963623,0.228659987449646,-0.8689079880714417,-0.2591480016708374,43.5,-179.70001220703125,-17.100000381469727
1250788,3.7222437858581543,7.945133209228516,-2.179034948348999,-0.114329993724823,-0.07621999830007553,0.3125019967556,43.5,-177.3000030517578,-20.100000381469727
1250828,4.20973014831543,9.448864936828613,-2.4272642135620117,-0.8384199738502502,0.41158798336982727,0.6554920077323914,29.100000381469727,-189.3000030517578,-18.900001525878906
1250872,4.16786003112793,8.013919830322266,-2.307635545730591,-1.3567159175872803,1.425313949584961,-0.06859800219535828,21.900001525878906,-179.70001220703125,-17.700000762939453
1250951,3.6911401748657227,8.137137413024902,-3.081632614135742,0.457319974899292,1.5396440029144287,0.23628199100494385,21.900001525878906,-174.90000915527344,-15.90000057220459
1250971,3.585867166519165,8.024087905883789,-3.0391645431518555,0.3734779953956604,1.4481799602508545,0.2439039945602417,9.90000057220459,-177.3000030517578,-20.100000381469727
1251013,3.2383460998535156,7.841654300689697,-2.8956100940704346,-0.2896359860897064,1.1280559301376343,-0.44969800114631653,31.500001907348633,-189.3000030517578,-10.5
1251033,3.183915138244629,7.7333903312683105,-2.935685634613037,-0.18292799592018127,0.6936019659042358,-0.6631140112876892,21.900001525878906,-177.3000030517578,-14.100000381469727
1251056,3.1707558631896973,7.580265998840332,-2.9249191284179688,-0.17530599236488342,0.3582339882850647,-0.7926880121231079,26.700000762939453,-179.70001220703125,-21.900001525878906
1251078,4.008155822753906,9.285571098327637,-3.4183871746063232,0.9375059604644775,0.4039659798145294,0.5792719721794128,17.100000381469727,-186.90000915527344,-18.30000114440918
1251099,4.5147833824157715,9.20242977142334,-3.6325223445892334,-0.12195199728012085,-0.8460419774055481,-0.2743920087814331,31.500001907348633,-191.70001220703125,-16.5
1251120,3.9148457050323486,7.609574794769287,-2.7771778106689453,-0.18292799592018127,-1.6768399477005005,-0.22103799879550934,14.700000762939453,-167.70001220703125,-21.900001525878906
1251143,4.22468376159668,8.85072135925293,-2.483489513397217,-0.4725639820098877,-1.5396440029144287,1.14329993724823,14.700000762939453,-179.70001220703125,-18.30000114440918
1251164,4.178028583526611,8.912330627441406,-2.2992615699768066,-1.189031958580017,-0.7240899801254272,0.22103799879550934,26.700000762939453,-189.3000030517578,-18.900001525878906
1251184,3.9274067878723145,8.61266040802002,-2.2938783168792725,-1.425313949584961,-0.41158798336982727,-0.3125019967556,29.100000381469727,-179.70001220703125,-23.700000762939453
1251204,3.758132219314575,8.40271282196045,-2.1060614585876465,-1.5015339851379395,-0.3582339882850647,-0.6783579587936401,19.5,-186.90000915527344,-21.900001525878906
1251224,3.5158843994140625,8.086295127868652,-1.943366527557373,-1.3567159175872803,-0.25152599811553955,-0.9375059604644775,14.700000762939453,-182.10000610351562,-24.900001525878906
1251244,3.5601470470428467,8.38955307006836,-1.8680005073547363,-0.9603719711303711,-0.28201398253440857,-0.8155539631843567,26.700000762939453,-189.3000030517578,-17.700000762939453
1251326,1.019235610961914,3.078641891479492,-0.706406831741333,-1.935987949371338,-0.342989981174469,-2.2713558673858643,31.500001907348633,-186.90000915527344,-15.300000190734863
1251366,0.4946642518043518,3.9214253425598145,-0.5939559936523438,-0.739333987236023,0.3048799932003021,5.907049655914307,31.500001907348633,-194.10000610351562,-21.900001525878906
1251389,1.2124358415603638,8.734084129333496,-0.9426733255386353,-0.9756159782409668,1.875011920928955,10.015307426452637,9.90000057220459,-184.5,-23.100000381469727
1251431,2.8088793754577637,15.503267288208008,-3.4052278995513916,-1.5320219993591309,3.810999870300293,-0.7621999979019165,2.700000047683716,-182.10000610351562,-23.100000381469727
1251451,3.783254384994507,16.50396156311035,-4.491455554962158,2.4085519313812256,4.74850606918335,1.2652519941329956,0.30000001192092896,-179.70001220703125,-21.900001525878906
1251471,9.331029891967773,19.599349975585938,-5.896493434906006,1.425313949584961,5.327777862548828,12.43148136138916,2.700000047683716,-179.70001220703125,-30.900001525878906
1251493,14.94998550415039,19.580209732055664,-5.573496341705322,-2.1112940311431885,0.49542999267578125,10.182991981506348,-21.30000114440918,-179.70001220703125,-25.500001907348633
1251513,9.719822883605957,19.599349975585938,-3.808974504470825,1.935987949371338,-3.048799991607666,-6.989373683929443,-23.700000762939453,-179.70001220703125,-23.100000381469727
1251537,6.942047119140625,16.26470375061035,-4.655346870422363,3.0183119773864746,-0.9756159782409668,-5.853695869445801,-16.5,-184.5,-23.100000381469727
1251557,4.9765496253967285,12.626199722290039,-3.4506866931915283,0.06859800219535828,-4.4436259269714355,-6.2805280685424805,-6.900000095367432,-174.90000915527344,-19.5
1251579,3.1468300819396973,7.787821292877197,-1.4923666715621948,0.3277460038661957,-6.577785968780518,-11.044278144836426,0.30000001192092896,-184.5,-18.30000114440918
1251599,-0.35230621695518494,0.11603973805904388,0.3636709153652191,0.04573199898004532,-4.580821990966797,-12.370505332946777,12.300000190734863,-177.3000030517578,-14.700000762939453
1251619,-0.9767674803733826,-1.0186375379562378,0.43066293001174927,-0.5259180068969727,-2.690565824508667,-8.582371711730957,29.100000381469727,-174.90000915527344,-15.300000190734863
1251639,-0.6292464137077332,-0.9899266362190247,0.26976248621940613,-2.28659987449646,-0.7621999979019165,-2.2561118602752686,31.500001907348633,-189.3000030517578,-21.900001525878906
1251699,0.9947117567062378,0.3792226314544678,0.6346296668052673,-1.2347639799118042,-0.28201398253440857,1.2042759656906128,36.30000305175781,-177.3000030517578,-18.30000114440918
1251745,0.09211401641368866,-0.36426907777786255,0.3223990499973297,-1.875011920928955,0.12195199728012085,0.46494197845458984,14.700000762939453,-184.5,-21.30000114440918
1251794,-0.014953574165701866,-0.47612181305885315,0.36725977063179016,-0.038109999150037766,-0.2743920087814331,0.6631140112876892,29.100000381469727,-182.10000610351562,-15.300000190734863
1251814,0.9043921828269958,1.4594688415527344,0.05622543767094612,0.7317119836807251,0.16768398880958557,2.179892063140869,19.5,-184.5,-28.500001907348633
1251854,3.43692946434021,9.531408309936523,-2.032489776611328,2.2103798389434814,6.836933612823486,12.454347610473633,5.100000381469727,-165.3000030517578,-17.700000762939453
1251877,6.754828453063965,17.38382911682129,-5.043541431427002,0.3048799932003021,10.449761390686035,18.4909725189209,2.700000047683716,-179.70001220703125,-24.30000114440918
1251917,12.761978149414062,19.599349975585938,-4.329957008361816,2.736297845840454,0.967993974685669,-3.2241058349609375,-14.100000381469727,-182.10000610351562,-22.5
1251941,19.599349975585938,19.599349975585938,-8.463125228881836,-4.367405891418457,8.262248039245605,13.78819751739502,-33.30000305175781,-186.90000915527344,-26.100000381469727
1251961,14.395506858825684,19.599349975585938,-5.8468475341796875,-2.431417942047119,-8.071698188781738,-5.243936061859131,-40.5,-186.90000915527344,-22.5
1251981,9.828685760498047,18.287622451782227,-3.8346946239471436,-0.457319974899292,-6.295772075653076,-6.082355976104736,-28.500001907348633,-184.5,-24.900001525878906
1252041,0.5012438297271729,1.3661586046218872,-0.08015115559101105,-0.1295740008354187,-8.765299797058105,-19.74860191345215,2.700000047683716,-186.90000915527344,-20.700000762939453
1252092,0.5873764157295227,-0.6800885796546936,0.29189378023147583,-1.5091559886932373,-0.510673999786377,0.015243999660015106,38.70000076293945,-184.5,-23.700000762939453
1252113,1.0892183780670166,0.6412092447280884,0.806296706199646,0.4420759975910187,-1.5320219993591309,0.44969800114631653,45.900001525878906,-172.5,-23.100000381469727
1252133,1.1771453619003296,0.608909547328949,1.0216281414031982,-0.16768398880958557,-0.015243999660015106,0.25152599811553955,29.100000381469727,-184.5,-24.30000114440918
1252193,-0.16209673881530762,-0.6316390037536621,0.3223990499973297,1.2271419763565063,0.4192099869251251,-1.5548880100250244,41.10000228881836,-186.90000915527344,-26.100000381469727
1252331,11.389240264892578,19.599349975585938,-7.175921440124512,-4.5427117347717285,14.047346115112305,23.132768630981445,0.30000001192092896,-174.90000915527344,-20.700000762939453
1252351,12.702762603759766,19.576622009277344,-5.644675254821777,-1.6311079263687134,-0.426831990480423,-1.5701320171356201,-16.5,-189.3000030517578,-18.900001525878906
1252391,18.323511123657227,19.599349975585938,-6.498225212097168,-3.650938034057617,9.405548095703125,9.390303611755371,-18.900001525878906,-167.70001220703125,-21.900001525878906
1252412,12.669266700744629,19.599349975585938,-7.894290924072266,2.233245849609375,-1.7454379796981812,-8.323224067687988,-23.700000762939453,-172.5,-17.100000381469727
1252432,8.400918006896973,18.053152084350586,-5.4652323722839355,2.0960500240325928,-11.75312328338623,-15.053449630737305,-6.900000095367432,-186.90000915527344,-24.900001525878906
1252452,3.359170913696289,10.684029579162598,-1.5180869102478027,-1.1204339265823364,-13.917771339416504,-16.70742416381836,9.90000057220459,-182.10000610351562,-22.5
1252474,0.21114446222782135,4.553662300109863,-0.1280025988817215,0.4878079891204834,-7.980233669281006,-19.702869415283203,19.5,-177.3000030517578,-19.5
1252494,-2.283111810684204,-1.1083589792251587,0.12561002373695374,0.4344539940357208,-4.817103862762451,-17.2943172454834,43.5,-182.10000610351562,-14.700000762939453
1252514,-0.16389118134975433,0.4073353707790375,-0.5538803935050964,-0.9375059604644775,-1.1814099550247192,1.067080020904541,72.30000305175781,-182.10000610351562,-21.30000114440918
1252534,1.0473483800888062,2.143744468688965,-0.3887929320335388,-0.6631140112876892,-2.378063917160034,2.2561118602752686,50.70000076293945,-186.90000915527344,-15.300000190734863
1252554,1.1376678943634033,0.8691017627716064,0.6759015321731567,-0.9070180058479309,-2.3628199100494385,-1.0594580173492432,53.10000228881836,-191.70001220703125,-21.30000114440918
1252574,1.120919942855835,-0.4252796471118927,0.7554545998573303,-1.2042759656906128,-0.5564059615135193,0.6478700041770935,69.9000015258789,-184.5,-20.700000762939453
1252594,1.2806241512298584,0.6430037021636963,0.8308205604553223,-1.2118979692459106,0.3201240003108978,2.599102020263672,50.70000076293945,-179.70001220703125,-20.700000762939453
1252617,0.25421077013015747,-0.5102159380912781,0.7871561646461487,-2.28659987449646,1.1128119230270386,0.8079319596290588,57.900001525878906,-172.5,-19.5
1252637,-0.11663787811994553,-0.9265234470367432,0.8559426069259644,-2.03507399559021,1.0899460315704346,0.44969800114631653,43.5,-167.70001220703125,-21.30000114440918
1252700,0.08792701363563538,-0.3666616380214691,0.4282703697681427,-0.5792719721794128,1.1356779336929321,1.0975680351257324,53.10000228881836,-177.3000030517578,-20.100000381469727
1252720,1.0904146432876587,2.738896608352661,-0.35230621695518494,1.4862899780273438,2.225623846054077,5.480217933654785,50.70000076293945,-184.5,-24.900001525878906
1252740,2.002582550048828,6.157283782958984,-1.24593186378479,0.5259180068969727,2.957335948944092,7.721086025238037,38.70000076293945,-177.3000030517578,-20.100000381469727
1252764,4.621850967407227,13.982190132141113,-3.9190328121185303,3.9939279556274414,12.058003425598145,23.36142921447754,33.900001525878906,-189.3000030517578,-18.30000114440918
1252784,11.138020515441895,19.599349975585938,-6.114217281341553,-8.689080238342285,8.147917747497559,20.792816162109375,-14.100000381469727,-179.70001220703125,-24.30000114440918
1252804,9.33880615234375,19.574228286743164,-3.1438393592834473,-0.9070180058479309,-1.0747020244598389,-4.6951518058776855,-16.5,-174.90000915527344,-18.30000114440918
1252824,13.48094654083252,19.599349975585938,-6.238631248474121,4.2988080978393555,4.375028133392334,7.660109996795654,-16.5,-194.10000610351562,-21.30000114440918
1252911,5.620151519775391,13.665772438049316,-1.23097825050354,-0.7164679765701294,-11.0061674118042,-13.018375396728516,-4.5,-186.90000915527344,-23.100000381469727
1252954,-0.712388277053833,0.2960807681083679,-0.6603498458862305,0.16768398880958557,-5.045763969421387,-19.64951515197754,43.5,-179.70001220703125,-18.900001525878906
1252993,-0.9319067597389221,-2.5002377033233643,-0.30983805656433105,0.2972579896450043,-0.13719600439071655,-0.914639949798584,48.30000305175781,-179.70001220703125,-26.700000762939453
1253013,0.8816627264022827,1.6078083515167236,-0.8876441717147827,2.1112940311431885,-1.013725996017456,3.2622158527374268,53.10000228881836,-184.5,-19.5
1253033,1.1478363275527954,1.6909501552581787,0.0143554313108325,0.7240899801254272,-1.3567159175872803,0.25152599811553955,53.10000228881836,-179.70001220703125,-17.100000381469727
1253053,0.29667890071868896,-0.8601295948028564,-0.032897863537073135,-0.9375059604644775,0.038109999150037766,-0.6707359552383423,48.30000305175781,-184.5,-20.100000381469727
1253073,0.21114446222782135,-0.7733988761901855,0,-0.2439039945602417,-0.426831990480423,1.8978779315948486,53.10000228881836,-167.70001220703125,-24.900001525878906
1253093,0.45099979639053345,0.08254373073577881,0.3235953450202942,-0.7926880121231079,-0.48018598556518555,2.583858013153076,43.5,-177.3000030517578,-15.90000057220459
1253113,0.2266961932182312,-0.4312610924243927,0.5257676839828491,-2.4771499633789062,0.007621999830007553,1.8369019031524658,29.100000381469727,-177.3000030517578,-19.5
1253137,0.16807816922664642,-0.8374001383781433,0.705808699131012,-2.8811159133911133,0.17530599236488342,1.8597679138183594,45.900001525878906,-177.3000030517578,-20.100000381469727
1253158,0.6687238216400146,0.020935004577040672,0.708799421787262,-2.4009299278259277,0.685979962348938,2.9344699382781982,43.5,-191.70001220703125,-18.900001525878906
1253178,1.652669072151184,2.7024099826812744,0.10048802196979523,-1.2271419763565063,1.9207439422607422,5.663146018981934,45.900001525878906,-182.10000610351562,-21.900001525878906
1253198,2.857927083969116,6.245809078216553,-0.6890606880187988,-1.013725996017456,2.896359920501709,8.292736053466797,38.70000076293945,-182.10000610351562,-20.700000762939453
1253290,12.711135864257812,19.599349975585938,-5.673984050750732,5.983269691467285,8.086941719055176,2.0122079849243164,-14.100000381469727,-174.90000915527344,-24.900001525878906
1253310,18.657276153564453,19.599349975585938,-7.119097709655762,-1.7606819868087769,10.853727340698242,12.370505332946777,-21.30000114440918,-179.70001220703125,-20.100000381469727
1253350,11.203816413879395,19.599349975585938,-5.051915645599365,-1.417691946029663,-8.186027526855469,-7.561023712158203,-38.10000228881836,-191.70001220703125,-20.700000762939453
1253372,5.180516242980957,12.309184074401855,-2.369244337081909,-0.739333987236023,-7.317119598388672,-14.519909858703613,-23.700000762939453,-172.5,-20.100000381469727
1253412,-0.9378882050514221,-1.2692593336105347,1.305746078491211,-0.9756159782409668,-6.570163726806641,-19.344635009765625,14.700000762939453,-179.70001220703125,-20.700000762939453
1253432,-2.2161197662353516,-4.147523403167725,0.9480566382408142,-1.7149499654769897,-0.114329993724823,-7.35522985458374,41.10000228881836,-179.70001220703125,-24.30000114440918
1253453,0.34213778376579285,-0.16987259685993195,0.2506219148635864,-0.9756159782409668,-0.35061198472976685,2.1722700595855713,26.700000762939453,-184.5,-26.100000381469727
1253473,1.2076506614685059,1.6676225662231445,0.5054308176040649,0.8460419774055481,-1.8140360116958618,0.8460419774055481,31.500001907348633,-170.10000610351562,-20.100000381469727
1253493,1.0748629570007324,0.10706759244203568,0.605918824672699,0.5792719721794128,-1.14329993724823,-0.7240899801254272,31.500001907348633,-186.90000915527344,-22.5
1253513,1.1035737991333008,0.48210322856903076,0.5736191272735596,1.1128119230270386,-1.4100699424743652,0.6707359552383423,33.900001525878906,-194.10000610351562,-26.100000381469727
1253533,0.5072252154350281,-0.22430361807346344,0.6352278590202332,0.7926880121231079,-1.4024479389190674,-0.22103799879550934,36.30000305175781,-184.5,-22.5
1253553,0.3044547736644745,-0.44202765822410583,0.7393047213554382,0.9984819889068604,-1.5091559886932373,-0.228659987449646,33.900001525878906,-186.90000915527344,-20.700000762939453
1253577,0.32479164004325867,-0.02930900640785694,0.712388277053833,0.7621999979019165,-1.1356779336929321,-0.3048799932003021,36.30000305175781,-172.5,-20.700000762939453
1253597,0.1591060310602188,-0.41570937633514404,0.6812848448753357,0.038109999150037766,-0.5868939757347107,-0.9451279640197754,45.900001525878906,-174.90000915527344,-21.30000114440918
1253617,0,-0.9271215796470642,0.6747052669525146,-0.13719600439071655,-0.12195199728012085,-0.800309956073761,12.300000190734863,-179.70001220703125,-26.100000381469727
1253637,-0.02811271883547306,-0.09331030398607254,0.4785143733024597,0.28201398253440857,1.14329993724823,1.1204339265823364,31.500001907348633,-184.5,-17.700000762939453
1253657,1.3769251108169556,4.409510135650635,-1.2495206594467163,2.4619059562683105,3.3231918811798096,6.958885669708252,33.900001525878906,-179.70001220703125,-15.90000057220459
1253677,1.3506067991256714,8.837562561035156,-1.1185274124145508,1.9588539600372314,6.326260089874268,9.077801704406738,19.5,-184.5,-17.700000762939453
1253697,6.199153900146484,18.41741943359375,-6.105843544006348,1.7378159761428833,15.480281829833984,25.678518295288086,12.300000190734863,-172.5,-26.700000762939453
1253717,10.197739601135254,19.599349975585938,-7.055694580078125,-4.961921691894531,13.635757446289062,23.93307876586914,-11.700000762939453,-182.10000610351562,-18.30000114440918
1253740,10.213889122009277,19.599349975585938,-4.485474109649658,3.9253299236297607,-0.5640279650688171,-7.812549591064453,-16.5,-184.5,-20.100000381469727
1253760,14.731064796447754,19.598154067993164,-7.40680456161499,3.3689239025115967,6.836933612823486,8.978715896606445,-11.700000762939453,-179.70001220703125,-20.700000762939453
1253780,16.72826385498047,19.599349975585938,-8.031864166259766,-1.9740979671478271,5.152472019195557,1.7225719690322876,-30.900001525878906,-170.10000610351562,-23.700000762939453
1253801,11.266620635986328,19.599349975585938,-6.078329086303711,1.3490939140319824,-9.375060081481934,-11.684525489807129,-14.100000381469727,-189.3000030517578,-27.900001525878906
1253822,7.3105034828186035,16.510540008544922,-2.7101857662200928,0.33536797761917114,-9.093046188354492,-12.340017318725586,5.100000381469727,-167.70001220703125,-13.500000953674316
1253842,4.31141471862793,10.992671966552734,-2.4613583087921143,1.1814099550247192,-3.1859958171844482,-16.013822555541992,14.700000762939453,-186.90000915527344,-17.700000762939453
1253862,2.2125308513641357,4.507007122039795,-1.830317497253418,2.583858013153076,-6.417723655700684,-19.756223678588867,38.70000076293945,-194.10000610351562,-21.30000114440918
1253883,-0.042468149214982986,-0.9731786251068115,0.8702980279922485,0.6173819899559021,-8.208893775939941,-15.396439552307129,43.5,-184.5,-20.700000762939453
1253904,-1.1723601818084717,-2.8956100940704346,1.2136321067810059,-1.806414008140564,0.12195199728012085,-4.474113941192627,60.30000305175781,-179.70001220703125,-15.300000190734863
1253946,0.9540380239486694,0.6615461111068726,0.21293890476226807,0.17530599236488342,-0.22103799879550934,2.75154185295105,41.10000228881836,-172.5,-17.100000381469727
1254009,0.46595337986946106,-0.4294666647911072,0.4240833520889282,-0.7850660085678101,-0.2439039945602417,2.3704419136047363,29.100000381469727,-184.5,-24.900001525878906
1254029,0.2326776087284088,-0.16568560898303986,0.4617663621902466,-1.196653962135315,0.114329993724823,1.9436099529266357,31.500001907348633,-184.5,-20.100000381469727
1254049,0.11065644770860672,-0.23806090652942657,0.46236452460289,-1.5015339851379395,0.1600620001554489,0.7317119836807251,29.100000381469727,-172.5,-23.100000381469727
1254070,0.21712589263916016,-0.4330555200576782,0.5467026829719543,-1.3414719104766846,0.2439039945602417,0.22103799879550934,36.30000305175781,-177.3000030517578,-14.100000381469727
1254132,3.1946816444396973,9.08100700378418,-1.0898164510726929,-0.9070180058479309,5.4573516845703125,10.099149703979492,19.5,-177.3000030517578,-21.30000114440918
1254152,5.729013442993164,17.008792877197266,-3.942958354949951,1.2728739976882935,12.385749816894531,21.539772033691406,7.500000476837158,-194.10000610351562,-17.100000381469727
1254172,12.836746215820312,19.599349975585938,-6.047823429107666,-5.724122047424316,12.980265617370605,16.067174911499023,-18.900001525878906,-179.70001220703125,-22.5
1254193,10.590121269226074,19.599349975585938,-5.694321155548096,3.0183119773864746,0.41158798336982727,-2.7286758422851562,-21.30000114440918,-182.10000610351562,-21.900001525878906
1254213,14.444554328918457,19.598154067993164,-6.311006546020508,1.699705958366394,5.3582658767700195,7.553401947021484,-30.900001525878906,-179.70001220703125,-22.5
1254235,18.40545654296875,19.599349975585938,-7.360149383544922,-1.371959924697876,5.701255798339844,2.896359920501709,-33.30000305175781,-191.70001220703125,-21.900001525878906
1254255,10.094261169433594,19.37803840637207,-6.784137725830078,0.2743920087814331,-9.52750015258789,-9.832379341125488,-30.900001525878906,-158.10000610351562,-23.100000381469727
1254275,7.102349758148193,14.461302757263184,-2.561248302459717,-2.8734939098358154,-13.368988037109375,-7.3399858474731445,-18.900001525878906,-191.70001220703125,-20.700000762939453
1254297,3.290982723236084,7.432524681091309,-1.1185274124145508,2.6753220558166504,-4.359784126281738,-17.53822135925293,-4.5,-177.3000030517578,-15.90000057220459
1254317,0.2661736309528351,0.7602397203445435,-0.7416973114013672,1.2804960012435913,-6.234796047210693,-21.6464786529541,9.90000057220459,-170.10000610351562,-24.30000114440918
1254337,-2.993107318878174,-4.322181224822998,1.235763430595398,-0.4344539940357208,-5.343021869659424,-13.064107894897461,21.900001525878906,-186.90000915527344,-18.900001525878906
1254377,0.2733513414859772,0.702817976474762,-0.07297344505786896,-0.2134159952402115,-0.4878079891204834,1.653973937034607,38.70000076293945,-179.70001220703125,-16.5
1254437,0.46296265721321106,-0.21832218766212463,-0.008374001830816269,-0.35061198472976685,0.19817200303077698,1.8140360116958618,29.100000381469727,-194.10000610351562,-29.700000762939453
1254457,0.20217232406139374,-0.49825310707092285,0.33316564559936523,-0.2439039945602417,-0.3887220025062561,1.882633924484253,24.30000114440918,-182.10000610351562,-28.500001907348633
1254480,-0.09809544682502747,-0.6621442437171936,0.5730209946632385,-0.7164679765701294,-0.3277460038661957,1.5015339851379395,38.70000076293945,-186.90000915527344,-18.900001525878906
1254504,0.7937357425689697,3.3872835636138916,-0.5736191272735596,1.5625100135803223,3.0640439987182617,5.525949954986572,33.900001525878906,-182.10000610351562,-15.90000057220459
1254545,8.129361152648926,18.671630859375,-3.746767520904541,-4.016793727874756,8.978715896606445,16.68455696105957,5.100000381469727,-165.3000030517578,-20.700000762939453
1254565,10.3137788772583,18.909093856811523,-4.349097728729248,-3.399411916732788,2.949713945388794,-0.2896359860897064,-9.300000190734863,-189.3000030517578,-18.30000114440918
1254585,4.824023246765137,10.810237884521484,-2.9338912963867188,4.199721813201904,-3.3231918811798096,-16.387300491333008,-4.5,-184.5,-20.700000762939453
1254605,2.9279098510742188,10.468698501586914,-3.8233299255371094,5.586925983428955,0.2743920087814331,-4.733262062072754,17.100000381469727,-184.5,-21.900001525878906
1254627,9.241907119750977,19.599349975585938,-5.712863445281982,-0.9375059604644775,10.602201461791992,17.71352767944336,17.100000381469727,-174.90000915527344,-24.900001525878906
1254647,15.709627151489258,19.52159309387207,-7.022198677062988,-3.559473991394043,2.9802019596099854,1.5853760242462158,0.30000001192092896,-184.5,-12.90000057220459
1254669,4.768993854522705,11.772051811218262,-2.119220495223999,1.6768399477005005,-17.13425636291504,-34.17704772949219,19.5,-177.3000030517578,-17.700000762939453
1254689,-2.0552191734313965,-0.27873462438583374,-0.07117900997400284,6.829311847686768,-10.632689476013184,-33.65875244140625,45.900001525878906,-174.90000915527344,-17.100000381469727
1254709,-4.880248546600342,-3.031388521194458,-0.7656229734420776,1.4862899780273438,-1.0289700031280518,-8.247003555297852,57.900001525878906,-179.70001220703125,-10.5
1254729,0.0059814294800162315,5.583664417266846,-1.640706181526184,-4.580821990966797,2.3628199100494385,11.143363952636719,65.10000610351562,-179.70001220703125,-14.100000381469727
1254751,3.2407386302948,10.591317176818848,-0.48329952359199524,-4.39027214050293,1.417691946029663,8.704323768615723,41.10000228881836,-177.3000030517578,-21.900001525878906
1254771,2.119818687438965,7.017413139343262,-0.3636709153652191,-1.3186060190200806,1.9588539600372314,-4.2149658203125,48.30000305175781,-186.90000915527344,-17.100000381469727
1254793,2.172455310821533,7.032965183258057,-0.9067847728729248,-1.9664759635925293,3.60520601272583,2.2180018424987793,62.70000076293945,-184.5,-20.700000762939453
1254813,3.67199969291687,10.810237884521484,-1.5683308839797974,-2.03507399559021,6.417723655700684,6.905531883239746,50.70000076293945,-179.70001220703125,-17.100000381469727
1254833,5.568711280822754,13.173501014709473,-2.673699140548706,-2.9725799560546875,6.189064025878906,4.237832069396973,33.900001525878906,-186.90000915527344,-24.30000114440918
1254853,3.579287528991699,9.355554580688477,-2.5145931243896484,0.08384199440479279,0.8307979702949524,-5.381131649017334,50.70000076293945,-177.3000030517578,-14.100000381469727
1254894,2.7257375717163086,8.37759017944336,-1.8075881004333496,2.5000159740448,-1.3643379211425781,2.698187828063965,45.900001525878906,-167.70001220703125,-21.30000114440918
1254954,1.3805140256881714,8.923694610595703,-2.0647895336151123,1.6615959405899048,-2.903981924057007,-3.2850818634033203,48.30000305175781,-177.3000030517578,-17.100000381469727
1254978,2.2226991653442383,9.098352432250977,-1.8560376167297363,-0.007621999830007553,-2.339953899383545,-2.782029867172241,57.900001525878906,-194.10000610351562,-17.700000762939453
1255060,3.036771774291992,9.111512184143066,-2.2041568756103516,0.457319974899292,-0.8384199738502502,2.0960500240325928,50.70000076293945,-182.10000610351562,-18.30000114440918
1255092,3.0894083976745605,8.99307918548584,-2.318402051925659,0.5792719721794128,-0.9070180058479309,1.3490939140319824,41.10000228881836,-177.3000030517578,-20.100000381469727
1255134,3.207242727279663,9.40938663482666,-2.118622303009033,0.5335400104522705,-1.295740008354187,0.04573199898004532,48.30000305175781,-186.90000915527344,-17.100000381469727
1255272,2.2974672317504883,8.539687156677246,-1.9541330337524414,-0.2591480016708374,1.2576299905776978,-1.699705958366394,53.10000228881836,-182.10000610351562,-6.900000095367432
1255314,2.134772300720215,8.86089038848877,-2.1024725437164307,0.8307979702949524,0.4878079891204834,-1.0594580173492432,67.5,-184.5,-20.700000762939453
1255388,1.9278148412704468,8.875245094299316,-2.196381092071533,0.18292799592018127,4.74850606918335,-1.9131219387054443,55.500003814697266,-179.70001220703125,-19.5
1255451,1.836298942565918,9.155176162719727,-2.0067696571350098,-0.17530599236488342,3.239349842071533,-2.6143460273742676,36.30000305175781,-165.3000030517578,-20.100000381469727
1255531,1.742390513420105,8.930872917175293,-2.6013238430023193,4.67990779876709,-3.346057891845703,-0.25152599811553955,36.30000305175781,-150.90000915527344,-23.100000381469727
1255586,1.0754610300064087,9.08280086517334,-2.8124682903289795,2.439039945602417,-5.487839698791504,-0.6631140112876892,60.30000305175781,-155.70001220703125,-15.90000057220459
1255647,1.4164025783538818,9.49013614654541,-2.9996869564056396,-0.4344539940357208,-1.9664759635925293,-3.704291820526123,72.30000305175781,-158.10000610351562,-15.300000190734863
1255772,2.118622303009033,8.915919303894043,-2.507415294647217,-0.12195199728012085,-1.3643379211425781,0.4344539940357208,67.5,-158.10000610351562,-10.5
1255812,1.8674023151397705,8.94044303894043,-2.9769575595855713,-0.3887220025062561,-2.187514066696167,-1.14329993724823,72.30000305175781,-158.10000610351562,-18.30000114440918
1255853,1.738203525543213,9.022388458251953,-2.7077932357788086,-0.7240899801254272,-0.8612859845161438,-0.9603719711303711,69.9000015258789,-158.10000610351562,-8.700000762939453
1255873,1.3637659549713135,8.698793411254883,-2.7311208248138428,-0.6250039935112,-0.8155539631843567,-0.6554920077323914,79.5,-165.3000030517578,-17.100000381469727
1255896,1.5049277544021606,8.94343376159668,-2.4607601165771484,-0.8231759667396545,0.3125019967556,0.02286599949002266,77.10000610351562,-158.10000610351562,-11.100000381469727
1255938,1.5073202848434448,9.249683380126953,-2.513396739959717,-0.20579399168491364,-0.25152599811553955,-0.08384199440479279,79.5,-167.70001220703125,-23.700000762939453
1255958,1.532442331314087,9.197644233703613,-2.551079750061035,-0.8460419774055481,1.653973937034607,0.5792719721794128,74.70000457763672,-174.90000915527344,-18.900001525878906
1255980,1.5491902828216553,8.85670280456543,-2.8028979301452637,-1.4024479389190674,3.254593849182129,1.3338500261306763,79.5,-158.10000610351562,-19.5
1256000,1.9457590579986572,8.66649341583252,-3.1994667053222656,-1.0061039924621582,2.637212038040161,0.8765299916267395,69.9000015258789,-160.5,-19.5
1256043,1.8709912300109863,8.668288230895996,-2.9398727416992188,-0.015243999660015106,-0.23628199100494385,-0.9298839569091797,72.30000305175781,-162.90000915527344,-19.5
1256063,1.2842129468917847,9.233532905578613,-3.374722719192505,0.5182960033416748,-2.5076379776000977,-0.7545779943466187,79.5,-172.5,-15.300000190734863
1256083,0.806296706199646,9.444677352905273,-3.046342134475708,-1.600619912147522,-2.8201398849487305,-0.25152599811553955,84.30000305175781,-165.3000030517578,-15.300000190734863
1256105,0.39836323261260986,8.970948219299316,-2.4691340923309326,-4.900945663452148,1.5167779922485352,3.3917899131774902,81.9000015258789,-174.90000915527344,-14.100000381469727
1256125,2.7161672115325928,9.46142578125,-3.23774790763855,-9.809514045715332,7.172301769256592,4.580821990966797,74.70000457763672,-177.3000030517578,-17.700000762939453
1256169,1.918244481086731,9.462023735046387,-2.3686461448669434,-3.2317278385162354,1.7987920045852661,0.5945159792900085,69.9000015258789,-172.5,-12.300000190734863
1256189,1.9014965295791626,9.07801628112793,-2.322589159011841,-3.2622158527374268,-0.09908600151538849,-0.1295740008354187,77.10000610351562,-174.90000915527344,-20.700000762939453
1256209,2.220306634902954,9.535594940185547,-1.7489700317382812,-1.9512319564819336,-0.9451279640197754,0.17530599236488342,55.500003814697266,-165.3000030517578,-13.500000953674316
1256229,2.077948570251465,9.402807235717773,-1.6102008819580078,-3.818621873855591,0.030487999320030212,-0.5945159792900085,62.70000076293945,-165.3000030517578,-17.100000381469727
1256249,1.748371958732605,8.820216178894043,-1.5743123292922974,-3.208861827850342,0.02286599949002266,-0.8384199738502502,48.30000305175781,-170.10000610351562,-21.30000114440918
1256292,1.7017167806625366,8.765785217285156,-1.2555021047592163,-2.3094658851623535,0.19817200303077698,-0.800309956073761,72.30000305175781,-172.5,-18.30000114440918
1256312,1.436739444732666,9.02418327331543,-1.5952472686767578,-1.4862899780273438,0.39634400606155396,-0.35061198472976685,72.30000305175781,-165.3000030517578,-23.100000381469727
1256335,1.421785831451416,9.087586402893066,-1.6598467826843262,-0.7698220014572144,0.13719600439071655,-0.2439039945602417,67.5,-177.3000030517578,-21.900001525878906
1256355,1.5444051027297974,9.143811225891113,-1.722651720046997,-0.36585599184036255,0.05335399881005287,-0.030487999320030212,48.30000305175781,-165.3000030517578,-17.700000762939453
1256376,1.6502764225006104,9.141419410705566,-1.7130814790725708,-0.12195199728012085,0.060975998640060425,0.12195199728012085,67.5,-170.10000610351562,-21.900001525878906
1256396,1.6107990741729736,9.045716285705566,-1.7818678617477417,-0.1600620001554489,0.18292799592018127,0.3582339882850647,65.10000610351562,-167.70001220703125,-23.700000762939453
1256416,1.6676225662231445,9.23233699798584,-1.8632153272628784,0.04573199898004532,0.114329993724823,0.6783579587936401,74.70000457763672,-177.3000030517578,-24.30000114440918
1256436,1.6939408779144287,9.266430854797363,-1.85543954372406,-0.015243999660015106,0.007621999830007553,0.6326259970664978,67.5,-170.10000610351562,-19.5
1256458,1.6520708799362183,9.24310302734375,-1.7962234020233154,0.228659987449646,-0.007621999830007553,0.4344539940357208,81.9000015258789,-170.10000610351562,-23.700000762939453
1256478,1.3111294507980347,8.16345500946045,-5.345005512237549,12.766849517822266,0.2896359860897064,-0.44969800114631653,74.70000457763672,-170.10000610351562,-20.100000381469727
1256498,2.1269965171813965,10.635580062866211,1.111947774887085,-4.596065998077393,-3.0259339809417725,1.1814099550247192,72.30000305175781,-174.90000915527344,-23.700000762939453
1256518,1.724446177482605,9.04212760925293,-3.210233211517334,1.8140360116958618,2.5000159740448,-0.33536797761917114,65.10000610351562,-165.3000030517578,-25.500001907348633
1256538,1.6634355783462524,9.186279296875,-2.367449998855591,-0.09908600151538849,-0.5792719721794128,0.2743920087814331,67.5,-174.90000915527344,-24.30000114440918
1256558,1.8859448432922363,9.142017364501953,-2.161090612411499,-0.36585599184036255,-0.7240899801254272,0.10670799762010574,62.70000076293945,-158.10000610351562,-21.900001525878906
1256578,2.089313507080078,9.091175079345703,-1.7118852138519287,-0.5259180068969727,-0.33536797761917114,0.3887220025062561,60.30000305175781,-186.90000915527344,-12.90000057220459
1256598,1.4881796836853027,9.076221466064453,-2.4344418048858643,0.19054999947547913,1.14329993724823,0.12195199728012085,67.5,-160.5,-15.90000057220459
1256621,1.7100907564163208,9.087586402893066,-2.5773980617523193,-0.2134159952402115,-1.3186060190200806,0.5259180068969727,79.5,-170.10000610351562,-22.5
1256642,2.0043771266937256,9.35076904296875,-1.8177565336227417,-0.41158798336982727,-1.067080020904541,0.4420759975910187,57.900001525878906,-170.10000610351562,-23.100000381469727
1256663,1.6203693151474,9.08698844909668,-2.390179395675659,-1.1585439443588257,-0.05335399881005287,0.6173819899559021,57.900001525878906,-172.5,-23.100000381469727
1256683,1.933198094367981,9.070240020751953,-2.104865074157715,-0.8841519951820374,-0.914639949798584,0.800309956073761,55.500003814697266,-160.5,-25.500001907348633
1256703,2.039069414138794,9.080408096313477,-1.9966012239456177,-1.14329993724823,-0.3277460038661957,0.685979962348938,62.70000076293945,-172.5,-19.5
1256723,1.9505442380905151,9.18149471282959,-2.104266881942749,-1.3872039318084717,-0.07621999830007553,0.6326259970664978,62.70000076293945,-160.5,-15.90000057220459
1256745,2.115631580352783,9.16055965423584,-2.0133492946624756,-1.2347639799118042,-0.5335400104522705,0.4725639820098877,60.30000305175781,-155.70001220703125,-24.30000114440918
1256765,2.1927921772003174,9.119885444641113,-1.9026927947998047,-1.3338500261306763,-0.16768398880958557,0.22103799879550934,53.10000228881836,-170.10000610351562,-23.100000381469727
1256785,2.146136999130249,9.20721435546875,-1.9840402603149414,-1.7378159761428833,0.510673999786377,0.12195199728012085,60.30000305175781,-162.90000915527344,-20.100000381469727
1256805,2.856132745742798,9.10373592376709,-0.9863377809524536,-3.9481959342956543,0.6326259970664978,-0.5792719721794128,65.10000610351562,-162.90000915527344,-21.900001525878906
1256825,0.03469229117035866,9.173718452453613,-2.008563995361328,-3.7195358276367188,3.163130044937134,-0.33536797761917114,48.30000305175781,-177.3000030517578,-22.5
1256845,2.2825136184692383,9.369311332702637,-2.9949018955230713,0.3734779953956604,0.3582339882850647,0.5640279650688171,72.30000305175781,-184.5,-23.700000762939453
1256885,1.726240634918213,9.2879638671875,-1.7866530418395996,-1.8369019031524658,1.5548880100250244,0.1600620001554489,57.900001525878906,-172.5,-23.700000762939453
1256905,1.6879594326019287,9.216785430908203,-1.524666428565979,-0.6707359552383423,0.17530599236488342,0.3201240003108978,55.500003814697266,-182.10000610351562,-20.100000381469727
1256925,1.7100907564163208,9.214990615844727,-1.5533772706985474,-1.1128119230270386,0.48018598556518555,0.35061198472976685,60.30000305175781,-177.3000030517578,-23.700000762939453
1256947,1.609602689743042,9.061267852783203,-1.720259189605713,-0.8917739987373352,0.17530599236488342,0.4192099869251251,60.30000305175781,-174.90000915527344,-19.5
1257009,1.9648996591567993,9.177906036376953,-1.6885576248168945,-0.5182960033416748,-0.6173819899559021,1.2576299905776978,50.70000076293945,-174.90000915527344,-23.700000762939453
1257071,2.2932801246643066,9.223962783813477,-1.5976399183273315,-0.9756159782409668,-0.7545779943466187,0.9298839569091797,53.10000228881836,-177.3000030517578,-24.30000114440918
1257091,2.360272169113159,9.04093074798584,-1.4786094427108765,-0.8231759667396545,-0.853663980960846,0.7621999979019165,57.900001525878906,-177.3000030517578,-21.900001525878906
1257114,2.613884687423706,9.222766876220703,-1.3524012565612793,-0.1600620001554489,-1.0442140102386475,0.457319974899292,53.10000228881836,-174.90000915527344,-33.900001525878906
1257134,1.9170482158660889,8.720924377441406,-1.1227144002914429,3.612828016281128,-0.5335400104522705,-0.4725639820098877,57.900001525878906,-172.5,-20.700000762939453
1257198,2.4846858978271484,9.03494930267334,-1.2393522262573242,-0.2896359860897064,1.8521459102630615,0.007621999830007553,48.30000305175781,-170.10000610351562,-27.30000114440918
1257222,2.586968421936035,9.156373023986816,-1.5844807624816895,-1.600619912147522,4.032037734985352,0.7012239694595337,48.30000305175781,-160.5,-20.100000381469727
1257242,2.4063291549682617,9.194653511047363,-1.7531570196151733,-0.6097599864006042,2.7591638565063477,0.09908600151538849,38.70000076293945,-182.10000610351562,-14.100000381469727
1257262,2.289691209793091,9.173718452453613,-1.5767048597335815,-0.5945159792900085,1.9512319564819336,0.02286599949002266,50.70000076293945,-167.70001220703125,-20.700000762939453
1257282,2.471526861190796,9.113306045532227,-1.3374476432800293,-0.9222619533538818,2.3551979064941406,0.19817200303077698,36.30000305175781,-174.90000915527344,-27.30000114440918
1257302,2.1802310943603516,8.97214412689209,-1.5850788354873657,0.038109999150037766,1.8597679138183594,0.18292799592018127,38.70000076293945,-182.10000610351562,-24.30000114440918
1257324,2.646782636642456,9.04691219329834,-1.4546836614608765,0.5945159792900085,1.1204339265823364,0.39634400606155396,38.70000076293945,-165.3000030517578,-20.700000762939453
1257364,2.3806090354919434,8.998462677001953,-1.5784993171691895,0.20579399168491364,1.92836594581604,-0.6936019659042358,45.900001525878906,-174.90000915527344,-16.5
1257424,2.563640832901001,9.158764839172363,-1.5988361835479736,0.3201240003108978,1.5548880100250244,-0.4192099869251251,50.70000076293945,-160.5,-20.700000762939453
1257445,2.4302549362182617,8.997864723205566,-1.712483286857605,0.015243999660015106,1.7987920045852661,-0.35061198472976685,50.70000076293945,-155.70001220703125,-17.700000762939453
1257465,2.4452085494995117,8.976929664611816,-1.806391716003418,-0.030487999320030212,0.8612859845161438,-0.25152599811553955,43.5,-167.70001220703125,-21.30000114440918
1257485,2.572014808654785,9.319665908813477,-1.6610430479049683,0.22103799879550934,-0.6097599864006042,-0.426831990480423,45.900001525878906,-167.70001220703125,-26.100000381469727
1257549,2.25081205368042,9.144410133361816,-1.619771122932434,0.9603719711303711,-1.806414008140564,-0.8460419774055481,50.70000076293945,-172.5,-27.30000114440918
1257611,1.8979076147079468,8.893189430236816,-1.6072101593017578,-0.7774440050125122,1.013725996017456,0.8993960022926331,60.30000305175781,-162.90000915527344,-26.100000381469727
1257654,2.2992615699768066,9.20242977142334,-1.755549669265747,-0.8612859845161438,1.524399995803833,1.0365920066833496,45.900001525878906,-172.5,-20.700000762939453
1257694,2.5229671001434326,9.19943904876709,-1.7358108758926392,-0.6478700041770935,1.4862899780273438,0.7926880121231079,45.900001525878906,-170.10000610351562,-17.100000381469727
1257789,2.4158995151519775,9.345983505249023,-1.7035112380981445,-0.030487999320030212,-2.4085519313812256,-1.699705958366394,53.10000228881836,-177.3000030517578,-21.900001525878906
1257809,2.295074462890625,9.31906795501709,-1.6090046167373657,-0.3734779953956604,-2.134160041809082,-2.2561118602752686,50.70000076293945,-170.10000610351562,-14.700000762939453
1257853,2.527153968811035,9.060669898986816,-1.5031332969665527,-1.1509219408035278,-0.007621999830007553,-0.7088459730148315,55.500003814697266,-174.90000915527344,-26.100000381469727
1257894,2.1766421794891357,8.915919303894043,-1.417000651359558,-2.2561118602752686,-0.2896359860897064,-0.6402480006217957,48.30000305175781,-170.10000610351562,-24.30000114440918
1257973,1.9278148412704468,10.011716842651367,-1.7609329223632812,-0.19817200303077698,-0.5182960033416748,1.0594580173492432,50.70000076293945,-174.90000915527344,-15.300000190734863
1257993,1.8147658109664917,9.143213272094727,-1.3894860744476318,-0.44969800114631653,-0.23628199100494385,0,50.70000076293945,-186.90000915527344,-23.700000762939453
1258033,1.9296091794967651,9.131848335266113,-1.4080286026000977,-0.39634400606155396,-0.5640279650688171,0,55.500003814697266,-179.70001220703125,-24.30000114440918
1258077,2.131781578063965,9.168335914611816,-1.417598843574524,-0.09146399796009064,-0.49542999267578125,0.1448179930448532,57.900001525878906,-179.70001220703125,-30.900001525878906
1258097,2.2376527786254883,9.210205078125,-1.4415245056152344,-0.09146399796009064,-0.33536797761917114,0.16768398880958557,50.70000076293945,-167.70001220703125,-22.5
1258117,2.19099760055542,9.182092666625977,-1.5121054649353027,-0.10670799762010574,-0.19817200303077698,0.09146399796009064,48.30000305175781,-174.90000915527344,-30.30000114440918
1258157,2.2544009685516357,9.126465797424316,-1.5587605237960815,0.228659987449646,-0.2972579896450043,0,55.500003814697266,-172.5,-26.700000762939453
1258273,2.465545415878296,9.156970977783203,-1.2519131898880005,0.44969800114631653,-0.4420759975910187,-0.4725639820098877,55.500003814697266,-174.90000915527344,-22.5
1258315,2.2454288005828857,9.231739044189453,-1.2417447566986084,-0.02286599949002266,-0.1600620001554489,-0.4344539940357208,60.30000305175781,-172.5,-26.100000381469727
1258335,1.9517405033111572,9.501501083374023,-1.4313560724258423,-0.12195199728012085,-0.007621999830007553,-0.4344539940357208,53.10000228881836,-174.90000915527344,-28.500001907348633
1258355,1.8039991855621338,9.253870010375977,-1.624556303024292,-0.7164679765701294,-0.13719600439071655,-0.7012239694595337,50.70000076293945,-174.90000915527344,-26.100000381469727
1258375,1.706501841545105,9.134241104125977,-1.5773030519485474,-0.007621999830007553,-0.457319974899292,-0.571649968624115,60.30000305175781,-184.5,-25.500001907348633
1258395,1.7657181024551392,9.29215145111084,-1.6843706369400024,0.18292799592018127,-0.5487840175628662,-0.5640279650688171,43.5,-172.5,-24.30000114440918
1258415,1.7567459344863892,9.127063751220703,-1.6682207584381104,0.25152599811553955,-0.6326259970664978,-0.6021379828453064,57.900001525878906,-167.70001220703125,-24.900001525878906
1258455,2.2759339809417725,10.639168739318848,1.0497409105300903,-5.282045841217041,-4.420759677886963,-0.060975998640060425,62.70000076293945,-172.5,-20.700000762939453
1258475,1.8081861734390259,8.315383911132812,-3.2329628467559814,2.8125178813934326,1.5625100135803223,-0.739333987236023,60.30000305175781,-182.10000610351562,-30.30000114440918
1258495,2.0408637523651123,9.595409393310547,-1.519881248474121,-0.685979962348938,-2.3170878887176514,0.09146399796009064,53.10000228881836,-172.5,-20.700000762939453
1258515,2.170062780380249,9.08280086517334,-1.6945390701293945,-2.7744078636169434,0.5792719721794128,-0.08384199440479279,57.900001525878906,-170.10000610351562,-17.100000381469727
1258535,1.8811596632003784,9.309496879577637,-1.9290111064910889,-2.9268479347229004,0.853663980960846,-0.2134159952402115,67.5,-174.90000915527344,-17.100000381469727
1258555,1.8668042421340942,9.384264945983887,-2.167072057723999,-0.007621999830007553,0.030487999320030212,-0.5182960033416748,74.70000457763672,-174.90000915527344,-30.30000114440918
1258575,2.2932801246643066,8.86268424987793,-0.9480566382408142,0.7698220014572144,-2.225623846054077,-0.5335400104522705,55.500003814697266,-170.10000610351562,-23.100000381469727
1258595,1.8985058069229126,9.20721435546875,-1.809382438659668,-0.3048799932003021,1.5320219993591309,-0.4192099869251251,57.900001525878906,-174.90000915527344,-26.700000762939453
1258616,1.821345329284668,9.010425567626953,-1.7986159324645996,1.3490939140319824,-0.13719600439071655,-0.3277460038661957,67.5,-172.5,-24.900001525878906
1258658,1.8751782178878784,9.119885444641113,-1.8010084629058838,-0.426831990480423,0.5487840175628662,-0.7240899801254272,72.30000305175781,-167.70001220703125,-21.900001525878906
1258706,1.8117750883102417,9.153382301330566,-1.8751782178878784,0.800309956073761,-0.4192099869251251,-0.3277460038661957,79.5,-184.5,-20.100000381469727
1258770,1.9780588150024414,9.5391845703125,-1.9750680923461914,0.571649968624115,-0.6021379828453064,0.1448179930448532,45.900001525878906,-170.10000610351562,-26.700000762939453
1258809,1.7310258150100708,8.784327507019043,-1.9020946025848389,0.5564059615135193,-1.0518360137939453,0.49542999267578125,65.10000610351562,-167.70001220703125,-17.100000381469727
1258829,1.937385082244873,9.25028133392334,-1.6323322057724,0.6707359552383423,-1.242385983467102,0.853663980960846,53.10000228881836,-179.70001220703125,-18.900001525878906
1258869,1.7908400297164917,9.393237113952637,-1.6371172666549683,-0.20579399168491364,-0.38109999895095825,0.07621999830007553,48.30000305175781,-174.90000915527344,-17.700000762939453
1258889,1.5049277544021606,9.206616401672363,-1.7980177402496338,0.030487999320030212,-0.6097599864006042,-0.5030519962310791,62.70000076293945,-191.70001220703125,-18.900001525878906
1258934,2.1886050701141357,9.774253845214844,-1.415804386138916,1.0899460315704346,-1.4862899780273438,-1.1661659479141235,60.30000305175781,-177.3000030517578,-25.500001907348633
1258994,1.7920362949371338,9.126465797424316,-1.5635457038879395,0.3048799932003021,-0.15243999660015106,-1.753059983253479,67.5,-172.5,-20.700000762939453
1259014,1.9960031509399414,9.331029891967773,-1.5611531734466553,0.6554920077323914,-0.2743920087814331,-1.4329359531402588,72.30000305175781,-184.5,-24.30000114440918
1259059,1.9888253211975098,8.88661003112793,-1.5330404043197632,0.342989981174469,0.33536797761917114,-1.3567159175872803,69.9000015258789,-165.3000030517578,-23.700000762939453
1259079,2.1772403717041016,8.731093406677246,-1.7752883434295654,0.7545779943466187,0.13719600439071655,-1.2042759656906128,81.9000015258789,-184.5,-17.700000762939453
1259099,2.2340641021728516,8.391347885131836,-1.5850788354873657,0.6021379828453064,-0.04573199898004532,-1.2042759656906128,69.9000015258789,-177.3000030517578,-16.5
1259119,2.1030707359313965,7.27222204208374,-1.1544159650802612,-0.23628199100494385,0.426831990480423,-1.2500079870224,69.9000015258789,-177.3000030517578,-17.100000381469727
1259139,2.2215030193328857,8.381178855895996,-1.9858347177505493,0.09146399796009064,2.484771966934204,1.1280559301376343,72.30000305175781,-170.10000610351562,-23.100000381469727
1259159,2.497844934463501,9.910032272338867,-3.055314302444458,0.35061198472976685,4.275941848754883,1.7606819868087769,67.5,-177.3000030517578,-18.900001525878906
1259179,2.9159469604492188,10.242600440979004,-3.546389579772949,0.10670799762010574,4.42838191986084,1.5929979085922241,65.10000610351562,-170.10000610351562,-21.900001525878906
1259199,2.1090521812438965,8.74903678894043,-3.3394322395324707,0.08384199440479279,2.3094658851623535,-0.33536797761917114,57.900001525878906,-162.90000915527344,-20.100000381469727
1259220,2.3806090354919434,9.517650604248047,-3.950136184692383,1.524399995803833,2.5609920024871826,0.6097599864006042,62.70000076293945,-167.70001220703125,-16.5
1259240,2.4224791526794434,10.176804542541504,-4.125990390777588,1.7149499654769897,1.2652519941329956,-0.06859800219535828,62.70000076293945,-170.10000610351562,-21.30000114440918
1259283,2.1796329021453857,8.781336784362793,-3.3902742862701416,1.0747020244598389,-0.3887220025062561,-1.4405579566955566,62.70000076293945,-174.90000915527344,-15.90000057220459
1259305,2.0707709789276123,8.23523235321045,-3.147428274154663,0.685979962348938,-0.3887220025062561,-0.8917739987373352,72.30000305175781,-162.90000915527344,-14.700000762939453
1259326,2.086920738220215,8.13952922821045,-2.989518642425537,-0.007621999830007553,-0.3887220025062561,0.13719600439071655,77.10000610351562,-165.3000030517578,-17.100000381469727
1259346,2.2161197662353516,8.273513793945312,-2.7909350395202637,-0.571649968624115,-0.2896359860897064,0.967993974685669,72.30000305175781,-177.3000030517578,-18.30000114440918
1259409,2.47092866897583,8.253774642944336,-2.584575891494751,-0.8765299916267395,-0.510673999786377,1.1280559301376343,69.9000015258789,-165.3000030517578,-17.100000381469727
1259430,2.441619634628296,8.37459945678711,-2.7311208248138428,-0.6783579587936401,-0.426831990480423,0.7698220014572144,57.900001525878906,-170.10000610351562,-20.700000762939453
1259450,2.47391939163208,8.402113914489746,-2.7251393795013428,-0.49542999267578125,-0.5945159792900085,0.510673999786377,79.5,-167.70001220703125,-19.5
1259471,2.715569019317627,8.906349182128906,-2.7759814262390137,-0.17530599236488342,-0.6936019659042358,0.5030519962310791,72.30000305175781,-162.90000915527344,-20.100000381469727
1259492,2.6808767318725586,8.76518726348877,-2.718559741973877,-0.4344539940357208,-0.46494197845458984,-0.09146399796009064,60.30000305175781,-174.90000915527344,-17.700000762939453
1259532,2.4547786712646484,8.445778846740723,-2.7221486568450928,-0.038109999150037766,-0.5182960033416748,0.1295740008354187,72.30000305175781,-160.5,-19.5
1259553,2.8208422660827637,9.960874557495117,-3.0008833408355713,0.9451279640197754,-0.4725639820098877,1.4100699424743652,74.70000457763672,-186.90000915527344,-14.100000381469727
1259573,2.963200330734253,10.127159118652344,-2.9171433448791504,-0.28201398253440857,-1.3414719104766846,0.5564059615135193,62.70000076293945,-167.70001220703125,-15.90000057220459
1259593,1.8656079769134521,7.879337310791016,-2.3112244606018066,-0.3887220025062561,-1.2728739976882935,-0.15243999660015106,69.9000015258789,-165.3000030517578,-19.5
1259616,1.7561477422714233,8.622230529785156,-2.668315887451172,0.19817200303077698,-1.7301939725875854,2.233245849609375,57.900001525878906,-174.90000915527344,-22.5
1259636,1.7914382219314575,9.28018856048584,-2.626445770263672,-0.2134159952402115,-1.7911700010299683,2.3628199100494385,65.10000610351562,-158.10000610351562,-21.30000114440918
1259656,2.2490174770355225,11.069233894348145,-2.981144666671753,0.7850660085678101,-2.789651870727539,3.4222779273986816,60.30000305175781,-170.10000610351562,-14.700000762939453
1259676,1.1562104225158691,9.259851455688477,-2.137763023376465,-0.9603719711303711,-2.4619059562683105,0.8993960022926331,53.10000228881836,-174.90000915527344,-15.300000190734863
1259696,1.7268387079238892,10.918501853942871,-2.7526538372039795,0.48018598556518555,-2.2103798389434814,2.652456045150757,53.10000228881836,-170.10000610351562,-13.500000953674316
1259717,1.22499680519104,9.786216735839844,-2.363262891769409,-0.9375059604644775,-1.9207439422607422,-0.2972579896450043,57.900001525878906,-174.90000915527344,-18.30000114440918
1259738,0.7763895988464355,9.070240020751953,-2.2256898880004883,-0.3277460038661957,-1.8673899173736572,0.09146399796009064,48.30000305175781,-177.3000030517578,-20.100000381469727
1259780,0.26976248621940613,8.906947135925293,-2.101874351501465,-0.33536797761917114,-0.8307979702949524,-0.49542999267578125,57.900001525878906,-165.3000030517578,-20.100000381469727
1259800,0.4294666647911072,9.140820503234863,-2.4374325275421143,0.26677000522613525,-0.6097599864006042,-0.5259180068969727,62.70000076293945,-177.3000030517578,-16.5
1259820,0.5975448489189148,9.070240020751953,-2.3387389183044434,0.5030519962310791,-0.7621999979019165,-0.9222619533538818,43.5,-172.5,-16.5
1259844,0.3367545008659363,8.539687156677246,-2.172455310821533,0.3734779953956604,-0.4725639820098877,-1.196653962135315,62.70000076293945,-167.70001220703125,-20.100000381469727
1259864,0.3487173616886139,8.82978630065918,-2.4272642135620117,0.5030519962310791,-0.17530599236488342,-0.5335400104522705,57.900001525878906,-170.10000610351562,-20.100000381469727
1259884,0.4414295256137848,8.731093406677246,-2.316607713699341,0.18292799592018127,-0.19054999947547913,-0.457319974899292,50.70000076293945,-165.3000030517578,-19.5
1259949,0.6860699653625488,8.94941520690918,-2.2615785598754883,-0.8231759667396545,0.22103799879550934,-0.4725639820098877,53.10000228881836,-179.70001220703125,-18.30000114440918
1259969,0.9994968771934509,9.279589653015137,-2.155707359313965,-0.5868939757347107,0.114329993724823,-0.5868939757347107,53.10000228881836,-162.90000915527344,-20.100000381469727
1259989,0.9929173588752747,8.79210376739502,-2.0247139930725098,-1.0442140102386475,0.685979962348938,-1.1661659479141235,65.10000610351562,-177.3000030517578,-15.90000057220459
1260010,1.2321745157241821,9.53798770904541,-2.25679349899292,-0.36585599184036255,0.9222619533538818,-0.7469559907913208,57.900001525878906,-172.5,-23.100000381469727
1260072,1.1532196998596191,8.65871810913086,-2.650371551513672,-0.015243999660015106,1.4558019638061523,-1.9131219387054443,65.10000610351562,-172.5,-21.30000114440918
1260095,1.4421226978302002,8.274709701538086,-2.750859498977661,0.08384199440479279,1.6234859228134155,-1.3338500261306763,72.30000305175781,-158.10000610351562,-18.900001525878906
1260116,1.9409739971160889,8.601295471191406,-2.8776657581329346,-0.2591480016708374,1.806414008140564,-0.685979962348938,69.9000015258789,-172.5,-15.90000057220459
1260136,2.283111810684204,8.86089038848877,-3.2024574279785156,-0.5640279650688171,2.4161739349365234,-0.571649968624115,62.70000076293945,-162.90000915527344,-20.700000762939453
1260199,3.2927770614624023,9.785618782043457,-3.4118075370788574,-1.2652519941329956,1.0823240280151367,-1.1661659479141235,62.70000076293945,-162.90000915527344,-20.700000762939453
1260249,2.49485445022583,7.6831464767456055,-2.7831592559814453,0.16768398880958557,-0.7621999979019165,-0.4725639820098877,55.500003814697266,-158.10000610351562,-17.700000762939453
1260269,2.7909350395202637,8.664100646972656,-2.557061195373535,0.39634400606155396,-1.1128119230270386,0.571649968624115,57.900001525878906,-172.5,-20.700000762939453
1260312,2.325579881668091,8.1365385055542,-2.1503238677978516,-0.8765299916267395,-0.6936019659042358,-1.2576299905776978,55.500003814697266,-160.5,-18.30000114440918
1260332,1.921235203742981,7.5551438331604,-1.5503865480422974,-0.7774440050125122,-0.5335400104522705,-0.9298839569091797,60.30000305175781,-165.3000030517578,-18.900001525878906
1260356,2.4571714401245117,10.605672836303711,-2.495452404022217,-0.39634400606155396,0.9603719711303711,0.7621999979019165,72.30000305175781,-153.3000030517578,-15.90000057220459
1260380,1.24593186378479,8.56002426147461,-2.4344418048858643,-0.7164679765701294,0.9984819889068604,-2.5076379776000977,69.9000015258789,-160.5,-15.300000190734863
1260401,0.9073829054832458,8.083902359008789,-2.6491751670837402,1.3872039318084717,-0.228659987449646,-0.8841519951820374,67.5,-167.70001220703125,-24.900001525878906
1260421,1.520479440689087,9.813133239746094,-2.4153013229370117,1.9054999351501465,-1.3567159175872803,0.7469559907913208,65.10000610351562,-179.70001220703125,-15.90000057220459
1260441,1.6825761795043945,10.457931518554688,-2.3704404830932617,1.021347999572754,-0.457319974899292,-0.2591480016708374,77.10000610351562,-162.90000915527344,-14.700000762939453
1260507,1.318905234336853,9.23532772064209,-2.7502613067626953,1.1814099550247192,0.457319974899292,-0.5640279650688171,69.9000015258789,-170.10000610351562,-20.700000762939453
1260670,1.1956877708435059,9.05588436126709,-3.156400442123413,-0.5259180068969727,-0.6326259970664978,-0.9603719711303711,72.30000305175781,-162.90000915527344,-23.100000381469727
1260692,1.2644742727279663,9.192859649658203,-2.968583583831787,-0.6402480006217957,-0.6631140112876892,-0.967993974685669,84.30000305175781,-162.90000915527344,-21.30000114440918
1260733,1.329671859741211,8.960780143737793,-2.7281301021575928,-0.5945159792900085,0.12195199728012085,-0.7088459730148315,77.10000610351562,-165.3000030517578,-15.90000057220459
1260775,1.4403282403945923,9.03195858001709,-2.5893609523773193,-0.6631140112876892,0.9756159782409668,-0.4344539940357208,72.30000305175781,-170.10000610351562,-19.5
1261152,1.508516550064087,9.167139053344727,-2.9380781650543213,0.44969800114631653,0.1600620001554489,-0.3277460038661957,84.30000305175781,-165.3000030517578,-17.100000381469727
1261172,1.5013388395309448,8.883021354675293,-2.9338912963867188,0.49542999267578125,-0.2743920087814331,-0.5564059615135193,79.5,-167.70001220703125,-24.30000114440918
1261217,1.7830642461776733,8.886012077331543,-2.7149710655212402,0.7088459730148315,-0.38109999895095825,-0.09146399796009064,81.9000015258789,-165.3000030517578,-22.5
1261258,1.4451134204864502,8.733485221862793,-2.9135544300079346,-0.1448179930448532,0.19817200303077698,-1.242385983467102,86.70000457763672,-158.10000610351562,-23.100000381469727
1261414,1.1478363275527954,7.479179859161377,-2.7083914279937744,-0.8841519951820374,-1.3643379211425781,-1.4481799602508545,84.30000305175781,-150.90000915527344,-15.90000057220459
1261749,-0.21592961251735687,8.1604642868042,-2.8011035919189453,0.17530599236488342,-0.6936019659042358,-0.228659987449646,103.50000762939453,-160.5,-19.5
1261769,0.31701576709747314,9.23532772064209,-2.662334442138672,-0.3582339882850647,0.1295740008354187,0.6707359552383423,81.9000015258789,-155.70001220703125,-16.5
1261810,1.4570763111114502,11.353351593017578,-3.2389442920684814,-1.8369019031524658,1.7301939725875854,-0.7012239694595337,91.5,-153.3000030517578,-9.90000057220459
1261831,0.9438695907592773,9.592418670654297,-2.802299737930298,-1.8521459102630615,1.189031958580017,-2.6753220558166504,96.30000305175781,-158.10000610351562,-19.5
1261851,0.8810645937919617,8.889002799987793,-2.564239025115967,-1.2195199728012085,1.3414719104766846,-1.5320219993591309,81.9000015258789,-172.5,-14.700000762939453
1261871,0.815867006778717,9.087586402893066,-2.792729616165161,-0.9070180058479309,1.875011920928955,-0.7164679765701294,98.70000457763672,-150.90000915527344,-24.30000114440918
1261891,0.4181019365787506,8.378188133239746,-2.8663010597229004,-0.28201398253440857,1.5015339851379395,-0.8612859845161438,91.5,-158.10000610351562,-17.700000762939453
1261934,0.39477434754371643,8.64675521850586,-3.2778234481811523,0.5411620140075684,0.22103799879550934,0.39634400606155396,96.30000305175781,-158.10000610351562,-16.5
1261995,1.2261930704116821,8.963770866394043,-3.1157267093658447,-0.16768398880958557,-0.3582339882850647,0.5792719721794128,89.10000610351562,-162.90000915527344,-14.700000762939453
1262017,1.4481041431427002,9.177308082580566,-3.042753219604492,-0.2972579896450043,-0.08384199440479279,0.6554920077323914,98.70000457763672,-167.70001220703125,-13.500000953674316
1262057,1.333858847618103,9.11270809173584,-3.043351411819458,-0.8689079880714417,0.7545779943466187,-0.07621999830007553,101.10000610351562,-155.70001220703125,-11.700000762939453
1262111,0.9372900128364563,8.965564727783203,-3.070866107940674,-0.18292799592018127,0.6631140112876892,-0.22103799879550934,84.30000305175781,-162.90000915527344,-14.700000762939453
1262131,0.8732887506484985,8.965564727783203,-3.0929973125457764,-0.038109999150037766,0.49542999267578125,-0.09908600151538849,86.70000457763672,-167.70001220703125,-12.90000057220459
1262174,0.9402807354927063,8.57796859741211,-2.935685634613037,0.060975998640060425,-0.02286599949002266,0.5640279650688171,89.10000610351562,-165.3000030517578,-13.500000953674316
1262198,1.1263031959533691,9.03016471862793,-2.936283826828003,-0.10670799762010574,0.15243999660015106,0.9298839569091797,105.9000015258789,-165.3000030517578,-18.30000114440918
1262218,1.123910665512085,9.00803279876709,-3.058305025100708,-0.49542999267578125,0.228659987449646,0.6173819899559021,69.9000015258789,-160.5,-26.700000762939453
1262238,1.20705246925354,8.935059547424316,-3.0182294845581055,-0.46494197845458984,-0.015243999660015106,0.5335400104522705,89.10000610351562,-158.10000610351562,-12.300000190734863
1262258,1.2333707809448242,8.719130516052246,-2.7981128692626953,-0.49542999267578125,-0.07621999830007553,0.4192099869251251,91.5,-155.70001220703125,-20.100000381469727
1262278,1.3559901714324951,9.25327205657959,-2.814262628555298,-0.2972579896450043,-0.038109999150037766,0.5411620140075684,86.70000457763672,-167.70001220703125,-14.100000381469727
1262298,1.2423429489135742,9.019397735595703,-2.825627326965332,-0.739333987236023,0.26677000522613525,-0.09146399796009064,77.10000610351562,-158.10000610351562,-9.90000057220459
1262321,1.146041989326477,8.741859436035156,-2.9105637073516846,-0.4725639820098877,0.2134159952402115,-0.19054999947547913,91.5,-155.70001220703125,-16.5
1262341,1.1388641595840454,8.956592559814453,-2.8692917823791504,-0.06859800219535828,0.09908600151538849,0,84.30000305175781,-160.5,-18.900001525878906
1262361,1.122116208076477,9.22934627532959,-2.9081711769104004,-0.1295740008354187,0.17530599236488342,0.007621999830007553,101.10000610351562,-172.5,-16.5
1262384,0.9456640481948853,9.209009170532227,-2.9279098510742188,-0.33536797761917114,0.18292799592018127,-0.28201398253440857,86.70000457763672,-162.90000915527344,-18.900001525878906
1262405,0.7823709845542908,9.041528701782227,-2.8830490112304688,-0.4039659798145294,0.15243999660015106,-0.228659987449646,91.5,-162.90000915527344,-15.90000057220459
1262425,0.8039041757583618,9.296338081359863,-2.6844656467437744,-0.28201398253440857,-0.15243999660015106,0.060975998640060425,93.9000015258789,-160.5,-19.5
1262445,0.6675275564193726,9.668981552124023,-2.5654351711273193,-0.7012239694595337,-0.3734779953956604,0.1600620001554489,91.5,-172.5,-11.700000762939453
1262465,0.38041892647743225,9.564306259155273,-2.244232416152954,-0.7088459730148315,-1.021347999572754,0.13719600439071655,91.5,-162.90000915527344,-14.700000762939453
1262485,0.5353379845619202,9.131848335266113,-1.724446177482605,-1.0975680351257324,-2.2713558673858643,-0.015243999660015106,84.30000305175781,-165.3000030517578,-12.300000190734863
1262505,0.8374001383781433,8.055789947509766,-0.8314187526702881,-1.3643379211425781,-3.056421995162964,0.3887220025062561,93.9000015258789,-162.90000915527344,-16.5
1262529,0.721360445022583,7.6771650314331055,-0.04605700820684433,-1.4481799602508545,-3.2241058349609375,1.5548880100250244,98.70000457763672,-160.5,-13.500000953674316
1262550,0.5819931030273438,7.474394798278809,-0.012561002746224403,-1.7911700010299683,-2.439039945602417,1.9512319564819336,89.10000610351562,-162.90000915527344,-23.100000381469727
1262570,0.18183545768260956,6.887616157531738,-0.26258477568626404,-1.2804960012435913,-3.3689239025115967,1.3872039318084717,86.70000457763672,-162.90000915527344,-21.30000114440918
1262590,-0.253014475107193,6.057394027709961,-0.05682358145713806,-0.1448179930448532,-5.510705947875977,1.1128119230270386,81.9000015258789,-158.10000610351562,-12.300000190734863
1262654,1.122116208076477,5.211619853973389,0.15850788354873657,0.3201240003108978,-10.045795440673828,2.7744078636169434,77.10000610351562,-162.90000915527344,-22.5
1262674,1.2537076473236084,4.585363864898682,-0.10706759244203568,0.07621999830007553,-10.49549388885498,2.339953899383545,84.30000305175781,-150.90000915527344,-21.900001525878906
1262694,1.2381559610366821,3.725832462310791,-0.1824336051940918,0.2896359860897064,-11.394889831542969,1.653973937034607,74.70000457763672,-172.5,-20.100000381469727
1262717,1.419991374015808,3.273038387298584,-0.17346146702766418,0.1600620001554489,-12.088491439819336,2.1189160346984863,67.5,-167.70001220703125,-22.5
1262757,2.19996976852417,3.931593656539917,-0.7692118883132935,-2.1189160346984863,-9.31408405303955,0.8231759667396545,72.30000305175781,-160.5,-14.700000762939453
1262780,2.4996395111083984,3.9088642597198486,-2.7885425090789795,-0.5411620140075684,-6.089977741241455,-2.3704419136047363,91.5,-158.10000610351562,-23.100000381469727
1262800,2.6611380577087402,4.761218070983887,-3.8317039012908936,0.6097599864006042,-5.4573516845703125,-2.195136070251465,79.5,-167.70001220703125,-26.700000762939453
1262860,4.187000751495361,10.41247272491455,-7.18070650100708,1.577754020690918,2.6677000522613525,0.571649968624115,84.30000305175781,-153.3000030517578,-21.900001525878906
1262889,2.7143728733062744,9.348376274108887,-6.995880126953125,-2.088428020477295,1.2881180047988892,-8.338467597961426,103.50000762939453,-158.10000610351562,-24.30000114440918
1262909,0.8918311595916748,4.7247314453125,-6.032271862030029,1.7225719690322876,1.471045970916748,-10.67080020904541,101.10000610351562,-165.3000030517578,-23.100000381469727
1262952,2.1921939849853516,14.192138671875,-7.37390661239624,-1.9664759635925293,10.75464153289795,-5.373509883880615,110.70000457763672,-165.3000030517578,-21.30000114440918
1262994,-1.8440747261047363,6.108235836029053,-8.91053581237793,4.67990779876709,12.301907539367676,-15.899491310119629,129.90000915527344,-153.3000030517578,-8.700000762939453
1263129,-5.065074443817139,14.917685508728027,-6.702790260314941,-0.3048799932003021,12.728739738464355,-13.03361988067627,163.5,-138.90000915527344,-8.700000762939453
1263150,-5.228367805480957,11.105122566223145,-9.00324821472168,4.199721813201904,17.225719451904297,-10.190613746643066,170.70001220703125,-126.9000015258789,-18.30000114440918
1263190,-3.3244786262512207,16.55719566345215,-8.521742820739746,-4.672286033630371,6.143332004547119,-1.7759259939193726,170.70001220703125,-124.50000762939453,-8.700000762939453
1263250,-4.575195789337158,14.781309127807617,-6.567609786987305,-1.5015339851379395,15.937602043151855,-2.682943820953369,175.5,-119.70000457763672,-13.500000953674316
1263270,-4.015932083129883,13.98099422454834,-7.3344292640686035,-1.2728739976882935,12.271419525146484,-4.024415969848633,180.3000030517578,-114.9000015258789,-2.1000001430511475
1263313,-6.3361287117004395,12.482645988464355,-5.8289031982421875,-1.882633924484253,9.939087867736816,-1.0975680351257324,182.70001220703125,-117.30000305175781,-3.3000001907348633
1263372,-6.267940044403076,11.912615776062012,-4.381397247314453,-2.7744078636169434,7.9268798828125,1.2347639799118042,158.70001220703125,-126.9000015258789,0.30000001192092896
1263392,-5.316893100738525,12.431803703308105,-5.170347690582275,-2.690565824508667,5.701255798339844,4.016793727874756,158.70001220703125,-124.50000762939453,-2.700000047683716
1263434,-4.688244819641113,12.776333808898926,-2.6150810718536377,-4.314052104949951,-0.8231759667396545,5.137228012084961,158.70001220703125,-129.3000030517578,-3.3000001907348633
1263455,-4.713366508483887,11.669769287109375,-2.280719041824341,-5.6174139976501465,0.4878079891204834,4.725639820098877,149.10000610351562,-141.3000030517578,-7.500000476837158
1263475,-4.444202423095703,10.773153305053711,-2.327972412109375,-6.333881855010986,-0.8765299916267395,4.756127834320068,151.5,-126.9000015258789,-6.900000095367432
1263495,-4.099073886871338,9.572680473327637,-1.6221637725830078,-6.356747627258301,-3.7881338596343994,4.169233798980713,149.10000610351562,-134.10000610351562,-11.700000762939453
1263517,-3.606204032897949,7.785429000854492,-0.26677176356315613,-5.6174139976501465,-6.432967662811279,3.399411916732788,153.90000915527344,-153.3000030517578,-1.5
1263537,-3.1486246585845947,6.570600509643555,-0.24344418942928314,-4.222588062286377,-6.219552040100098,4.306429862976074,139.5,-150.90000915527344,-8.100000381469727
1263557,-2.2908875942230225,6.4222612380981445,-0.0029907147400081158,-3.3841679096221924,-7.477181911468506,5.7698540687561035,129.90000915527344,-143.70001220703125,-13.500000953674316
1263620,-0.49526238441467285,4.818639755249023,-0.21592961251735687,-0.19054999947547913,-9.618964195251465,7.423827648162842,127.50000762939453,-153.3000030517578,-13.500000953674316
1263669,0.8834571838378906,4.548877239227295,-0.17166703939437866,0.13719600439071655,-8.910118103027344,7.240900039672852,105.9000015258789,-160.5,-17.700000762939453
1263689,1.3344569206237793,3.9004902839660645,0.11723602563142776,0.853663980960846,-8.262248039245605,5.724122047424316,89.10000610351562,-165.3000030517578,-20.700000762939453
1263731,2.1868107318878174,4.089503288269043,-0.37862449884414673,1.4100699424743652,-4.984787940979004,5.2134480476379395,86.70000457763672,-160.5,-21.30000114440918
1263751,2.280121088027954,3.990809917449951,-1.3254848718643188,2.14178204536438,-2.782029867172241,3.3155698776245117,93.9000015258789,-162.90000915527344,-17.700000762939453
1263771,2.247223138809204,3.913649559020996,-1.6544634103775024,2.4542839527130127,-2.9649579524993896,3.109776020050049,91.5,-167.70001220703125,-19.5
1263791,2.602519989013672,4.440613269805908,-1.8279249668121338,2.2561118602752686,-3.9481959342956543,3.9786839485168457,86.70000457763672,-170.10000610351562,-17.100000381469727
1263811,3.0176312923431396,5.3635478019714355,-1.743586778640747,1.829279899597168,-4.4436259269714355,4.2988080978393555,84.30000305175781,-167.70001220703125,-23.700000762939453
1263831,3.6504664421081543,5.980233192443848,-1.8841503858566284,1.471045970916748,-4.275941848754883,4.0396599769592285,86.70000457763672,-170.10000610351562,-15.300000190734863
1263851,4.25459098815918,6.69561243057251,-2.318402051925659,0.9832379817962646,-2.5228819847106934,3.1250200271606445,67.5,-167.70001220703125,-18.900001525878906
1263874,4.548279285430908,8.047415733337402,-3.120511770248413,1.0975680351257324,-1.9664759635925293,2.2561118602752686,74.70000457763672,-165.3000030517578,-20.100000381469727
1263894,3.928602933883667,8.101846694946289,-2.8860397338867188,-0.02286599949002266,-1.0975680351257324,0.7240899801254272,72.30000305175781,-177.3000030517578,-10.5
1263917,3.3047399520874023,8.433218002319336,-3.3645541667938232,0.04573199898004532,0.6936019659042358,-0.2743920087814331,84.30000305175781,-172.5,-12.90000057220459
1263937,2.795720338821411,8.79688835144043,-4.148719787597656,0.6250039935112,1.2042759656906128,-0.6250039935112,69.9000015258789,-158.10000610351562,-17.700000762939453
1263957,2.4511899948120117,8.827393531799316,-4.088905334472656,0.6631140112876892,0.48018598556518555,-1.0899460315704346,79.5,-170.10000610351562,-11.100000381469727
1263977,2.286102533340454,9.182092666625977,-4.307227611541748,0.9222619533538818,-0.2896359860897064,-0.5030519962310791,77.10000610351562,-162.90000915527344,-15.90000057220459
1264020,2.6629323959350586,9.557127952575684,-3.9094624519348145,0.038109999150037766,-0.4725639820098877,-0.5640279650688171,69.9000015258789,-170.10000610351562,-14.100000381469727
1264044,2.24483060836792,8.868067741394043,-3.573306083679199,0.33536797761917114,0.19817200303077698,-1.6692179441452026,77.10000610351562,-172.5,-17.100000381469727
1264086,1.8668042421340942,8.67546558380127,-3.3250768184661865,-0.44969800114631653,1.417691946029663,-2.0198299884796143,74.70000457763672,-158.10000610351562,-15.90000057220459
1264106,1.4570763111114502,8.346487045288086,-3.252103328704834,-0.030487999320030212,1.5320219993591309,-2.1722700595855713,81.9000015258789,-158.10000610351562,-11.700000762939453
1264126,1.4002526998519897,8.592324256896973,-3.2652623653411865,-0.15243999660015106,1.4405579566955566,-1.2195199728012085,74.70000457763672,-170.10000610351562,-15.90000057220459
1264187,1.4947593212127686,8.54686450958252,-2.677288055419922,-0.5564059615135193,1.1204339265823364,-0.8307979702949524,81.9000015258789,-170.10000610351562,-18.30000114440918
1264209,1.5784993171691895,9.060669898986816,-3.008060932159424,-0.7469559907913208,1.9131219387054443,-0.3277460038661957,86.70000457763672,-162.90000915527344,-21.900001525878906
1264229,1.4253747463226318,8.82500171661377,-3.043949604034424,-0.5868939757347107,1.7911700010299683,-0.8993960022926331,74.70000457763672,-160.5,-15.300000190734863
1264272,1.5282553434371948,9.229944229125977,-2.859123468399048,-0.3125019967556,0.7926880121231079,-0.39634400606155396,91.5,-162.90000915527344,-19.5
1264312,1.338644027709961,8.953003883361816,-2.9105637073516846,-0.26677000522613525,1.196653962135315,-1.0747020244598389,72.30000305175781,-160.5,-15.90000057220459
1264334,1.0288058519363403,9.07981014251709,-3.102567672729492,-0.2591480016708374,1.1661659479141235,-1.0975680351257324,89.10000610351562,-162.90000915527344,-17.100000381469727
1264354,0.9253271818161011,9.01222038269043,-3.0212202072143555,-0.20579399168491364,0.5030519962310791,-0.8612859845161438,89.10000610351562,-167.70001220703125,-13.500000953674316
1264395,0.92472904920578,8.828590393066406,-2.828618049621582,-0.4344539940357208,0.13719600439071655,-0.6783579587936401,84.30000305175781,-158.10000610351562,-15.90000057220459
1264415,1.0294040441513062,9.26523494720459,-2.9069747924804688,-0.25152599811553955,0.2439039945602417,-0.457319974899292,89.10000610351562,-160.5,-17.700000762939453
1264435,0.8966163396835327,9.06306266784668,-3.0565106868743896,-0.8460419774055481,0.2134159952402115,-0.8307979702949524,93.9000015258789,-155.70001220703125,-14.100000381469727
1264455,0.9911229014396667,9.127063751220703,-3.0720622539520264,-0.16768398880958557,-0.2972579896450043,-0.22103799879550934,84.30000305175781,-162.90000915527344,-17.700000762939453
1264519,1.1484345197677612,9.340002059936523,-2.915348768234253,-0.4192099869251251,-0.228659987449646,-0.18292799592018127,74.70000457763672,-155.70001220703125,-11.100000381469727
1264539,1.1185274124145508,9.220972061157227,-2.911760091781616,-0.426831990480423,0.28201398253440857,-0.4878079891204834,96.30000305175781,-162.90000915527344,-23.100000381469727
1264559,0.9642064571380615,8.754420280456543,-2.9320969581604004,-0.6631140112876892,0.49542999267578125,-0.6707359552383423,84.30000305175781,-160.5,-13.500000953674316
1264581,1.0395724773406982,8.995471954345703,-2.7819628715515137,-0.6783579587936401,0.44969800114631653,0.060975998640060425,84.30000305175781,-158.10000610351562,-18.30000114440918
1264602,1.0742647647857666,8.91950798034668,-2.8567309379577637,-0.6326259970664978,1.067080020904541,-0.20579399168491364,79.5,-170.10000610351562,-9.90000057220459
1264622,1.0527316331863403,8.95240592956543,-3.1492228507995605,-0.28201398253440857,1.0594580173492432,-0.22103799879550934,96.30000305175781,-167.70001220703125,-17.100000381469727
1264642,0.9923191666603088,8.90156364440918,-3.049931049346924,-0.15243999660015106,0.4344539940357208,-0.2591480016708374,86.70000457763672,-160.5,-11.700000762939453
1264665,0.9803563356399536,8.541481971740723,-2.878862142562866,-0.015243999660015106,0.41158798336982727,-0.48018598556518555,89.10000610351562,-158.10000610351562,-12.90000057220459
