time,sensor_accX[g],sensor_accY[g],sensor_accZ[g],sensor_gyroX[°/s],sensor_gyroY[°/s],sensor_gyroZ[°/s],sensor_magX[µT],sensor_magY[µT],sensor_magZ[µT]
104101,-3.0301923751831055,8.32973861694336,-3.746169328689575,-0.26677000522613525,0.2591480016708374,-0.3887220025062561,228.3000030517578,-98.10000610351562,-7.500000476837158
104121,-3.0176312923431396,8.486452102661133,-3.820937395095825,-0.1600620001554489,0.25152599811553955,-0.25152599811553955,206.70001220703125,-105.30000305175781,-11.700000762939453
104141,-3.0206220149993896,8.56899642944336,-3.8281149864196777,-0.10670799762010574,0.2134159952402115,-0.26677000522613525,218.70001220703125,-105.30000305175781,-19.5
104161,-3.0176312923431396,8.54806137084961,-3.8532369136810303,-0.08384199440479279,0.16768398880958557,-0.35061198472976685,225.90000915527344,-112.50000762939453,-9.300000190734863
104181,-3.1013712882995605,8.33572006225586,-3.8083763122558594,-0.09908600151538849,0.19054999947547913,-0.39634400606155396,218.70001220703125,-110.10000610351562,-14.100000381469727
104221,-2.9727704524993896,8.41347885131836,-3.8412742614746094,-0.23628199100494385,0.2896359860897064,-0.06859800219535828,223.50001525878906,-107.70000457763672,-20.100000381469727
104241,-2.9847333431243896,8.469106674194336,-3.8699851036071777,-0.3048799932003021,0.26677000522613525,-0.015243999660015106,223.50001525878906,-114.9000015258789,-15.90000057220459
104262,-2.9554243087768555,8.47628402709961,-3.785646915435791,-0.228659987449646,0.18292799592018127,-0.060975998640060425,218.70001220703125,-100.50000762939453,-14.700000762939453
104282,-2.847160577774048,8.458937644958496,-3.791030168533325,-0.2591480016708374,0.25152599811553955,-0.09146399796009064,218.70001220703125,-114.9000015258789,-18.900001525878906
104305,-2.911760091781616,8.397927284240723,-3.7270288467407227,-0.342989981174469,0.342989981174469,-0.07621999830007553,235.50001525878906,-114.9000015258789,-11.700000762939453
104325,-2.977555751800537,8.38656234741211,-3.7342066764831543,-0.49542999267578125,0.4344539940357208,0.015243999660015106,201.90000915527344,-95.70000457763672,-14.700000762939453
104345,-2.9249191284179688,8.423048973083496,-3.738393545150757,-0.44969800114631653,0.4344539940357208,0.038109999150037766,221.10000610351562,-105.30000305175781,-11.100000381469727
104365,-2.848954916000366,8.473891258239746,-3.722841739654541,-0.48018598556518555,0.4192099869251251,-0.015243999660015106,221.10000610351562,-110.10000610351562,-11.700000762939453
104385,-2.8932175636291504,8.39673137664795,-3.7180566787719727,-0.5030519962310791,0.44969800114631653,-0.06859800219535828,230.70001220703125,-107.70000457763672,-15.90000057220459
104405,-3.0056684017181396,8.436208724975586,-3.7180566787719727,-0.4420759975910187,0.4420759975910187,-0.09146399796009064,218.70001220703125,-107.70000457763672,-14.100000381469727
104425,-2.9524338245391846,8.557631492614746,-3.6414945125579834,-0.38109999895095825,0.4725639820098877,-0.08384199440479279,223.50001525878906,-114.9000015258789,-8.100000381469727
104449,-3.0152387619018555,8.63658618927002,-3.6672146320343018,-0.4344539940357208,0.739333987236023,-0.26677000522613525,211.50001525878906,-112.50000762939453,-16.5
104510,-3.0056684017181396,8.493630409240723,-3.579885721206665,-0.39634400606155396,0.9756159782409668,0,216.3000030517578,-117.30000305175781,-15.300000190734863
104530,-3.0032758712768555,8.394338607788086,-3.585268974304199,-0.4192099869251251,1.0594580173492432,0.18292799592018127,221.10000610351562,-102.9000015258789,-12.300000190734863
104571,-2.9285080432891846,8.206521987915039,-3.6014187335968018,-0.3048799932003021,0.9298839569091797,0.35061198472976685,218.70001220703125,-112.50000762939453,-6.900000095367432
104591,-2.6874563694000244,8.43142318725586,-3.5362212657928467,-0.1600620001554489,0.800309956073761,0.3201240003108978,213.90000915527344,-105.30000305175781,-15.90000057220459
104611,-2.6844656467437744,8.448769569396973,-3.618166923522949,-0.2972579896450043,0.9603719711303711,0.04573199898004532,221.10000610351562,-102.9000015258789,-9.300000190734863
104631,-2.781364917755127,8.3518705368042,-3.633718490600586,-0.1600620001554489,0.8993960022926331,-0.114329993724823,225.90000915527344,-102.9000015258789,-16.5
104651,-2.8663010597229004,8.34289836883545,-3.6552517414093018,-0.17530599236488342,0.8993960022926331,-0.13719600439071655,233.10000610351562,-107.70000457763672,-5.100000381469727
104691,-2.9697799682617188,8.35665512084961,-3.7102808952331543,-0.3125019967556,0.9527499675750732,-0.228659987449646,218.70001220703125,-110.10000610351562,-9.300000190734863
104711,-3.26765513420105,8.074930191040039,-3.9004902839660645,-0.3048799932003021,1.2042759656906128,-0.4420759975910187,225.90000915527344,-110.10000610351562,-8.100000381469727
104732,-3.1587929725646973,8.254372596740723,-4.026100158691406,-0.06859800219535828,1.0747020244598389,-0.22103799879550934,213.90000915527344,-105.30000305175781,-16.5
104752,-2.9129562377929688,8.82978630065918,-3.8765645027160645,0.16768398880958557,0.7621999979019165,-0.05335399881005287,216.3000030517578,-110.10000610351562,-17.100000381469727
104772,-2.993107318878174,8.731093406677246,-3.991408109664917,-0.342989981174469,1.3109840154647827,-0.3201240003108978,218.70001220703125,-114.9000015258789,-14.100000381469727
104793,-3.112137794494629,8.584547996520996,-4.092494010925293,-0.28201398253440857,1.425313949584961,-0.3277460038661957,218.70001220703125,-110.10000610351562,-15.90000057220459
104814,-3.079838275909424,8.493630409240723,-4.084120273590088,-0.36585599184036255,1.5548880100250244,-0.3201240003108978,213.90000915527344,-117.30000305175781,-11.100000381469727
104834,-3.0541179180145264,8.433815956115723,-4.062587261199951,-0.5411620140075684,1.806414008140564,-0.2439039945602417,221.10000610351562,-107.70000457763672,-14.100000381469727
104854,-2.7879443168640137,8.658119201660156,-3.9632952213287354,-0.6631140112876892,1.9588539600372314,0.08384199440479279,223.50001525878906,-117.30000305175781,-7.500000476837158
104874,-2.5947442054748535,8.732887268066406,-3.7718896865844727,-1.0747020244598389,2.126538038253784,0.114329993724823,230.70001220703125,-100.50000762939453,-3.3000001907348633
104897,-3.063688278198242,8.055191040039062,-3.8951070308685303,-1.9588539600372314,2.6143460273742676,-0.342989981174469,213.90000915527344,-119.70000457763672,-13.500000953674316
104917,-3.6056058406829834,7.2596611976623535,-4.375415802001953,-1.478667974472046,2.545747995376587,-0.015243999660015106,213.90000915527344,-107.70000457763672,-11.700000762939453
104937,-3.133072853088379,7.877542972564697,-4.587756633758545,-0.6326259970664978,1.1280559301376343,1.0899460315704346,211.50001525878906,-105.30000305175781,-8.100000381469727
105000,-3.1761391162872314,7.920011043548584,-4.157691955566406,-1.0442140102386475,1.2881180047988892,0.09908600151538849,221.10000610351562,-107.70000457763672,-13.500000953674316
105021,-3.5248565673828125,8.048013687133789,-4.478296279907227,-0.7621999979019165,1.8445239067077637,0.4344539940357208,204.3000030517578,-119.70000457763672,-12.300000190734863
105041,-3.5039215087890625,8.903358459472656,-4.742077350616455,-0.38109999895095825,1.5091559886932373,0.8155539631843567,204.3000030517578,-114.9000015258789,-9.300000190734863
105061,-3.561343193054199,9.046314239501953,-4.829406261444092,-0.7850660085678101,1.1585439443588257,0.41158798336982727,206.70001220703125,-112.50000762939453,-8.700000762939453
105105,-3.6085965633392334,8.445778846740723,-4.789330959320068,-1.5320219993591309,0,1.5167779922485352,201.90000915527344,-114.9000015258789,-14.100000381469727
105125,-3.3675448894500732,8.53490161895752,-4.618860244750977,-1.5091559886932373,-0.7621999979019165,1.92836594581604,199.50001525878906,-114.9000015258789,-16.5
105145,-3.177335500717163,8.2920560836792,-4.30543327331543,-1.7378159761428833,-1.371959924697876,2.03507399559021,206.70001220703125,-117.30000305175781,-5.700000286102295
105165,-3.103165626525879,7.714848041534424,-4.083521842956543,-1.9588539600372314,-1.4405579566955566,2.0579400062561035,204.3000030517578,-114.9000015258789,-6.900000095367432
105185,-2.9285080432891846,7.6502485275268555,-3.8490500450134277,-1.7149499654769897,-1.6844619512557983,2.6219680309295654,187.5,-124.50000762939453,-9.300000190734863
105205,-2.747868776321411,8.257962226867676,-3.874770164489746,-1.8902559280395508,-1.2576299905776978,3.041177988052368,204.3000030517578,-122.10000610351562,-15.300000190734863
105229,-2.8692917823791504,8.752626419067383,-3.8825459480285645,-2.042695999145508,-1.2118979692459106,2.9116039276123047,199.50001525878906,-112.50000762939453,-20.700000762939453
105249,-2.7592334747314453,8.59770679473877,-3.371133804321289,-2.339953899383545,-1.4558019638061523,2.4009299278259277,182.70001220703125,-119.70000457763672,-11.100000381469727
105270,-3.0959880352020264,8.093472480773926,-3.502725124359131,-2.5762360095977783,-0.2439039945602417,2.187514066696167,182.70001220703125,-126.9000015258789,-13.500000953674316
105290,-3.356180191040039,8.623427391052246,-3.851442575454712,-1.806414008140564,-0.23628199100494385,2.782029867172241,187.5,-129.3000030517578,-12.300000190734863
105310,-3.2981603145599365,9.114502906799316,-3.7389917373657227,-1.7606819868087769,-0.571649968624115,2.888737916946411,189.90000915527344,-131.70001220703125,-14.100000381469727
105330,-3.5122954845428467,8.915919303894043,-3.5487823486328125,-2.1646480560302734,-0.3887220025062561,2.6219680309295654,192.3000030517578,-134.10000610351562,-9.90000057220459
105350,-3.67499041557312,8.734682083129883,-3.687551498413086,-2.3094658851623535,-0.114329993724823,2.9268479347229004,189.90000915527344,-134.10000610351562,-14.100000381469727
105370,-4.036268711090088,8.630006790161133,-3.8317039012908936,-2.599102020263672,-0.1600620001554489,3.3689239025115967,180.3000030517578,-129.3000030517578,-11.100000381469727
105390,-3.7784690856933594,8.76518726348877,-3.854433298110962,-2.7286758422851562,-0.8841519951820374,3.818621873855591,187.5,-138.90000915527344,-15.300000190734863
105410,-4.038063049316406,7.917020320892334,-3.8502461910247803,-3.0640439987182617,-1.3567159175872803,3.7271578311920166,182.70001220703125,-143.70001220703125,-17.700000762939453
105430,-3.866396188735962,7.732194423675537,-4.0255022048950195,-2.6753220558166504,-2.4009299278259277,4.67990779876709,165.90000915527344,-134.10000610351562,-18.900001525878906
105450,-3.1229045391082764,8.363235473632812,-3.996791362762451,-2.4542839527130127,-3.8262438774108887,5.556437969207764,161.10000610351562,-143.70001220703125,-13.500000953674316
105474,-2.798711061477661,8.495424270629883,-4.25160026550293,-2.278977870941162,-5.045763969421387,5.640279769897461,165.90000915527344,-158.10000610351562,-21.30000114440918
105494,-2.503826379776001,8.924293518066406,-4.215113639831543,-1.600619912147522,-6.509187698364258,5.533571720123291,156.3000030517578,-143.70001220703125,-20.700000762939453
105514,-1.5252646207809448,9.73417854309082,-4.113429069519043,-1.2118979692459106,-7.96498966217041,5.663146018981934,144.3000030517578,-148.5,-23.700000762939453
105534,-1.3715418577194214,9.27719783782959,-3.332254409790039,-1.7225719690322876,-8.811031341552734,4.672286033630371,146.70001220703125,-158.10000610351562,-24.900001525878906
105556,-1.1586029529571533,8.56480884552002,-3.1767373085021973,-1.4558019638061523,-8.628104209899902,5.015275955200195,153.90000915527344,-150.90000915527344,-18.900001525878906
105576,-0.3427359163761139,9.48236083984375,-2.807682991027832,-0.7698220014572144,-9.184510231018066,6.516809940338135,129.90000915527344,-162.90000915527344,-20.700000762939453
105600,0.9923191666603088,11.249873161315918,-1.9571237564086914,-1.8369019031524658,-7.865903854370117,6.958885669708252,129.90000915527344,-174.90000915527344,-29.700000762939453
105620,1.110153317451477,11.277985572814941,-1.8219435214996338,-2.195136070251465,-5.876561641693115,5.39637565612793,129.90000915527344,-167.70001220703125,-34.5
105641,0.9319067597389221,10.704964637756348,-1.6299395561218262,-2.5533699989318848,-4.794238090515137,4.375028133392334,125.10000610351562,-160.5,-28.500001907348633
105665,0.8595314621925354,9.977025032043457,-1.709492564201355,-2.4619059562683105,-3.7271578311920166,3.7195358276367188,110.70000457763672,-177.3000030517578,-26.700000762939453
105685,1.3290736675262451,9.657018661499023,-1.7842605113983154,-1.6234859228134155,-3.5289859771728516,3.971061944961548,115.50000762939453,-170.10000610351562,-27.30000114440918
105705,2.048041582107544,10.227646827697754,-1.3703455924987793,-0.967993974685669,-3.810999870300293,5.14484977722168,117.9000015258789,-179.70001220703125,-37.5
105725,1.7836623191833496,9.97642707824707,-0.8362038731575012,-1.2728739976882935,-2.233245849609375,4.870458126068115,101.10000610351562,-160.5,-26.700000762939453
105747,1.2572965621948242,10.160056114196777,-1.3111294507980347,-0.7240899801254272,-0.9832379817962646,4.496979713439941,91.5,-165.3000030517578,-28.500001907348633
105767,0.3146232068538666,9.763487815856934,-1.824336051940918,-0.35061198472976685,-0.4420759975910187,2.2561118602752686,93.9000015258789,-172.5,-27.900001525878906
105787,0.16807816922664642,9.376489639282227,-1.948151707649231,-0.007621999830007553,-0.6402480006217957,1.7987920045852661,98.70000457763672,-174.90000915527344,-29.700000762939453
105807,0.2607903480529785,8.890198707580566,-2.0019845962524414,0.5945159792900085,-1.4100699424743652,2.0655620098114014,91.5,-162.90000915527344,-32.70000076293945
105829,0.7853617072105408,8.679054260253906,-1.3224941492080688,0.1448179930448532,-1.5853760242462158,3.1173980236053467,86.70000457763672,-167.70001220703125,-31.500001907348633
105891,0.8553444743156433,8.149100303649902,-1.6712114810943604,0.030487999320030212,-0.739333987236023,3.4756319522857666,81.9000015258789,-177.3000030517578,-24.900001525878906
105912,1.094003438949585,8.447572708129883,-1.5450032949447632,0.2439039945602417,-1.013725996017456,3.711913824081421,65.10000610351562,-172.5,-26.100000381469727
105954,1.427767276763916,8.52892017364502,-1.0234225988388062,-0.3734779953956604,-0.10670799762010574,3.0183119773864746,72.30000305175781,-165.3000030517578,-27.30000114440918
105974,1.3607752323150635,8.138931274414062,-1.022226333618164,-0.342989981174469,0.6783579587936401,2.5533699989318848,69.9000015258789,-186.90000915527344,-29.100000381469727
105994,1.3655604124069214,8.354263305664062,-1.024020791053772,0.08384199440479279,1.1585439443588257,2.5686140060424805,62.70000076293945,-182.10000610351562,-30.900001525878906
106014,1.5653401613235474,8.55404281616211,-0.9289160370826721,0.19817200303077698,1.4634239673614502,1.7454379796981812,72.30000305175781,-170.10000610351562,-31.500001907348633
106075,1.7902419567108154,8.65752124786377,-0.6830793023109436,0.510673999786377,2.1722700595855713,0.8155539631843567,53.10000228881836,-179.70001220703125,-30.30000114440918
106095,1.7788771390914917,8.40151596069336,-0.596946656703949,0.5487840175628662,2.3018438816070557,0.3582339882850647,62.70000076293945,-179.70001220703125,-31.500001907348633
106115,1.8171583414077759,8.426039695739746,-0.4868883788585663,0.7850660085678101,2.4542839527130127,0.13719600439071655,57.900001525878906,-177.3000030517578,-27.30000114440918
106135,1.8638135194778442,8.498414993286133,-0.45937380194664,0.7850660085678101,2.7667858600616455,-0.19817200303077698,48.30000305175781,-174.90000915527344,-30.30000114440918
106158,1.830317497253418,8.38476848602295,-0.5269639492034912,0.685979962348938,3.1326420307159424,-0.9908599853515625,33.900001525878906,-182.10000610351562,-24.900001525878906
106178,1.7794753313064575,8.014517784118652,-0.6334334015846252,0.8155539631843567,3.4832539558410645,-1.471045970916748,50.70000076293945,-172.5,-26.100000381469727
106198,2.2107365131378174,8.710158348083496,-0.906186580657959,0.8841519951820374,3.6738038063049316,-1.1509219408035278,53.10000228881836,-182.10000610351562,-26.700000762939453
106218,2.820244073867798,9.929771423339844,-1.123910665512085,0.7926880121231079,3.871975898742676,-1.0061039924621582,65.10000610351562,-174.90000915527344,-23.100000381469727
106278,2.530742883682251,8.286672592163086,-2.42905855178833,1.4329359531402588,5.937537670135498,-2.332331895828247,60.30000305175781,-177.3000030517578,-27.30000114440918
106308,2.0157418251037598,8.0946683883667,-3.792226552963257,2.7744078636169434,6.836933612823486,-1.189031958580017,48.30000305175781,-174.90000915527344,-28.500001907348633
106332,2.4314510822296143,9.57088565826416,-4.557251453399658,3.612828016281128,5.876561641693115,0,67.5,-182.10000610351562,-27.30000114440918
106372,2.43803071975708,9.465612411499023,-4.594934463500977,2.5609920024871826,5.083873748779297,-0.7469559907913208,74.70000457763672,-172.5,-23.700000762939453
106436,2.3207948207855225,9.636083602905273,-5.019615650177002,1.0823240280151367,3.9863059520721436,-2.39330792427063,69.9000015258789,-172.5,-21.30000114440918
106456,1.82553231716156,8.549257278442383,-5.022008419036865,1.1204339265823364,4.28356409072876,-2.4695279598236084,62.70000076293945,-165.3000030517578,-23.700000762939453
106476,1.3751306533813477,7.794401168823242,-4.727123737335205,1.1585439443588257,3.658559799194336,-1.9664759635925293,67.5,-167.70001220703125,-14.100000381469727
106496,1.229781985282898,7.912833213806152,-4.5117926597595215,0.8612859845161438,3.460387945175171,-0.9375059604644775,72.30000305175781,-165.3000030517578,-14.100000381469727
106559,1.196884036064148,8.366226196289062,-4.160682678222656,-0.3887220025062561,3.0640439987182617,-1.013725996017456,67.5,-182.10000610351562,-14.100000381469727
106601,1.21004319190979,7.933768272399902,-4.160682678222656,-1.1509219408035278,3.239349842071533,-1.5548880100250244,57.900001525878906,-170.10000610351562,-15.90000057220459
106641,1.5545735359191895,8.258560180664062,-4.18580436706543,-1.013725996017456,2.492393970489502,-1.013725996017456,77.10000610351562,-170.10000610351562,-19.5
106671,1.8087843656539917,8.332131385803223,-4.091896057128906,-1.0899460315704346,1.7987920045852661,-1.3262280225753784,77.10000610351562,-172.5,-11.100000381469727
106691,1.9810495376586914,8.095865249633789,-3.889723777770996,-0.9984819889068604,1.3643379211425781,-1.3490939140319824,79.5,-170.10000610351562,-20.100000381469727
106731,2.057013750076294,7.941544055938721,-3.7898337841033936,-0.8460419774055481,0.7545779943466187,-1.4939119815826416,69.9000015258789,-174.90000915527344,-21.900001525878906
106751,2.2723450660705566,7.781839847564697,-3.505715847015381,-0.6250039935112,0.342989981174469,-1.2195199728012085,69.9000015258789,-165.3000030517578,-23.100000381469727
106771,2.364459276199341,7.948123931884766,-3.3316564559936523,-0.6631140112876892,0.2896359860897064,-0.7012239694595337,89.10000610351562,-162.90000915527344,-20.700000762939453
106792,2.4308531284332275,8.1604642868042,-3.150418996810913,-0.9070180058479309,0.030487999320030212,-0.3734779953956604,86.70000457763672,-158.10000610351562,-15.90000057220459
106812,2.336944580078125,7.847635746002197,-2.829216241836548,-1.5320219993591309,0.09146399796009064,-0.6021379828453064,86.70000457763672,-158.10000610351562,-15.300000190734863
106832,2.1778385639190674,7.552751064300537,-2.7048025131225586,-1.8216580152511597,0.3048799932003021,-0.7545779943466187,79.5,-177.3000030517578,-13.500000953674316
106854,2.4511899948120117,8.067153930664062,-2.6808767318725586,-1.6920839548110962,0.33536797761917114,-0.4039659798145294,67.5,-174.90000915527344,-17.700000762939453
106874,2.7711963653564453,8.984705924987793,-2.8962082862854004,-1.5015339851379395,0.13719600439071655,0.18292799592018127,81.9000015258789,-162.90000915527344,-17.100000381469727
106894,2.813664436340332,8.845337867736816,-2.6067070960998535,-1.882633924484253,-0.05335399881005287,-0.04573199898004532,74.70000457763672,-167.70001220703125,-22.5
106914,2.826225519180298,9.53798770904541,-2.7885425090789795,-1.646351933479309,-0.2591480016708374,0.6097599864006042,65.10000610351562,-177.3000030517578,-18.30000114440918
106936,2.769402027130127,9.96027660369873,-2.3919737339019775,-2.195136070251465,-1.3414719104766846,0.38109999895095825,79.5,-177.3000030517578,-17.700000762939453
106956,2.22090482711792,8.530714988708496,-1.812373161315918,-3.048799991607666,-1.295740008354187,-1.0061039924621582,96.30000305175781,-160.5,-20.100000381469727
106980,1.4863852262496948,8.58095932006836,-1.8715893030166626,-1.92836594581604,-1.2881180047988892,-0.426831990480423,77.10000610351562,-167.70001220703125,-20.100000381469727
107000,1.232772707939148,10.462717056274414,-2.0007882118225098,-1.295740008354187,-2.6677000522613525,0.2439039945602417,84.30000305175781,-165.3000030517578,-14.700000762939453
107020,0.9366918802261353,11.317462921142578,-1.1364716291427612,-2.4085519313812256,-4.489357948303223,-0.7545779943466187,77.10000610351562,-174.90000915527344,-21.30000114440918
107041,0.9337011575698853,11.835454940795898,-0.6812848448753357,-2.240867853164673,-4.054903984069824,-1.6158639192581177,89.10000610351562,-162.90000915527344,-24.900001525878906
107103,-0.05682358145713806,10.109214782714844,0.8655129075050354,-2.7058098316192627,-1.1280559301376343,-1.4100699424743652,79.5,-170.10000610351562,-27.30000114440918
107149,-0.6430037021636963,9.130054473876953,0.2841179072856903,-1.3109840154647827,0.16768398880958557,-0.9832379817962646,93.9000015258789,-167.70001220703125,-26.700000762939453
107172,-0.12740445137023926,9.18448543548584,0.1926020383834839,0.09908600151538849,0.08384199440479279,0.4039659798145294,105.9000015258789,-162.90000915527344,-23.100000381469727
107212,0.406139075756073,8.54207992553711,-0.3517080545425415,0.8307979702949524,0.4878079891204834,0.9984819889068604,91.5,-182.10000610351562,-25.500001907348633
107234,0.5502915382385254,8.394338607788086,-0.727940022945404,1.5015339851379395,0.3277460038661957,1.6234859228134155,98.70000457763672,-165.3000030517578,-25.500001907348633
107254,0.8996070027351379,8.743654251098633,-0.7823709845542908,1.9131219387054443,-0.228659987449646,2.14178204536438,93.9000015258789,-170.10000610351562,-36.30000305175781
107274,1.5402181148529053,10.004539489746094,-1.003085732460022,2.0045859813690186,-0.33536797761917114,2.225623846054077,91.5,-167.70001220703125,-24.900001525878906
107294,1.8111768960952759,9.89567756652832,-0.8978126049041748,1.0975680351257324,-0.5640279650688171,0.9298839569091797,86.70000457763672,-170.10000610351562,-33.30000305175781
107314,1.9320018291473389,9.206018447875977,-0.7363139986991882,0.8155539631843567,-0.6478700041770935,0.3201240003108978,79.5,-167.70001220703125,-29.100000381469727
107338,2.20595121383667,9.036744117736816,-0.6830793023109436,0.800309956073761,-0.5411620140075684,0.2743920087814331,79.5,-170.10000610351562,-19.5
107359,2.2615785598754883,8.944629669189453,-0.6573591232299805,0.6936019659042358,-0.19054999947547913,0.4192099869251251,86.70000457763672,-184.5,-27.900001525878906
107379,2.2424380779266357,8.950611114501953,-0.6537702679634094,0.853663980960846,0.10670799762010574,0.35061198472976685,89.10000610351562,-165.3000030517578,-20.700000762939453
107399,2.4033384323120117,9.26104736328125,-0.6166853904724121,1.021347999572754,0.46494197845458984,0.18292799592018127,89.10000610351562,-160.5,-24.30000114440918
107419,2.7257375717163086,10.16962718963623,-0.7548564076423645,1.1128119230270386,0.9375059604644775,-0.007621999830007553,72.30000305175781,-182.10000610351562,-20.700000762939453
107439,2.640801191329956,9.195850372314453,-0.6196761131286621,0,1.7454379796981812,-1.1051899194717407,84.30000305175781,-167.70001220703125,-19.5
107459,2.554668664932251,9.101343154907227,-1.0706759691238403,0.6402480006217957,2.278977870941162,-0.6783579587936401,81.9000015258789,-158.10000610351562,-20.100000381469727
107479,2.360870361328125,8.90156364440918,-1.0742647647857666,0.6326259970664978,2.339953899383545,-0.7774440050125122,81.9000015258789,-172.5,-25.500001907348633
107500,2.2017643451690674,8.814234733581543,-1.4738242626190186,0.9527499675750732,2.2484898567199707,-0.6326259970664978,84.30000305175781,-177.3000030517578,-22.5
107520,2.107855796813965,8.647353172302246,-1.7029130458831787,1.1128119230270386,2.3170878887176514,-1.0747020244598389,77.10000610351562,-160.5,-14.700000762939453
107540,1.936188817024231,8.956592559814453,-2.417693853378296,1.6844619512557983,2.888737916946411,-1.2652519941329956,72.30000305175781,-167.70001220703125,-23.700000762939453
107560,1.8057936429977417,8.86268424987793,-3.228177547454834,1.8521459102630615,2.4161739349365234,-1.577754020690918,77.10000610351562,-167.70001220703125,-25.500001907348633
107580,2.023517608642578,8.563612937927246,-2.8962082862854004,1.1737879514694214,1.0518360137939453,-1.0442140102386475,77.10000610351562,-182.10000610351562,-22.5
107600,2.2753357887268066,9.420153617858887,-3.1199138164520264,0.3582339882850647,1.8445239067077637,-0.15243999660015106,81.9000015258789,-165.3000030517578,-21.900001525878906
107620,1.7992140054702759,9.698887825012207,-4.018324375152588,-0.4420759975910187,3.6433160305023193,-0.5030519962310791,86.70000457763672,-167.70001220703125,-26.700000762939453
107640,1.1544159650802612,8.799281120300293,-4.801891803741455,0,3.6814258098602295,-1.5625100135803223,79.5,-167.70001220703125,-21.900001525878906
107661,1.1023775339126587,9.341198921203613,-5.146421909332275,0.685979962348938,1.4558019638061523,-0.7164679765701294,77.10000610351562,-155.70001220703125,-14.700000762939453
107681,1.2321745157241821,9.93336009979248,-4.841967582702637,0.6097599864006042,0.4878079891204834,-1.0518360137939453,89.10000610351562,-160.5,-21.30000114440918
107701,0.9845433235168457,9.786815643310547,-4.91793155670166,0.7850660085678101,0.853663980960846,-1.8369019031524658,91.5,-174.90000915527344,-14.100000381469727
107724,0.7650248408317566,9.533203125,-5.11113166809082,0.967993974685669,0.7240899801254272,-2.5609920024871826,96.30000305175781,-160.5,-16.5
107744,0.5993392467498779,8.575575828552246,-4.807275295257568,0.9603719711303711,0.6402480006217957,-2.7058098316192627,81.9000015258789,-167.70001220703125,-20.700000762939453
107809,0.8972144722938538,7.962479114532471,-3.6887476444244385,-0.5792719721794128,0.9375059604644775,-1.0594580173492432,98.70000457763672,-167.70001220703125,-24.30000114440918
107829,1.0736666917800903,8.1006498336792,-3.573306083679199,-0.3201240003108978,0.9375059604644775,-0.4192099869251251,103.50000762939453,-160.5,-21.900001525878906
107849,1.3392421007156372,8.263943672180176,-3.3334507942199707,-0.4878079891204834,0.9451279640197754,-0.35061198472976685,93.9000015258789,-158.10000610351562,-17.100000381469727
107870,1.516890525817871,8.193960189819336,-3.177933692932129,-0.9603719711303711,1.0823240280151367,-0.38109999895095825,93.9000015258789,-146.10000610351562,-18.900001525878906
107933,1.5862751007080078,7.842252731323242,-3.1498208045959473,-0.9375059604644775,1.013725996017456,0.7621999979019165,93.9000015258789,-153.3000030517578,-15.300000190734863
107993,2.2376527786254883,9.484752655029297,-3.3131139278411865,-0.7850660085678101,-0.07621999830007553,1.5396440029144287,93.9000015258789,-158.10000610351562,-21.900001525878906
108015,2.4099180698394775,9.546361923217773,-3.045743942260742,-1.0365920066833496,-0.7469559907913208,1.0365920066833496,96.30000305175781,-167.70001220703125,-18.30000114440918
108035,2.5821831226348877,9.479968070983887,-2.9649946689605713,-1.2652519941329956,-0.9756159782409668,1.1509219408035278,86.70000457763672,-167.70001220703125,-18.900001525878906
108055,2.545098304748535,8.76997184753418,-2.6832692623138428,-1.7225719690322876,-1.3262280225753784,0.967993974685669,89.10000610351562,-167.70001220703125,-23.700000762939453
108075,2.557659387588501,8.56181812286377,-2.477508068084717,-1.6311079263687134,-1.5091559886932373,1.4634239673614502,77.10000610351562,-162.90000915527344,-16.5
108095,2.622856855392456,8.602492332458496,-2.3680479526519775,-1.646351933479309,-1.5548880100250244,1.6387299299240112,84.30000305175781,-167.70001220703125,-24.900001525878906
108115,2.8842453956604004,9.589427947998047,-2.5624444484710693,-1.4100699424743652,-1.2500079870224,2.134160041809082,81.9000015258789,-162.90000915527344,-25.500001907348633
108135,3.1988685131073,10.744441986083984,-2.673699140548706,-1.646351933479309,-1.8521459102630615,2.0198299884796143,89.10000610351562,-162.90000915527344,-19.5
108195,2.381805419921875,9.089380264282227,-1.2393522262573242,-1.5853760242462158,-1.5320219993591309,1.0975680351257324,81.9000015258789,-160.5,-24.900001525878906
108234,1.1065645217895508,8.886012077331543,-0.9749730229377747,-1.524399995803833,-1.7606819868087769,0.2896359860897064,81.9000015258789,-174.90000915527344,-24.30000114440918
108254,0.7967264652252197,9.141419410705566,-0.7135845422744751,-1.3414719104766846,-1.9893419742584229,0.6250039935112,77.10000610351562,-165.3000030517578,-25.500001907348633
108294,0.18422803282737732,10.20431900024414,-0.5078234076499939,-1.0594580173492432,-1.1128119230270386,1.371959924697876,62.70000076293945,-174.90000915527344,-17.700000762939453
108316,-0.052636582404375076,10.335312843322754,-0.811680018901825,-0.4420759975910187,-0.39634400606155396,0.20579399168491364,81.9000015258789,-184.5,-23.100000381469727
108336,-0.11424531042575836,10.242002487182617,-0.9283179044723511,-0.02286599949002266,-0.41158798336982727,-0.510673999786377,91.5,-177.3000030517578,-21.900001525878906
108356,-0.0143554313108325,10.064353942871094,-1.0832369327545166,0.5182960033416748,-0.3887220025062561,-0.9984819889068604,72.30000305175781,-165.3000030517578,-22.5
108376,0.30624920129776,9.643260955810547,-0.8009134531021118,0.739333987236023,-0.26677000522613525,-1.1509219408035278,72.30000305175781,-170.10000610351562,-20.700000762939453
108398,0.7351177334785461,9.405797958374023,-0.824241042137146,0.5945159792900085,0.6173819899559021,-0.7164679765701294,77.10000610351562,-172.5,-21.900001525878906
108418,0.9432714581489563,9.189868927001953,-0.8314187526702881,0.6631140112876892,1.6692179441452026,-0.20579399168491364,62.70000076293945,-170.10000610351562,-21.900001525878906
108439,1.1376678943634033,8.902759552001953,-0.8840553164482117,0.4420759975910187,2.75154185295105,-0.02286599949002266,69.9000015258789,-167.70001220703125,-18.30000114440918
108459,1.4744224548339844,9.359143257141113,-0.9582250118255615,0.5945159792900085,3.5747179985046387,0.22103799879550934,77.10000610351562,-165.3000030517578,-24.900001525878906
108482,1.7501662969589233,9.791600227355957,-1.1376678943634033,0.4192099869251251,3.9939279556274414,-0.44969800114631653,74.70000457763672,-174.90000915527344,-19.5
108524,1.5091147422790527,7.883524417877197,-1.3482142686843872,0.9451279640197754,3.4680099487304688,-1.653973937034607,74.70000457763672,-160.5,-19.5
108544,2.000190019607544,9.087586402893066,-1.3583827018737793,1.6692179441452026,2.195136070251465,-0.6326259970664978,72.30000305175781,-174.90000915527344,-20.700000762939453
108568,2.2340641021728516,9.2939453125,-1.2925869226455688,1.0594580173492432,1.806414008140564,-1.021347999572754,81.9000015258789,-160.5,-21.900001525878906
108589,2.6246514320373535,9.734776496887207,-1.3781213760375977,0.8079319596290588,1.4481799602508545,-1.0061039924621582,89.10000610351562,-174.90000915527344,-18.900001525878906
108609,2.7909350395202637,9.92737865447998,-1.7047075033187866,0.6021379828453064,1.5320219993591309,-1.1356779336929321,79.5,-174.90000915527344,-18.900001525878906
108629,2.9021897315979004,9.721617698669434,-2.256195306777954,0.8079319596290588,1.14329993724823,-1.2728739976882935,77.10000610351562,-165.3000030517578,-19.5
108651,3.0092573165893555,9.48116397857666,-1.9559274911880493,1.2576299905776978,-0.04573199898004532,-0.36585599184036255,91.5,-162.90000915527344,-18.30000114440918
108671,2.608501434326172,8.886012077331543,-1.9188426733016968,0.7698220014572144,0.2439039945602417,0.19817200303077698,74.70000457763672,-158.10000610351562,-25.500001907348633
108691,2.2849061489105225,8.951807975769043,-2.3351502418518066,0.8993960022926331,0.28201398253440857,0.9908599853515625,84.30000305175781,-167.70001220703125,-20.100000381469727
108734,2.1975772380828857,8.96137809753418,-2.9697799682617188,0.8993960022926331,-0.26677000522613525,1.0899460315704346,86.70000457763672,-170.10000610351562,-27.30000114440918
108795,2.161090612411499,9.025379180908203,-2.9195358753204346,0.2591480016708374,-1.1204339265823364,0.20579399168491364,67.5,-162.90000915527344,-18.30000114440918
108953,-0.22011661529541016,6.229659080505371,-2.107257604598999,-4.062525749206543,3.567095994949341,2.294221878051758,79.5,-167.70001220703125,-11.100000381469727
108974,-0.02811271883547306,6.949823379516602,-3.547585964202881,-1.5167779922485352,4.771371841430664,5.045763969421387,74.70000457763672,-158.10000610351562,-18.900001525878906
109014,3.0026776790618896,18.75537109375,-5.647068023681641,-3.4375219345092773,5.823207855224609,14.893387794494629,50.70000076293945,-174.90000915527344,-20.700000762939453
109034,5.05430793762207,19.599349975585938,-6.43661642074585,-2.8582499027252197,2.782029867172241,7.873525619506836,38.70000076293945,-170.10000610351562,-21.900001525878906
109058,7.518058776855469,19.599349975585938,-6.694416046142578,0.9222619533538818,-0.8079319596290588,3.3308138847351074,29.100000381469727,-165.3000030517578,-21.900001525878906
109078,8.271718978881836,19.598752975463867,-6.205733299255371,-1.577754020690918,0.007621999830007553,-0.038109999150037766,41.10000228881836,-174.90000915527344,-20.100000381469727
109138,3.025407075881958,12.115386009216309,-2.4876766204833984,-1.9893419742584229,-4.5503339767456055,-12.461969375610352,57.900001525878906,-160.5,-18.30000114440918
109193,-2.1299872398376465,-2.549285411834717,1.1795378923416138,-2.6143460273742676,0.7926880121231079,-4.756127834320068,84.30000305175781,-170.10000610351562,-18.30000114440918
109213,-0.9546361565589905,-0.92472904920578,0.5431138277053833,-1.013725996017456,2.789651870727539,2.5762360095977783,86.70000457763672,-165.3000030517578,-18.900001525878906
109253,0.8637184500694275,2.46793794631958,0.1985834687948227,-0.8231759667396545,2.278977870941162,2.439039945602417,77.10000610351562,-167.70001220703125,-22.5
109275,-0.42767223715782166,-0.42288708686828613,0.3086417615413666,-1.7378159761428833,2.583858013153076,-0.1448179930448532,77.10000610351562,-167.70001220703125,-20.700000762939453
109316,-0.6388167142868042,-0.38041892647743225,0.2763420641422272,0.5945159792900085,0.3277460038661957,2.339953899383545,77.10000610351562,-160.5,-23.700000762939453
109336,-0.5299546718597412,-0.20516303181648254,0.27753832936286926,0.5564059615135193,-0.2439039945602417,2.0122079849243164,77.10000610351562,-165.3000030517578,-20.700000762939453
109356,-0.3989613652229309,-0.515001118183136,0.406139075756073,0.26677000522613525,-0.9603719711303711,1.5625100135803223,69.9000015258789,-184.5,-14.100000381469727
109376,-0.2165277600288391,-0.6561628580093384,0.44382208585739136,0.426831990480423,-1.1585439443588257,1.7835479974746704,77.10000610351562,-170.10000610351562,-23.700000762939453
109399,0.6567609906196594,2.4242734909057617,-0.06280501186847687,1.5929979085922241,-0.853663980960846,5.304912090301514,65.10000610351562,-179.70001220703125,-17.700000762939453
109419,1.8925243616104126,6.3983354568481445,-0.814670741558075,1.7149499654769897,0.7850660085678101,8.208893775939941,67.5,-177.3000030517578,-20.700000762939453
109439,3.785646915435791,11.308490753173828,-2.244232416152954,1.1737879514694214,4.878079891204834,11.486353874206543,50.70000076293945,-177.3000030517578,-22.5
109459,5.3282575607299805,17.33298683166504,-5.538804054260254,0.7698220014572144,9.870490074157715,14.367469787597656,24.30000114440918,-172.5,-23.100000381469727
109479,8.21728801727295,19.599349975585938,-8.198745727539062,-0.030487999320030212,5.388753890991211,11.547329902648926,21.900001525878906,-172.5,-15.90000057220459
109564,9.63847541809082,19.599349975585938,-8.125174522399902,2.8658719062805176,-8.727190017700195,-9.306461334228516,12.300000190734863,-160.5,-15.90000057220459
109673,1.3882898092269897,0.6298445463180542,1.22798752784729,-6.631139755249023,-2.698187828063965,4.8018598556518555,86.70000457763672,-165.3000030517578,-17.700000762939453
109694,1.8386914730072021,1.9469553232192993,2.149725914001465,-5.388753890991211,-1.1356779336929321,3.346057891845703,65.10000610351562,-167.70001220703125,-20.100000381469727
109734,1.122116208076477,0.41750380396842957,1.5958454608917236,-3.292703866958618,1.6692179441452026,-0.8689079880714417,74.70000457763672,-170.10000610351562,-30.30000114440918
109756,0.17106889188289642,-1.0951998233795166,1.4570763111114502,-1.5320219993591309,1.5853760242462158,-2.4237959384918213,77.10000610351562,-177.3000030517578,-27.900001525878906
109776,-0.1058713048696518,-1.0473483800888062,1.3595789670944214,-0.17530599236488342,1.3490939140319824,-1.4939119815826416,74.70000457763672,-179.70001220703125,-23.700000762939453
109796,0.11364716291427612,-0.22968690097332,1.229781985282898,0.2134159952402115,1.4100699424743652,-1.1661659479141235,77.10000610351562,-167.70001220703125,-23.700000762939453
109816,-0.042468149214982986,-0.32000648975372314,1.0718722343444824,0.13719600439071655,1.3490939140319824,-1.3033620119094849,79.5,-170.10000610351562,-22.5
109836,-0.2763420641422272,-0.8320168852806091,1.0682833194732666,0.060975998640060425,1.1585439443588257,-0.8917739987373352,72.30000305175781,-167.70001220703125,-26.700000762939453
109859,-0.4103260636329651,-0.7488750219345093,1.1837249994277954,0.13719600439071655,0.8460419774055481,1.829279899597168,74.70000457763672,-172.5,-17.100000381469727
109879,0.12860073149204254,2.4757137298583984,0.1381710320711136,2.073184013366699,2.3704419136047363,6.753091812133789,74.70000457763672,-162.90000915527344,-24.30000114440918
109900,1.821345329284668,7.140630722045898,-1.0557223558425903,0.3125019967556,3.1707520484924316,9.352193832397461,62.70000076293945,-179.70001220703125,-24.30000114440918
109920,0.2984733283519745,11.636871337890625,-2.164081335067749,4.0396599769592285,7.934501647949219,12.545811653137207,57.900001525878906,-174.90000915527344,-29.700000762939453
109940,6.531123161315918,19.599349975585938,-6.933074951171875,-1.242385983467102,13.7119779586792,22.583986282348633,29.100000381469727,-172.5,-19.5
110002,14.766355514526367,19.599349975585938,-11.101533889770508,2.492393970489502,5.8689398765563965,5.632658004760742,19.5,-162.90000915527344,-21.30000114440918
110031,9.209009170532227,19.599349975585938,-8.2980375289917,0.9070180058479309,-12.088491439819336,-9.832379341125488,19.5,-162.90000915527344,-21.900001525878906
110052,5.838473320007324,18.457496643066406,-4.795910358428955,-1.1356779336929321,-10.122015953063965,-9.657073974609375,41.10000228881836,-165.3000030517578,-14.700000762939453
110094,-0.9055884480476379,3.0098555088043213,-1.3685511350631714,-1.3186060190200806,-7.682975769042969,-21.890382766723633,60.30000305175781,-170.10000610351562,-18.900001525878906
110114,-2.497844934463501,-2.7699999809265137,0.2105463296175003,-1.6387299299240112,-4.900945663452148,-13.269901275634766,74.70000457763672,-172.5,-16.5
110154,1.1765471696853638,0.9893285036087036,1.1472382545471191,-2.0579400062561035,-1.7301939725875854,2.9344699382781982,81.9000015258789,-158.10000610351562,-15.300000190734863
110177,1.7220536470413208,1.7519607543945312,0.7704081535339355,-1.6844619512557983,1.0594580173492432,1.92836594581604,86.70000457763672,-153.3000030517578,-18.30000114440918
110198,1.094003438949585,0.5879745483398438,0.7865580320358276,-2.1722700595855713,1.5929979085922241,0.7088459730148315,79.5,-170.10000610351562,-24.900001525878906
110238,0.2649773359298706,-0.8613258600234985,1.0850313901901245,-1.067080020904541,0.9603719711303711,-0.15243999660015106,81.9000015258789,-170.10000610351562,-23.100000381469727
110335,-0.596946656703949,-0.7991189956665039,0.5425156950950623,0.5182960033416748,1.0289700031280518,2.0579400062561035,69.9000015258789,-165.3000030517578,-19.5
110356,1.000095009803772,4.995689868927002,-1.102975606918335,4.2149658203125,2.446661949157715,10.160125732421875,62.70000076293945,-165.3000030517578,-18.900001525878906
110376,1.435543179512024,9.953697204589844,-1.5808918476104736,0.4344539940357208,4.413137912750244,10.487872123718262,60.30000305175781,-177.3000030517578,-20.100000381469727
110439,9.764683723449707,19.599349975585938,-8.442190170288086,2.9268479347229004,-0.8079319596290588,-1.8445239067077637,0.30000001192092896,-165.3000030517578,-18.900001525878906
110535,2.867497444152832,11.670965194702148,-3.8041892051696777,-1.2500079870224,-9.931466102600098,-16.61595916748047,45.900001525878906,-167.70001220703125,-11.700000762939453
110572,-1.4774131774902344,-2.614482879638672,2.092304229736328,-1.7378159761428833,-5.983269691467285,-15.274487495422363,84.30000305175781,-162.90000915527344,-12.90000057220459
110592,-1.8805614709854126,-3.46982741355896,1.8039991855621338,-2.4695279598236084,-1.7606819868087769,-9.009203910827637,81.9000015258789,-165.3000030517578,-11.100000381469727
110632,0.812876284122467,1.9696848392486572,1.5695271492004395,-1.0823240280151367,1.0975680351257324,0.967993974685669,81.9000015258789,-155.70001220703125,-18.30000114440918
110652,0.903195858001709,1.5868732929229736,0.6304426789283752,-0.36585599184036255,3.147886037826538,-0.9222619533538818,84.30000305175781,-162.90000915527344,-20.100000381469727
110672,0.3810170590877533,-0.2763420641422272,0.7524638772010803,0.3201240003108978,2.088428020477295,-1.3338500261306763,84.30000305175781,-167.70001220703125,-21.900001525878906
110693,0.13577845692634583,-0.8882423043251038,0.6196761131286621,1.0365920066833496,1.6844619512557983,-0.6707359552383423,89.10000610351562,-162.90000915527344,-18.30000114440918
110714,-0.0029907147400081158,-0.6346296668052673,0.5197862386703491,1.1661659479141235,1.2728739976882935,0.09908600151538849,74.70000457763672,-170.10000610351562,-16.5
110734,0.050842151045799255,-0.4988512396812439,0.43903693556785583,0.5411620140075684,0.9070180058479309,0.4344539940357208,89.10000610351562,-172.5,-13.500000953674316
110754,0.37025049328804016,-0.46415895223617554,0.5227769613265991,-0.2439039945602417,0.6631140112876892,1.2271419763565063,91.5,-162.90000915527344,-18.30000114440918
110774,0.3768300712108612,-0.6202742457389832,0.6071150898933411,-0.9756159782409668,0.9908599853515625,2.1722700595855713,96.30000305175781,-158.10000610351562,-21.900001525878906
110794,0.37443751096725464,0.714780867099762,0.41750380396842957,-0.5792719721794128,1.9664759635925293,4.28356409072876,84.30000305175781,-153.3000030517578,-21.900001525878906
110814,1.8596265316009521,4.672692775726318,-1.0557223558425903,0.33536797761917114,3.7347798347473145,8.68145751953125,84.30000305175781,-162.90000915527344,-14.100000381469727
110834,1.5886677503585815,7.242315292358398,-1.2261930704116821,-0.853663980960846,5.221069812774658,8.094563484191895,62.70000076293945,-184.5,-15.300000190734863
110857,2.2520081996917725,13.27458667755127,-4.644580364227295,2.797273874282837,13.193681716918945,16.082420349121094,50.70000076293945,-174.90000915527344,-15.90000057220459
110877,8.481667518615723,19.599349975585938,-10.507577896118164,-1.1204339265823364,8.048831939697266,13.78819751739502,31.500001907348633,-170.10000610351562,-14.100000381469727
110938,15.389620780944824,19.599349975585938,-8.275906562805176,-2.088428020477295,-0.426831990480423,0.1295740008354187,9.90000057220459,-160.5,-20.700000762939453
110960,10.757002830505371,19.599349975585938,-8.0886869430542,2.080806016921997,-2.7667858600616455,-9.268351554870605,14.700000762939453,-172.5,-12.90000057220459
110980,6.4312334060668945,19.55807876586914,-6.815240859985352,1.653973937034607,-3.7347798347473145,-7.545779705047607,26.700000762939453,-184.5,-14.700000762939453
111001,2.169464588165283,10.804854393005371,-3.5816800594329834,-0.038109999150037766,-7.60675573348999,-14.588507652282715,43.5,-162.90000915527344,-18.900001525878906
111021,-0.4133167862892151,2.747868776321411,-0.909177303314209,-1.6920839548110962,-7.667731761932373,-19.359880447387695,50.70000076293945,-167.70001220703125,-21.900001525878906
111041,-1.3990564346313477,-3.037968158721924,0.30086591839790344,-1.829279899597168,-3.9253299236297607,-12.484835624694824,72.30000305175781,-155.70001220703125,-16.5
111062,-0.34512850642204285,-2.7586352825164795,0.4838976562023163,-4.10825777053833,-1.829279899597168,0.16768398880958557,69.9000015258789,-165.3000030517578,-20.100000381469727
111082,1.4756187200546265,0.7710062861442566,0.6741071343421936,-2.6295900344848633,-1.7454379796981812,4.352161884307861,72.30000305175781,-162.90000915527344,-20.700000762939453
111104,1.8291212320327759,2.20296049118042,0.4073353707790375,-1.4100699424743652,-0.36585599184036255,2.6600780487060547,67.5,-167.70001220703125,-19.5
111126,1.4827964305877686,1.440926432609558,0.1441524624824524,-2.187514066696167,-0.038109999150037766,0.342989981174469,65.10000610351562,-174.90000915527344,-18.900001525878906
111146,0.9295141696929932,-0.2984733283519745,0.5550766587257385,-2.0579400062561035,-0.7317119836807251,-1.3262280225753784,69.9000015258789,-172.5,-18.900001525878906
111166,0.46595337986946106,-0.8475685715675354,0.5670395493507385,-0.6021379828453064,-0.8993960022926331,-0.7012239694595337,69.9000015258789,-170.10000610351562,-18.30000114440918
111186,0.4264759421348572,-0.7076031565666199,0.6077132821083069,-0.6021379828453064,-0.8689079880714417,-0.5411620140075684,69.9000015258789,-167.70001220703125,-17.100000381469727
111207,0.5365342497825623,-0.4474109411239624,0.6896588206291199,-0.8765299916267395,-0.8917739987373352,-0.2134159952402115,81.9000015258789,-179.70001220703125,-19.5
111227,0.4827013909816742,-0.44980350136756897,0.8762794733047485,-1.5701320171356201,-0.5182960033416748,0.038109999150037766,77.10000610351562,-165.3000030517578,-21.30000114440918
111249,-0.01854243129491806,-1.235763430595398,0.7530620098114014,-1.875011920928955,0.7621999979019165,0.5945159792900085,74.70000457763672,-162.90000915527344,-11.100000381469727
111270,-0.01973871886730194,1.514497995376587,0.1591060310602188,0.7621999979019165,2.3170878887176514,5.403997898101807,69.9000015258789,-172.5,-20.100000381469727
111290,1.511507272720337,6.494636535644531,-1.6562578678131104,-0.007621999830007553,3.201239824295044,9.131155967712402,53.10000228881836,-162.90000915527344,-25.500001907348633
111310,-0.2924919128417969,9.15457820892334,-1.0892183780670166,1.8216580152511597,5.190581798553467,9.603719711303711,50.70000076293945,-172.5,-23.100000381469727
111330,5.016624927520752,19.214147567749023,-6.406111240386963,-0.967993974685669,13.582404136657715,23.117525100708008,29.100000381469727,-174.90000915527344,-19.5
111350,6.474897861480713,19.54013442993164,-7.7190351486206055,-0.8079319596290588,7.134191989898682,9.847623825073242,31.500001907348633,-162.90000915527344,-20.100000381469727
111370,10.16843032836914,19.599349975585938,-8.894984245300293,4.169233798980713,2.0503180027008057,3.8491098880767822,17.100000381469727,-160.5,-26.100000381469727
111390,15.534969329833984,19.598752975463867,-8.005545616149902,-2.3170878887176514,1.6082419157028198,6.905531883239746,12.300000190734863,-155.70001220703125,-25.500001907348633
111410,12.79248332977295,19.599349975585938,-7.09098482131958,-0.15243999660015106,-0.36585599184036255,-3.8262438774108887,14.700000762939453,-182.10000610351562,-15.90000057220459
111430,9.153382301330566,19.599349975585938,-6.553852558135986,-0.26677000522613525,-1.0442140102386475,-4.5503339767456055,17.100000381469727,-165.3000030517578,-21.900001525878906
111450,4.84017276763916,18.05135726928711,-4.629626750946045,-0.4725639820098877,-2.8582499027252197,-7.522913932800293,29.100000381469727,-179.70001220703125,-20.100000381469727
111470,2.041461944580078,11.131441116333008,-3.5338287353515625,1.5701320171356201,-4.733262062072754,-14.931497573852539,7.500000476837158,-182.10000610351562,-18.30000114440918
111490,0.0544310100376606,4.070960998535156,-0.809885561466217,0.030487999320030212,-8.300357818603516,-18.780607223510742,38.70000076293945,-179.70001220703125,-20.700000762939453
111553,0.806296706199646,0.3373526334762573,1.0246188640594482,-1.5929979085922241,-1.2500079870224,-0.8993960022926331,67.5,-155.70001220703125,-15.300000190734863
111613,0.8810645937919617,-0.06519758701324463,0.6483869552612305,-0.3048799932003021,0.9375059604644775,-1.196653962135315,72.30000305175781,-174.90000915527344,-9.90000057220459
111651,0.5706284046173096,-0.7195659875869751,0.7357158660888672,0,0.13719600439071655,-0.3582339882850647,77.10000610351562,-170.10000610351562,-20.100000381469727
111671,0.6232649683952332,-0.5963485240936279,0.6627424359321594,-0.26677000522613525,-0.05335399881005287,-0.16768398880958557,72.30000305175781,-162.90000915527344,-16.5
111713,0.43784064054489136,-1.5282553434371948,0.6932476758956909,-0.5259180068969727,0.16768398880958557,1.2500079870224,67.5,-162.90000915527344,-20.100000381469727
111733,0.4737292230129242,-0.28292161226272583,0.4928697943687439,0.06859800219535828,1.189031958580017,3.818621873855591,57.900001525878906,-160.5,-16.5
111753,1.3033535480499268,4.514184951782227,-0.8200539946556091,1.7606819868087769,3.5213639736175537,10.083906173706055,62.70000076293945,-174.90000915527344,-18.900001525878906
111773,1.8620190620422363,11.779828071594238,-2.387188673019409,1.7987920045852661,8.704323768615723,15.998578071594238,57.900001525878906,-165.3000030517578,-21.30000114440918
111836,12.811624526977539,19.598154067993164,-10.07392406463623,4.230209827423096,-0.2591480016708374,1.9664759635925293,9.90000057220459,-165.3000030517578,-24.900001525878906
111857,19.33676528930664,19.599349975585938,-11.614740371704102,-1.4558019638061523,3.8414878845214844,1.3186060190200806,-16.5,-172.5,-14.700000762939453
111877,11.368305206298828,19.599349975585938,-9.441686630249023,1.021347999572754,-10.07628345489502,-11.897941589355469,14.700000762939453,-174.90000915527344,-19.5
111900,7.287774085998535,19.412729263305664,-6.004158973693848,-0.7621999979019165,-11.120497703552246,-10.49549388885498,26.700000762939453,-174.90000915527344,-16.5
111920,3.588259696960449,11.704462051391602,-2.47691011428833,-2.0122079849243164,-11.829343795776367,-19.05500030517578,41.10000228881836,-165.3000030517578,-18.30000114440918
111940,-0.0897214487195015,1.3805140256881714,1.0700777769088745,-1.417691946029663,-11.440621376037598,-25.55656623840332,55.500003814697266,-170.10000610351562,-15.300000190734863
111960,-3.7300195693969727,-5.947335720062256,2.8477587699890137,-2.5762360095977783,-3.551851987838745,-16.18912696838379,84.30000305175781,-174.90000915527344,-8.100000381469727
111981,-2.917741298675537,-4.957408905029297,0.8577370047569275,-4.359784126281738,4.649419784545898,0.7012239694595337,89.10000610351562,-170.10000610351562,-17.100000381469727
112001,0.4695422351360321,1.8847484588623047,-0.24763119220733643,0.2591480016708374,2.6143460273742676,9.428413391113281,79.5,-167.70001220703125,-14.700000762939453
112024,2.2633728981018066,5.964681625366211,-0.4737292230129242,1.2347639799118042,1.8369019031524658,6.669250011444092,77.10000610351562,-174.90000915527344,-15.300000190734863
112044,0.39238178730010986,1.5856770277023315,0.1662837415933609,-1.981719970703125,1.2042759656906128,-4.199721813201904,77.10000610351562,-162.90000915527344,-17.700000762939453
112066,-0.28591233491897583,-2.083332061767578,0.08015115559101105,0.015243999660015106,-0.22103799879550934,-0.5487840175628662,79.5,-170.10000610351562,-18.900001525878906
112149,0.37623193860054016,-0.14833945035934448,0.44501838088035583,-0.8689079880714417,-0.19054999947547913,0.16768398880958557,60.30000305175781,-172.5,-19.5
112255,1.1699676513671875,2.5971367359161377,-0.16209673881530762,1.2195199728012085,2.8201398849487305,7.9497456550598145,57.900001525878906,-170.10000610351562,-20.100000381469727
112276,3.499136447906494,7.366728782653809,-1.2979702949523926,-0.2972579896450043,3.864353895187378,10.724153518676758,55.500003814697266,-172.5,-21.30000114440918
112320,7.071246147155762,16.335285186767578,-4.397547245025635,-1.2881180047988892,10.221101760864258,18.437618255615234,26.700000762939453,-177.3000030517578,-20.100000381469727
112340,9.459630966186523,19.599349975585938,-6.458747863769531,-1.806414008140564,8.963471412658691,17.469623565673828,-6.900000095367432,-177.3000030517578,-22.5
112360,13.038320541381836,19.58499526977539,-8.350075721740723,2.0579400062561035,7.82017183303833,9.977197647094727,-11.700000762939453,-172.5,-20.100000381469727
112380,15.462594032287598,19.599349975585938,-11.142207145690918,3.8414878845214844,5.602169990539551,6.74547004699707,-18.900001525878906,-170.10000610351562,-24.900001525878906
112464,7.387663841247559,19.073583602905273,-5.261265754699707,-2.5228819847106934,-9.969575881958008,-14.359848022460938,-6.900000095367432,-177.3000030517578,-21.30000114440918
112514,-0.9540380239486694,-2.6731009483337402,2.4284603595733643,-2.225623846054077,-3.7881338596343994,-25.38888168334961,53.10000228881836,-174.90000915527344,-18.900001525878906
112613,0.2458367645740509,-0.5251695513725281,0.2871086299419403,0.5335400104522705,-0.8841519951820374,-10.0686616897583,65.10000610351562,-172.5,-20.700000762939453
112633,0.07177715748548508,-4.014735698699951,1.0593111515045166,2.2484898567199707,-3.4908759593963623,-4.916189670562744,62.70000076293945,-174.90000915527344,-20.700000762939453
112673,0.18063917756080627,0.26437920331954956,0.43963509798049927,0.9527499675750732,-0.4725639820098877,0.15243999660015106,74.70000457763672,-174.90000915527344,-15.300000190734863
112717,-0.3164176344871521,-0.6657330989837646,0.41570937633514404,0.6326259970664978,-0.38109999895095825,-0.8765299916267395,60.30000305175781,-174.90000915527344,-16.5
112850,0.28651049733161926,-0.724949300289154,0.500645637512207,-0.17530599236488342,0.7088459730148315,-0.33536797761917114,74.70000457763672,-167.70001220703125,-14.100000381469727
112913,6.169246673583984,15.592391014099121,-3.2718420028686523,-6.509187698364258,7.629621982574463,11.829343795776367,38.70000076293945,-179.70001220703125,-23.100000381469727
113092,0.7339214086532593,9.421948432922363,-3.835890769958496,-2.736297845840454,-1.9512319564819336,-12.012271881103516,50.70000076293945,-182.10000610351562,-16.5
113112,-0.4264759421348572,5.069859981536865,-1.9870309829711914,-2.0960500240325928,-3.7271578311920166,-11.097631454467773,55.500003814697266,-177.3000030517578,-21.900001525878906
113153,0.49825310707092285,3.850844383239746,-0.6160872578620911,-2.743919849395752,-0.6554920077323914,-1.6615959405899048,50.70000076293945,-172.5,-12.90000057220459
113173,1.1819305419921875,3.71386981010437,-0.49526238441467285,-2.431417942047119,-1.3414719104766846,-1.8140360116958618,65.10000610351562,-158.10000610351562,-12.90000057220459
113193,1.5420125722885132,3.0541179180145264,0.2679680585861206,-2.4542839527130127,-2.2713558673858643,-1.8902559280395508,62.70000076293945,-170.10000610351562,-19.5
113213,1.4618613719940186,2.6330254077911377,0.2739494740962982,-1.829279899597168,-0.6783579587936401,-1.8140360116958618,72.30000305175781,-160.5,-17.700000762939453
113233,1.1047700643539429,2.855534553527832,-0.20935003459453583,-0.6478700041770935,-0.3887220025062561,-1.8140360116958618,86.70000457763672,-179.70001220703125,-17.100000381469727
113257,1.0634982585906982,3.103165626525879,-0.2942863404750824,-0.44969800114631653,-0.510673999786377,-1.9207439422607422,84.30000305175781,-162.90000915527344,-14.700000762939453
113277,1.1544159650802612,3.8017966747283936,-0.2781364917755127,0.12195199728012085,-0.39634400606155396,-1.524399995803833,65.10000610351562,-179.70001220703125,-18.900001525878906
113297,1.1263031959533691,5.704489707946777,-0.9229345917701721,0.12195199728012085,0.853663980960846,-0.39634400606155396,65.10000610351562,-162.90000915527344,-16.5
113318,1.1615936756134033,7.191473007202148,-1.4008508920669556,0.28201398253440857,1.471045970916748,0.16768398880958557,81.9000015258789,-165.3000030517578,-15.90000057220459
113360,1.8034011125564575,11.488532066345215,-2.8304126262664795,0.26677000522613525,2.690565824508667,2.843005895614624,69.9000015258789,-155.70001220703125,-21.900001525878906
113415,1.7716994285583496,11.208600997924805,-2.5409114360809326,-0.09146399796009064,0.4192099869251251,-1.0289700031280518,77.10000610351562,-162.90000915527344,-20.100000381469727
113574,1.8943188190460205,8.09765911102295,-1.3033535480499268,-0.8841519951820374,-0.3201240003108978,-0.22103799879550934,79.5,-162.90000915527344,-17.100000381469727
113616,2.130585193634033,7.15378999710083,-0.7925394177436829,-0.6173819899559021,1.295740008354187,-0.426831990480423,84.30000305175781,-172.5,-19.5
113636,2.480498790740967,8.11560344696045,-1.1454437971115112,0.5259180068969727,2.073184013366699,0.4420759975910187,77.10000610351562,-172.5,-14.100000381469727
113677,2.828618049621582,10.178000450134277,-3.4506866931915283,0.9603719711303711,2.9192259311676025,-0.7240899801254272,57.900001525878906,-160.5,-18.900001525878906
113697,2.540313243865967,9.40938663482666,-3.404629707336426,1.2271419763565063,2.294221878051758,-1.0899460315704346,72.30000305175781,-174.90000915527344,-15.300000190734863
113717,2.289691209793091,10.133139610290527,-4.51059627532959,1.9740979671478271,4.53508996963501,-0.7164679765701294,65.10000610351562,-179.70001220703125,-21.900001525878906
113757,1.9732736349105835,9.783226013183594,-6.859503746032715,3.3384358882904053,1.9969639778137207,-2.0960500240325928,55.500003814697266,-160.5,-18.30000114440918
113812,1.7950270175933838,8.066555976867676,-4.438220977783203,-0.4192099869251251,-0.36585599184036255,-2.995445966720581,69.9000015258789,-170.10000610351562,-14.700000762939453
113832,1.4941611289978027,7.507890701293945,-4.057203769683838,-0.8841519951820374,-0.4344539940357208,-1.4024479389190674,79.5,-165.3000030517578,-12.90000057220459
113872,2.0827338695526123,7.759110450744629,-2.7831592559814453,-2.9725799560546875,-1.0975680351257324,-0.7850660085678101,84.30000305175781,-165.3000030517578,-11.100000381469727
113892,2.2645692825317383,7.752531051635742,-2.6802785396575928,-2.1112940311431885,-1.021347999572754,-0.5945159792900085,79.5,-170.10000610351562,-20.100000381469727
113916,2.6659231185913086,8.0946683883667,-2.49485445022583,-1.7378159761428833,-1.5320219993591309,-1.0518360137939453,74.70000457763672,-155.70001220703125,-14.700000762939453
113936,2.801701784133911,8.116800308227539,-2.4960505962371826,-1.4558019638061523,-1.2271419763565063,-0.9832379817962646,79.5,-155.70001220703125,-11.100000381469727
113956,2.7119803428649902,8.65273666381836,-2.9279098510742188,-1.2118979692459106,-1.021347999572754,-0.6097599864006042,72.30000305175781,-165.3000030517578,-9.300000190734863
114022,2.151520252227783,8.77894401550293,-3.117521047592163,-0.8460419774055481,-1.2042759656906128,-0.685979962348938,89.10000610351562,-160.5,-12.300000190734863
114051,2.083332061767578,9.444677352905273,-3.3184971809387207,-0.015243999660015106,-0.7469559907913208,-0.28201398253440857,86.70000457763672,-170.10000610351562,-17.100000381469727
114073,2.513396739959717,10.188169479370117,-3.272440195083618,-0.6021379828453064,-1.6158639192581177,-1.0823240280151367,91.5,-162.90000915527344,-17.100000381469727
114113,2.235260248184204,8.930872917175293,-2.453582525253296,-0.9451279640197754,-0.9756159782409668,-0.26677000522613525,91.5,-167.70001220703125,-17.700000762939453
114351,-1.6221637725830078,11.191853523254395,-2.9554243087768555,1.0518360137939453,-2.378063917160034,0.967993974685669,81.9000015258789,-172.5,-17.700000762939453
114371,-1.5210776329040527,11.334211349487305,-3.0158369541168213,0.6326259970664978,-2.7286758422851562,0.23628199100494385,79.5,-162.90000915527344,-17.100000381469727
114412,-1.2345670461654663,10.221067428588867,-2.5797905921936035,0.13719600439071655,-2.903981924057007,-1.7225719690322876,81.9000015258789,-160.5,-15.300000190734863
114432,-1.1592010259628296,9.540380477905273,-2.166473865509033,-0.33536797761917114,-2.332331895828247,-1.1737879514694214,98.70000457763672,-165.3000030517578,-19.5
114474,-0.500047504901886,9.384862899780273,-2.003180742263794,-0.914639949798584,-0.6631140112876892,0.44969800114631653,77.10000610351562,-165.3000030517578,-15.300000190734863
114494,-0.30505290627479553,9.092370986938477,-1.9995919466018677,-1.1280559301376343,-0.49542999267578125,0.5868939757347107,96.30000305175781,-167.70001220703125,-14.100000381469727
114514,-0.14654502272605896,8.54686450958252,-1.6652300357818604,-0.6783579587936401,-0.6097599864006042,0.6783579587936401,96.30000305175781,-162.90000915527344,-21.30000114440918
114535,0.3122306168079376,8.97932243347168,-1.5420125722885132,-0.3887220025062561,-0.3125019967556,1.1737879514694214,93.9000015258789,-170.10000610351562,-14.700000762939453
114555,0.5945541262626648,9.19644832611084,-1.4774131774902344,-0.5640279650688171,0.12195199728012085,0.6783579587936401,84.30000305175781,-167.70001220703125,-18.30000114440918
114575,0.6208723783493042,8.95838737487793,-1.3607752323150635,-0.7774440050125122,0.39634400606155396,0.19054999947547913,89.10000610351562,-162.90000915527344,-17.700000762939453
114595,0.7781839966773987,9.112110137939453,-1.3990564346313477,-0.5259180068969727,0.8689079880714417,0.20579399168491364,96.30000305175781,-182.10000610351562,-20.100000381469727
114617,0.7428935766220093,9.161157608032227,-1.502535104751587,-0.5487840175628662,1.0823240280151367,0.030487999320030212,69.9000015258789,-167.70001220703125,-15.300000190734863
114637,0.6657330989837646,9.07382869720459,-1.417598843574524,-0.38109999895095825,1.013725996017456,-0.19054999947547913,91.5,-167.70001220703125,-15.300000190734863
114660,0.9372900128364563,9.840049743652344,-1.748371958732605,-0.12195199728012085,1.2042759656906128,-0.5259180068969727,93.9000015258789,-162.90000915527344,-17.700000762939453
114702,0.9582250118255615,9.275403022766113,-1.933198094367981,0.15243999660015106,1.021347999572754,-1.196653962135315,86.70000457763672,-170.10000610351562,-20.100000381469727
114722,1.0216281414031982,8.786720275878906,-1.8877391815185547,0.114329993724823,0.9984819889068604,-1.242385983467102,89.10000610351562,-170.10000610351562,-23.100000381469727
114744,0.9259253144264221,8.699989318847656,-2.130585193634033,0.19817200303077698,1.3109840154647827,-0.7926880121231079,81.9000015258789,-172.5,-23.100000381469727
114764,0.9827489256858826,9.042725563049316,-2.43204927444458,0.2134159952402115,1.3262280225753784,-0.5335400104522705,86.70000457763672,-158.10000610351562,-18.900001525878906
114786,1.1926970481872559,9.30291748046875,-2.7353076934814453,0.41158798336982727,1.6082419157028198,-0.6783579587936401,93.9000015258789,-153.3000030517578,-22.5
114847,1.624556303024292,8.546266555786133,-3.3430211544036865,-0.015243999660015106,2.2180018424987793,-1.3338500261306763,101.10000610351562,-160.5,-12.300000190734863
115013,1.9074779748916626,8.984705924987793,-3.856825828552246,-0.10670799762010574,-3.041177988052368,-2.9802019596099854,98.70000457763672,-162.90000915527344,-17.700000762939453
115033,1.6598467826843262,8.266934394836426,-3.1928870677948,-0.7774440050125122,-3.2622158527374268,-2.789651870727539,110.70000457763672,-155.70001220703125,-11.700000762939453
115114,1.7728958129882812,8.989490509033203,-2.9039840698242188,-0.4039659798145294,-0.5259180068969727,-1.2804960012435913,105.9000015258789,-155.70001220703125,-22.5
115134,1.740596055984497,9.109119415283203,-2.868095636367798,-0.46494197845458984,-0.6707359552383423,-1.707327961921692,115.50000762939453,-162.90000915527344,-20.100000381469727
115198,1.7268387079238892,8.65871810913086,-2.6330254077911377,-0.10670799762010574,0.04573199898004532,-1.4634239673614502,127.50000762939453,-153.3000030517578,-8.100000381469727
115218,1.6783891916275024,8.948219299316406,-2.852543830871582,-0.05335399881005287,0.1448179930448532,-1.0518360137939453,110.70000457763672,-158.10000610351562,-21.30000114440918
115238,1.7854567766189575,9.655821800231934,-3.0272016525268555,0.2743920087814331,0.3277460038661957,-0.4725639820098877,110.70000457763672,-153.3000030517578,-9.90000057220459
115282,1.1173310279846191,8.574379920959473,-3.108549118041992,0.09146399796009064,-0.25152599811553955,-1.5625100135803223,120.30000305175781,-155.70001220703125,-17.100000381469727
115312,1.0288058519363403,9.372302055358887,-3.165372610092163,0.8841519951820374,-0.3734779953956604,0.17530599236488342,129.90000915527344,-162.90000915527344,-18.900001525878906
115332,1.1789398193359375,10.709152221679688,-3.8227317333221436,0.9451279640197754,-0.4725639820098877,0.36585599184036255,125.10000610351562,-148.5,-20.100000381469727
115372,-0.23148132860660553,8.170633316040039,-3.1797280311584473,1.0365920066833496,-1.2042759656906128,-0.3125019967556,120.30000305175781,-162.90000915527344,-15.90000057220459
115415,-0.7488750219345093,9.799376487731934,-3.5422027111053467,-0.15243999660015106,-1.2195199728012085,-0.12195199728012085,141.90000915527344,-146.10000610351562,-14.700000762939453
115435,-0.9193457365036011,9.002650260925293,-3.019425630569458,-0.36585599184036255,-1.5548880100250244,-0.342989981174469,120.30000305175781,-150.90000915527344,-17.100000381469727
115455,-0.9719823002815247,9.92737865447998,-3.039762496948242,-0.3582339882850647,-0.9298839569091797,0.6631140112876892,127.50000762939453,-146.10000610351562,-12.90000057220459
115495,-1.9547312259674072,8.626418113708496,-2.577996253967285,-1.371959924697876,-0.6478700041770935,-2.195136070251465,129.90000915527344,-146.10000610351562,-13.500000953674316
115539,-2.5863702297210693,8.689223289489746,-3.186307668685913,0.5030519962310791,-0.44969800114631653,-0.6554920077323914,137.10000610351562,-146.10000610351562,-14.100000381469727
115559,-2.2699525356292725,9.65342903137207,-3.3436191082000732,1.2652519941329956,-0.8307979702949524,-0.2439039945602417,117.9000015258789,-150.90000915527344,-18.900001525878906
115599,-2.2639710903167725,8.384169578552246,-2.8214404582977295,0.5411620140075684,-0.41158798336982727,-1.3033620119094849,125.10000610351562,-146.10000610351562,-18.30000114440918
115641,-1.8321119546890259,8.500807762145996,-2.6802785396575928,-0.4344539940357208,0.8993960022926331,-0.9298839569091797,134.70001220703125,-153.3000030517578,-11.700000762939453
115691,-1.3224941492080688,9.002650260925293,-2.4003477096557617,-2.0122079849243164,2.0198299884796143,-1.8902559280395508,129.90000915527344,-153.3000030517578,-11.100000381469727
115736,-0.8631203174591064,8.53609848022461,-2.4990413188934326,-0.8231759667396545,0.7469559907913208,-0.26677000522613525,139.5,-146.10000610351562,-18.30000114440918
115776,-0.6884625554084778,9.09596061706543,-2.9320969581604004,-0.1448179930448532,0.457319974899292,0.5182960033416748,129.90000915527344,-158.10000610351562,-18.900001525878906
115796,-0.42468151450157166,9.441686630249023,-3.1904945373535156,-0.02286599949002266,0.3887220025062561,-0.23628199100494385,122.70000457763672,-143.70001220703125,-19.5
115816,-0.5084215402603149,9.595409393310547,-3.451284885406494,0.46494197845458984,0.2439039945602417,-0.5411620140075684,137.10000610351562,-150.90000915527344,-16.5
115856,-0.20635932683944702,9.185681343078613,-3.3519933223724365,-0.342989981174469,-0.1600620001554489,-1.471045970916748,139.5,-153.3000030517578,-18.900001525878906
115878,-0.3152213394641876,8.74724292755127,-3.594839334487915,0.09146399796009064,0.3277460038661957,-0.6478700041770935,139.5,-148.5,-18.900001525878906
115918,-0.12919887900352478,8.602492332458496,-3.3765170574188232,0.030487999320030212,0.22103799879550934,0.10670799762010574,122.70000457763672,-158.10000610351562,-14.100000381469727
116034,0.22609804570674896,8.956592559814453,-3.3944613933563232,-0.6021379828453064,-0.09908600151538849,0.13719600439071655,139.5,-150.90000915527344,-17.100000381469727
116055,0.040075577795505524,9.03494930267334,-3.4596588611602783,-0.8231759667396545,0.02286599949002266,-0.04573199898004532,146.70001220703125,-143.70001220703125,-15.300000190734863
116095,-0.12860073149204254,9.05708122253418,-3.1438393592834473,-0.9984819889068604,0.10670799762010574,-0.36585599184036255,122.70000457763672,-153.3000030517578,-11.100000381469727
116117,-0.2548089027404785,8.590529441833496,-3.24372935295105,-0.36585599184036255,0.5868939757347107,-0.2972579896450043,141.90000915527344,-153.3000030517578,-23.700000762939453
116137,-0.39477434754371643,9.01999568939209,-3.070866107940674,-0.16768398880958557,0.3887220025062561,0.5259180068969727,132.3000030517578,-155.70001220703125,-14.100000381469727
116157,-0.3164176344871521,8.999659538269043,-3.069669723510742,-0.16768398880958557,0.5640279650688171,0.2896359860897064,129.90000915527344,-148.5,-15.90000057220459
116197,-0.2308831810951233,9.150989532470703,-3.0918009281158447,-0.1600620001554489,0.9375059604644775,0.3048799932003021,122.70000457763672,-146.10000610351562,-20.100000381469727
116217,-0.406139075756073,9.147998809814453,-3.2407386302948,-0.2743920087814331,1.0365920066833496,0.007621999830007553,132.3000030517578,-155.70001220703125,-18.30000114440918
116278,-0.47193479537963867,8.804664611816406,-3.3047399520874023,0.2134159952402115,0.02286599949002266,-0.06859800219535828,139.5,-160.5,-12.300000190734863
116320,-0.358885794878006,9.132447242736816,-3.4022371768951416,0.2439039945602417,-0.3887220025062561,0.5182960033416748,129.90000915527344,-148.5,-15.300000190734863
116360,-0.06579572707414627,9.045716285705566,-3.3914706707000732,-0.2743920087814331,-0.510673999786377,0.12195199728012085,132.3000030517578,-153.3000030517578,-12.300000190734863
116456,1.0377780199050903,9.006836891174316,-2.936283826828003,-1.9893419742584229,1.4024479389190674,-1.3643379211425781,127.50000762939453,-141.3000030517578,-12.90000057220459
116498,1.0629000663757324,8.146707534790039,-3.8610129356384277,-2.073184013366699,3.765267848968506,-2.492393970489502,134.70001220703125,-153.3000030517578,-18.30000114440918
116576,2.41111421585083,8.799281120300293,-6.040047645568848,-1.417691946029663,4.115880012512207,-5.525949954986572,134.70001220703125,-131.70001220703125,-11.100000381469727
116617,2.304644823074341,7.3284478187561035,-5.720041275024414,-3.056421995162964,1.5548880100250244,-4.306429862976074,151.5,-146.10000610351562,-17.700000762939453
116637,2.601922035217285,8.85490894317627,-5.467624664306641,-4.763750076293945,3.1402640342712402,-3.2850818634033203,149.10000610351562,-148.5,-12.300000190734863
116657,2.3716368675231934,8.357254028320312,-5.389866352081299,-5.480217933654785,4.314052104949951,-5.884183883666992,151.5,-138.90000915527344,-17.700000762939453
116700,-0.1824336051940918,5.049522876739502,-3.5780911445617676,-4.565577983856201,5.449729919433594,-6.097599983215332,161.10000610351562,-138.90000915527344,-18.900001525878906
116740,-0.9917210340499878,6.180013179779053,-2.878862142562866,-4.336917877197266,7.82017183303833,-4.878079891204834,175.5,-122.10000610351562,-14.100000381469727
116760,-1.9654978513717651,5.8468475341796875,-2.348309278488159,-4.344540119171143,9.413169860839844,-6.570163726806641,182.70001220703125,-138.90000915527344,-18.900001525878906
116780,-2.4966487884521484,6.266744136810303,-2.19996976852417,-3.155508041381836,10.312565803527832,-6.2805280685424805,189.90000915527344,-136.5,-18.900001525878906
116801,-3.165372610092163,6.120198726654053,-1.427767276763916,-4.237832069396973,10.49549388885498,-7.4390716552734375,185.10000610351562,-126.9000015258789,-17.100000381469727
116821,-3.64807391166687,6.488056659698486,-0.5132066607475281,-4.07014799118042,10.602201461791992,-6.859799861907959,197.10000610351562,-122.10000610351562,-10.5
116841,-4.895202159881592,8.46133041381836,-0.5108140707015991,-4.900945663452148,13.193681716918945,-6.6768717765808105,185.10000610351562,-107.70000457763672,-16.5
116861,-5.805575847625732,9.938145637512207,-0.8667091727256775,-4.6951518058776855,13.46045207977295,-7.39333963394165,199.50001525878906,-129.3000030517578,-16.5
116881,-5.4891581535339355,10.571578979492188,-0.8834571838378906,-3.7957558631896973,12.004650115966797,-7.530535697937012,213.90000915527344,-122.10000610351562,-15.90000057220459
116901,-5.049522876739502,9.981809616088867,0.24942561984062195,-3.8262438774108887,10.54122543334961,-6.448211669921875,204.3000030517578,-122.10000610351562,-10.5
116922,-5.713461875915527,11.675152778625488,-0.11962859332561493,-4.268320083618164,11.021411895751953,-4.2149658203125,199.50001525878906,-102.9000015258789,-12.90000057220459
116942,-5.965878009796143,11.489130020141602,-0.09331030398607254,-3.803377866744995,8.399443626403809,-4.39027214050293,204.3000030517578,-119.70000457763672,-9.90000057220459
116962,-6.226668357849121,11.736761093139648,0.5437119603157043,-2.4237959384918213,5.8613176345825195,-3.612828016281128,206.70001220703125,-98.10000610351562,-15.300000190734863
116982,-6.63579797744751,12.379765510559082,0.16807816922664642,-1.1585439443588257,3.910085916519165,-1.829279899597168,225.90000915527344,-110.10000610351562,-0.9000000357627869
117002,-6.931280612945557,12.901346206665039,0.0897214487195015,-0.44969800114631653,1.4024479389190674,-0.6783579587936401,209.10000610351562,-102.9000015258789,-15.90000057220459
117022,-6.962384223937988,14.188549041748047,-0.6770978569984436,1.189031958580017,-1.8597679138183594,0.8460419774055481,213.90000915527344,-102.9000015258789,-15.300000190734863
117042,-6.968963623046875,13.857178688049316,-0.2673698961734772,1.242385983467102,-3.3155698776245117,0.5564059615135193,201.90000915527344,-110.10000610351562,-12.300000190734863
117062,-8.009732246398926,11.954485893249512,-0.7733988761901855,1.6920839548110962,-3.871975898742676,1.0061039924621582,211.50001525878906,-102.9000015258789,-10.5
117082,-7.7453532218933105,12.604666709899902,-1.1442475318908691,2.195136070251465,-6.547297954559326,3.6890478134155273,209.10000610351562,-102.9000015258789,-12.90000057220459
117105,-6.997674465179443,12.328923225402832,-0.8786720037460327,1.7911700010299683,-9.024447441101074,5.343021869659424,209.10000610351562,-105.30000305175781,-9.300000190734863
117127,-6.145918846130371,10.950202941894531,-0.5568711161613464,2.332331895828247,-10.876593589782715,7.126569747924805,204.3000030517578,-124.50000762939453,-9.300000190734863
117147,-5.237937927246094,10.21329116821289,-0.5544785261154175,3.0259339809417725,-11.585439682006836,8.35371208190918,216.3000030517578,-124.50000762939453,-15.90000057220459
117167,-5.313902378082275,9.120484352111816,-0.7919412851333618,3.5289859771728516,-11.577817916870117,8.323224067687988,199.50001525878906,-119.70000457763672,-18.30000114440918
117187,-4.8778557777404785,8.35067367553711,-1.830317497253418,4.908567905426025,-11.394889831542969,9.4970121383667,192.3000030517578,-129.3000030517578,-18.900001525878906
117207,-3.22578501701355,8.897974967956543,-1.4744224548339844,4.8018598556518555,-13.681489944458008,11.013790130615234,194.70001220703125,-131.70001220703125,-17.700000762939453
117227,-2.9171433448791504,8.713747024536133,-1.505525827407837,4.375028133392334,-11.814099311828613,10.411651611328125,185.10000610351562,-126.9000015258789,-18.30000114440918
117247,-2.5558648109436035,8.54806137084961,-2.7670094966888428,4.268320083618164,-10.015307426452637,9.885733604431152,168.3000030517578,-124.50000762939453,-26.100000381469727
117267,-1.5874714851379395,8.070743560791016,-2.518181800842285,3.193617820739746,-11.42537784576416,9.047313690185547,158.70001220703125,-141.3000030517578,-21.900001525878906
117287,-1.428963541984558,7.720231533050537,-2.3650572299957275,2.439039945602417,-9.626585960388184,7.705842018127441,161.10000610351562,-143.70001220703125,-15.300000190734863
117307,-1.2052581310272217,7.6089768409729,-3.1073527336120605,2.637212038040161,-8.00309944152832,6.554919719696045,156.3000030517578,-155.70001220703125,-18.900001525878906
117327,-0.6603498458862305,7.36194372177124,-2.872880697250366,2.1722700595855713,-8.879630088806152,5.434485912322998,139.5,-148.5,-14.100000381469727
117347,-0.20994818210601807,7.137639999389648,-2.6581473350524902,1.8521459102630615,-7.82017183303833,4.634175777435303,134.70001220703125,-146.10000610351562,-24.900001525878906
117367,-0.15790975093841553,6.389961242675781,-2.7819628715515137,1.9131219387054443,-6.410101890563965,3.163130044937134,144.3000030517578,-150.90000915527344,-22.5
117389,-0.0059814294800162315,5.641684532165527,-2.6928396224975586,1.9969639778137207,-6.311016082763672,3.612828016281128,134.70001220703125,-143.70001220703125,-20.100000381469727
117409,0.5562729835510254,6.593928337097168,-2.7167654037475586,1.3872039318084717,-5.045763969421387,4.870458126068115,122.70000457763672,-146.10000610351562,-15.90000057220459
117431,0.5843856930732727,6.69262170791626,-3.1438393592834473,1.3490939140319824,-3.163130044937134,3.445143938064575,129.90000915527344,-138.90000915527344,-22.5
117451,1.0527316331863403,6.823615074157715,-3.493155002593994,2.545747995376587,-2.4771499633789062,3.3689239025115967,137.10000610351562,-158.10000610351562,-24.30000114440918
117471,1.6873613595962524,8.120986938476562,-3.46982741355896,0.9222619533538818,-1.2728739976882935,3.5213639736175537,137.10000610351562,-158.10000610351562,-21.30000114440918
117491,1.6574541330337524,8.36084270477295,-3.988417387008667,1.1128119230270386,0.7698220014572144,2.278977870941162,125.10000610351562,-167.70001220703125,-20.700000762939453
117512,1.6664263010025024,8.336318969726562,-4.277320384979248,1.4634239673614502,1.4024479389190674,1.478667974472046,125.10000610351562,-150.90000915527344,-14.700000762939453
117532,1.62934148311615,8.355459213256836,-4.807275295257568,2.14178204536438,2.14178204536438,0.9756159782409668,122.70000457763672,-160.5,-18.30000114440918
117555,1.6084064245224,9.32086181640625,-5.251097202301025,1.4329359531402588,1.4862899780273438,0.8079319596290588,103.50000762939453,-143.70001220703125,-18.900001525878906
117575,1.6604448556900024,9.228748321533203,-5.050719261169434,1.295740008354187,1.4405579566955566,0.030487999320030212,120.30000305175781,-158.10000610351562,-18.30000114440918
117596,1.4002526998519897,8.632399559020996,-5.023802757263184,0.8993960022926331,1.9207439422607422,-0.7850660085678101,120.30000305175781,-150.90000915527344,-20.100000381469727
117616,1.107162594795227,8.055789947509766,-5.001073360443115,0.7698220014572144,1.6920839548110962,-0.5182960033416748,129.90000915527344,-136.5,-18.900001525878906
117636,1.324886679649353,8.778346061706543,-4.670300483703613,0.49542999267578125,1.1737879514694214,0.3887220025062561,108.30000305175781,-162.90000915527344,-19.5
117660,1.3009610176086426,8.932068824768066,-4.265357494354248,0.25152599811553955,0.9527499675750732,0.07621999830007553,120.30000305175781,-148.5,-12.300000190734863
117681,1.2758389711380005,8.682044982910156,-3.9357807636260986,-0.2743920087814331,1.242385983467102,-0.22103799879550934,117.9000015258789,-155.70001220703125,-9.300000190734863
117701,1.1992766857147217,8.502004623413086,-3.746169328689575,-0.36585599184036255,1.1814099550247192,-0.22103799879550934,115.50000762939453,-155.70001220703125,-17.100000381469727
117722,1.0467501878738403,8.397927284240723,-3.5009307861328125,-0.2439039945602417,1.0061039924621582,0.23628199100494385,127.50000762939453,-158.10000610351562,-15.90000057220459
117742,0.9408788681030273,8.79808521270752,-3.2867956161499023,-0.07621999830007553,0.7164679765701294,0.8231759667396545,110.70000457763672,-158.10000610351562,-15.90000057220459
117762,0.9971043467521667,9.321459770202637,-2.954228162765503,-0.2743920087814331,0.39634400606155396,0.6707359552383423,115.50000762939453,-153.3000030517578,-15.300000190734863
117782,0.9145606160163879,9.191662788391113,-2.7771778106689453,-0.5182960033416748,0.9984819889068604,-0.17530599236488342,127.50000762939453,-162.90000915527344,-15.90000057220459
117802,0.6364241242408752,9.194055557250977,-3.124100685119629,-0.2972579896450043,1.4481799602508545,-0.2743920087814331,120.30000305175781,-155.70001220703125,-15.90000057220459
117822,0.19020946323871613,8.478676795959473,-3.0571086406707764,0.015243999660015106,0.4420759975910187,-0.5487840175628662,122.70000457763672,-153.3000030517578,-24.900001525878906
117842,0.06998272985219955,8.54686450958252,-3.007462978363037,0.342989981174469,0.19817200303077698,-0.17530599236488342,117.9000015258789,-153.3000030517578,-20.100000381469727
117902,0.2883049249649048,9.357946395874023,-3.231168270111084,-0.25152599811553955,-0.19054999947547913,-0.007621999830007553,113.10000610351562,-155.70001220703125,-17.700000762939453
117925,0.32897862792015076,9.60378360748291,-3.0002851486206055,-2.03507399559021,0.342989981174469,0.685979962348938,120.30000305175781,-150.90000915527344,-11.700000762939453
117945,0.3020622134208679,9.387255668640137,-3.467434883117676,-3.2622158527374268,1.3948259353637695,0.07621999830007553,110.70000457763672,-160.5,-15.300000190734863
117966,-0.38460594415664673,8.57677173614502,-3.5152862071990967,-1.9969639778137207,0.7850660085678101,-0.3887220025062561,110.70000457763672,-150.90000915527344,-17.100000381469727
117986,-0.11962859332561493,9.068445205688477,-3.3663487434387207,-1.4939119815826416,-0.7698220014572144,1.0365920066833496,113.10000610351562,-150.90000915527344,-14.100000381469727
118006,0.28890305757522583,9.02418327331543,-2.718559741973877,-1.371959924697876,-1.8673899173736572,1.0442140102386475,108.30000305175781,-155.70001220703125,-22.5
118090,0.5610581040382385,8.53310775756836,-2.781364917755127,0.7850660085678101,0.457319974899292,-0.9070180058479309,113.10000610351562,-148.5,-18.900001525878906
118148,0.5365342497825623,9.022388458251953,-3.398050308227539,0.19817200303077698,1.5320219993591309,-1.707327961921692,108.30000305175781,-165.3000030517578,-26.700000762939453
118192,0.9863377809524536,8.606081008911133,-3.4770050048828125,-0.8917739987373352,0.9070180058479309,-2.278977870941162,108.30000305175781,-150.90000915527344,-19.5
118213,1.442720890045166,8.58993148803711,-3.67199969291687,-0.8689079880714417,1.3643379211425781,-2.027451992034912,108.30000305175781,-170.10000610351562,-17.100000381469727
118253,1.9320018291473389,9.020594596862793,-5.15001106262207,-0.8917739987373352,2.8658719062805176,-2.637212038040161,115.50000762939453,-158.10000610351562,-22.5
118276,2.554070472717285,9.025379180908203,-5.4000349044799805,-1.3567159175872803,1.7759259939193726,-2.7058098316192627,117.9000015258789,-158.10000610351562,-20.700000762939453
118296,2.996098041534424,8.442190170288086,-4.824023246765137,-2.583858013153076,2.0045859813690186,-3.254593849182129,122.70000457763672,-150.90000915527344,-17.100000381469727
118316,3.1169230937957764,7.845841407775879,-4.772582530975342,-2.538125991821289,3.5975840091705322,-2.888737916946411,134.70001220703125,-148.5,-20.100000381469727
118336,2.9859297275543213,7.7991862297058105,-4.55246639251709,-2.9268479347229004,5.586925983428955,-2.3475759029388428,125.10000610351562,-150.90000915527344,-9.90000057220459
118357,2.7101857662200928,7.762699604034424,-4.567419528961182,-3.292703866958618,6.760714054107666,-3.003067970275879,134.70001220703125,-150.90000915527344,-17.700000762939453
118377,2.283709764480591,7.643070697784424,-5.12010383605957,-2.995445966720581,8.948227882385254,-4.032037734985352,117.9000015258789,-143.70001220703125,-17.700000762939453
118397,0.9953098893165588,6.568806171417236,-5.081822872161865,-3.003067970275879,9.336949348449707,-5.274424076080322,125.10000610351562,-155.70001220703125,-15.300000190734863
118417,0.6172835230827332,6.193172454833984,-4.569812297821045,-3.346057891845703,8.704323768615723,-5.381131649017334,134.70001220703125,-143.70001220703125,-14.700000762939453
118437,0.5790023803710938,6.315791606903076,-4.033876419067383,-3.7805118560791016,8.689080238342285,-5.365887641906738,146.70001220703125,-155.70001220703125,-18.30000114440918
118457,0.48629024624824524,6.104049205780029,-3.6402981281280518,-4.260697841644287,8.384200096130371,-5.754610061645508,146.70001220703125,-143.70001220703125,-20.700000762939453
118478,-0.30385664105415344,5.557346343994141,-2.7101857662200928,-5.4573516845703125,8.788166046142578,-5.693634033203125,139.5,-148.5,-17.100000381469727
118498,-0.5873764157295227,5.919820785522461,-2.152118444442749,-5.274424076080322,11.654037475585938,-5.6174139976501465,151.5,-148.5,-11.700000762939453
118518,-1.7507644891738892,5.937167167663574,-2.3740293979644775,-4.222588062286377,13.841551780700684,-7.012239933013916,141.90000915527344,-146.10000610351562,-23.700000762939453
118540,-2.4129087924957275,7.159173011779785,-1.8787670135498047,-2.8201398849487305,11.89031982421875,-7.522913932800293,161.10000610351562,-141.3000030517578,-18.30000114440918
118560,-3.838881492614746,9.1802978515625,-0.3618764877319336,-2.4695279598236084,11.013790130615234,-8.978715896606445,170.70001220703125,-131.70001220703125,-17.100000381469727
118580,-5.3551740646362305,9.373498916625977,-1.021030068397522,-2.39330792427063,14.611373901367188,-12.058003425598145,170.70001220703125,-136.5,-3.9000000953674316
118600,-4.94783878326416,9.97941780090332,-1.1095552444458008,-2.1036720275878906,10.724153518676758,-10.67080020904541,173.10000610351562,-119.70000457763672,-5.100000381469727
118620,-5.164366245269775,10.354453086853027,1.0712740421295166,-3.193617820739746,8.673835754394531,-9.100667953491211,185.10000610351562,-122.10000610351562,-17.100000381469727
118640,-5.983223915100098,11.060859680175781,-0.4456165134906769,-2.439039945602417,12.484835624694824,-7.294253826141357,180.3000030517578,-117.30000305175781,-11.700000762939453
118660,-5.952718734741211,10.840743064880371,-0.7757914066314697,-1.0594580173492432,8.307979583740234,-6.501565933227539,194.70001220703125,-122.10000610351562,-18.900001525878906
118680,-5.892306327819824,11.002840042114258,0.26138848066329956,-0.457319974899292,4.916189670562744,-4.199721813201904,199.50001525878906,-112.50000762939453,-10.5
118700,-6.094478607177734,13.55272388458252,-0.33017492294311523,-1.0975680351257324,4.413137912750244,-1.5167779922485352,194.70001220703125,-117.30000305175781,-5.100000381469727
118720,-5.345603942871094,14.86445140838623,0.10706759244203568,-1.9207439422607422,0.6326259970664978,-1.981719970703125,204.3000030517578,-110.10000610351562,-11.700000762939453
118740,-6.114815711975098,12.516141891479492,0.8487648963928223,-1.8673899173736572,-0.2591480016708374,-3.1402640342712402,201.90000915527344,-117.30000305175781,-16.5
118760,-6.432429313659668,13.22374439239502,-0.3355582058429718,-0.3734779953956604,-1.1585439443588257,-0.48018598556518555,204.3000030517578,-107.70000457763672,-13.500000953674316
118780,-5.5100932121276855,14.026453018188477,0.6794903874397278,-0.9070180058479309,-4.900945663452148,0.6631140112876892,182.70001220703125,-112.50000762939453,-16.5
118800,-7.51028299331665,12.231425285339355,0.2649773359298706,-0.22103799879550934,-4.596065998077393,1.0823240280151367,192.3000030517578,-110.10000610351562,-12.300000190734863
118820,-6.99647855758667,12.874429702758789,-0.8750831484794617,1.1280559301376343,-7.362851619720459,4.00154972076416,197.10000610351562,-114.9000015258789,-12.300000190734863
118842,-5.565122127532959,12.080693244934082,0.2679680585861206,1.6234859228134155,-10.564091682434082,5.853695869445801,209.10000610351562,-114.9000015258789,-12.90000057220459
118862,-6.043636798858643,10.976521492004395,-0.3822133541107178,1.5625100135803223,-10.28207778930664,7.5991339683532715,189.90000915527344,-126.9000015258789,-13.500000953674316
118886,-5.392259120941162,10.319162368774414,-1.6119953393936157,2.7058098316192627,-11.920807838439941,9.52750015258789,189.90000915527344,-112.50000762939453,-15.300000190734863
118906,-3.9004902839660645,10.19056224822998,-1.2734464406967163,3.5213639736175537,-15.007718086242676,10.983302116394043,187.5,-117.30000305175781,-24.30000114440918
118926,-2.921330213546753,9.69828987121582,-1.2435392141342163,2.942091941833496,-14.7180814743042,10.876593589782715,165.90000915527344,-124.50000762939453,-14.700000762939453
118946,-2.4069273471832275,8.21728801727295,-1.7011185884475708,3.300325870513916,-13.856795310974121,9.375060081481934,170.70001220703125,-138.90000915527344,-17.100000381469727
118966,-2.121613025665283,8.001956939697266,-1.916450023651123,3.506119966506958,-13.475695610046387,9.504633903503418,153.90000915527344,-141.3000030517578,-23.100000381469727
118986,-1.3721399307250977,8.349477767944336,-2.5032284259796143,3.048799991607666,-11.836965560913086,9.199753761291504,149.10000610351562,-153.3000030517578,-15.90000057220459
119007,-1.3643641471862793,7.929581165313721,-2.8633103370666504,2.743919849395752,-10.67080020904541,8.00309944152832,141.90000915527344,-148.5,-17.100000381469727
119027,-0.7476786971092224,7.732194423675537,-3.2150185108184814,2.6295900344848633,-10.510737419128418,7.85828161239624,137.10000610351562,-150.90000915527344,-17.100000381469727
119049,-0.30505290627479553,7.7609052658081055,-2.908769369125366,1.6082419157028198,-10.617445945739746,7.385717868804932,151.5,-146.10000610351562,-18.900001525878906
119069,0.07775858789682388,7.015020847320557,-3.037369966506958,1.875011920928955,-8.993959426879883,6.150953769683838,120.30000305175781,-167.70001220703125,-20.100000381469727
119091,0.39776507019996643,6.887018203735352,-3.350198745727539,2.080806016921997,-8.589993476867676,6.112843990325928,125.10000610351562,-158.10000610351562,-16.5
119111,0.9319067597389221,7.453459739685059,-3.329263687133789,1.6768399477005005,-7.8430376052856445,5.411619663238525,110.70000457763672,-155.70001220703125,-23.700000762939453
119131,1.2447354793548584,7.625126361846924,-3.142045021057129,1.7835479974746704,-7.378095626831055,4.153989791870117,113.10000610351562,-160.5,-17.700000762939453
119153,1.20406174659729,6.919317722320557,-2.790336847305298,1.3643379211425781,-5.884183883666992,2.088428020477295,115.50000762939453,-155.70001220703125,-22.5
119173,1.0126560926437378,5.824716091156006,-2.9829390048980713,2.0579400062561035,-4.2911858558654785,1.0594580173492432,105.9000015258789,-155.70001220703125,-21.30000114440918
119254,1.530647873878479,8.568398475646973,-3.678579330444336,2.637212038040161,-2.4542839527130127,0.49542999267578125,113.10000610351562,-155.70001220703125,-18.900001525878906
119274,1.721455454826355,9.133045196533203,-3.5607450008392334,1.6844619512557983,-1.9207439422607422,-0.44969800114631653,113.10000610351562,-158.10000610351562,-25.500001907348633
119294,1.738203525543213,9.00205135345459,-3.63012957572937,1.1128119230270386,-0.739333987236023,-1.1737879514694214,117.9000015258789,-170.10000610351562,-15.300000190734863
119334,1.132882833480835,8.472097396850586,-3.66302752494812,-0.07621999830007553,1.242385983467102,-2.1189160346984863,113.10000610351562,-150.90000915527344,-11.700000762939453
119374,0.6759015321731567,8.84294605255127,-3.922621488571167,0.2972579896450043,2.1570260524749756,-1.5548880100250244,117.9000015258789,-160.5,-22.5
119394,0.4683459401130676,8.350075721740723,-3.7216455936431885,0.16768398880958557,2.2103798389434814,-1.7683039903640747,115.50000762939453,-165.3000030517578,-23.100000381469727
119414,0.47911250591278076,8.583352088928223,-3.6558499336242676,0.6554920077323914,2.225623846054077,-0.9451279640197754,120.30000305175781,-153.3000030517578,-12.90000057220459
119454,0.30624920129776,8.993678092956543,-3.4799957275390625,0.5792719721794128,2.1189160346984863,0.09146399796009064,122.70000457763672,-155.70001220703125,-19.5
119474,0.362474650144577,9.179101943969727,-3.2479162216186523,0.5259180068969727,1.653973937034607,0.4039659798145294,113.10000610351562,-155.70001220703125,-14.100000381469727
119498,0.5478989481925964,9.574474334716797,-3.0188276767730713,0.13719600439071655,1.5853760242462158,0.38109999895095825,129.90000915527344,-155.70001220703125,-15.90000057220459
119518,0.4605700969696045,9.122876167297363,-3.1342692375183105,-0.4420759975910187,1.9664759635925293,-0.46494197845458984,125.10000610351562,-148.5,-14.100000381469727
119560,0.36127835512161255,8.891395568847656,-3.1528115272521973,0.19054999947547913,1.1280559301376343,-0.015243999660015106,120.30000305175781,-150.90000915527344,-16.5
119580,0.43903693556785583,9.243701934814453,-3.198270559310913,0.2439039945602417,0.9984819889068604,0.38109999895095825,122.70000457763672,-150.90000915527344,-18.30000114440918
119623,0.3720449209213257,8.995471954345703,-3.1408486366271973,-0.35061198472976685,0.9603719711303711,-0.05335399881005287,115.50000762939453,-165.3000030517578,-20.100000381469727
119643,0.2673698961734772,8.84294605255127,-3.2287757396698,-0.3125019967556,0.8460419774055481,0.1448179930448532,115.50000762939453,-162.90000915527344,-18.900001525878906
119663,0.19020946323871613,8.729896545410156,-3.177933692932129,-0.2896359860897064,0.5487840175628662,0.6554920077323914,127.50000762939453,-153.3000030517578,-11.700000762939453
119683,0.3415396511554718,9.22934627532959,-3.1252970695495605,-0.038109999150037766,0.2972579896450043,1.0365920066833496,105.9000015258789,-167.70001220703125,-18.30000114440918
119703,0.48748651146888733,9.4554443359375,-3.0744547843933105,-0.2896359860897064,0.23628199100494385,0.7469559907913208,110.70000457763672,-146.10000610351562,-18.30000114440918
119726,0.517991840839386,9.106128692626953,-3.1007730960845947,-0.5487840175628662,0.39634400606155396,0.3201240003108978,110.70000457763672,-158.10000610351562,-12.90000057220459
119746,0.5251695513725281,8.960780143737793,-3.0206220149993896,-0.426831990480423,0.3582339882850647,0.4725639820098877,110.70000457763672,-153.3000030517578,-14.700000762939453
119766,0.509019672870636,8.930274963378906,-2.9314987659454346,-0.4344539940357208,0.33536797761917114,0.6326259970664978,113.10000610351562,-148.5,-15.90000057220459
119786,0.5467026829719543,8.960780143737793,-2.909367322921753,-0.457319974899292,0.3048799932003021,0.739333987236023,103.50000762939453,-150.90000915527344,-19.5
119806,0.6262556910514832,9.161157608032227,-2.918339490890503,-0.2972579896450043,0.18292799592018127,0.6097599864006042,98.70000457763672,-165.3000030517578,-18.900001525878906
119828,0.6800885796546936,9.029566764831543,-2.7622241973876953,-0.2743920087814331,0.015243999660015106,0.2972579896450043,105.9000015258789,-155.70001220703125,-12.90000057220459
119849,0.7446879744529724,9.03016471862793,-2.6880545616149902,-0.3048799932003021,0.038109999150037766,0.16768398880958557,120.30000305175781,-165.3000030517578,-14.100000381469727
119869,0.6489851474761963,8.852516174316406,-2.8011035919189453,-0.228659987449646,0.2896359860897064,0.02286599949002266,120.30000305175781,-150.90000915527344,-14.100000381469727
119933,0.5084215402603149,9.251477241516113,-3.043351411819458,0.2591480016708374,0.36585599184036255,-0.09146399796009064,110.70000457763672,-150.90000915527344,-13.500000953674316
119995,0.48090696334838867,9.240711212158203,-3.2120277881622314,-0.2134159952402115,0.20579399168491364,0.09908600151538849,115.50000762939453,-162.90000915527344,-11.700000762939453
120109,0.5233750939369202,8.959583282470703,-3.124100685119629,-0.510673999786377,0.13719600439071655,-0.13719600439071655,108.30000305175781,-158.10000610351562,-15.300000190734863
120169,0.5353379845619202,8.903358459472656,-2.9285080432891846,-0.25152599811553955,0.114329993724823,-0.015243999660015106,101.10000610351562,-155.70001220703125,-18.900001525878906
120189,0.6477888226509094,9.039734840393066,-2.9075729846954346,-0.09146399796009064,0.060975998640060425,0.030487999320030212,103.50000762939453,-160.5,-17.100000381469727
120211,0.5467026829719543,8.862086296081543,-3.0451457500457764,-0.12195199728012085,0.05335399881005287,-0.12195199728012085,101.10000610351562,-148.5,-12.90000057220459
120231,0.6262556910514832,9.028369903564453,-3.040360689163208,0.1600620001554489,-0.04573199898004532,0.04573199898004532,96.30000305175781,-158.10000610351562,-17.700000762939453
120251,0.8649147152900696,9.112110137939453,-3.1013712882995605,-0.007621999830007553,-0.007621999830007553,-0.07621999830007553,103.50000762939453,-158.10000610351562,-17.100000381469727
120273,1.0389742851257324,9.129456520080566,-3.213223934173584,-0.2972579896450043,0.33536797761917114,-0.20579399168491364,117.9000015258789,-158.10000610351562,-12.90000057220459
120293,1.3009610176086426,9.185681343078613,-3.3286657333374023,-0.7088459730148315,0.6326259970664978,-0.36585599184036255,105.9000015258789,-165.3000030517578,-15.300000190734863
120313,1.731623888015747,9.266430854797363,-3.6851587295532227,-1.4634239673614502,1.3262280225753784,-0.7088459730148315,108.30000305175781,-150.90000915527344,-20.700000762939453
120333,1.7675124406814575,8.62282943725586,-4.115821838378906,-2.2180018424987793,2.4009299278259277,-1.6158639192581177,115.50000762939453,-158.10000610351562,-15.90000057220459
120353,1.9995919466018677,7.896683692932129,-4.735497951507568,-1.8445239067077637,3.0106899738311768,-2.0579400062561035,108.30000305175781,-167.70001220703125,-17.700000762939453
120373,2.7861499786376953,7.63589334487915,-5.416184425354004,-0.8155539631843567,3.1173980236053467,-1.1051899194717407,108.30000305175781,-160.5,-11.100000381469727
120393,3.2329628467559814,8.174819946289062,-5.5220561027526855,-2.0960500240325928,1.981719970703125,-0.5868939757347107,113.10000610351562,-155.70001220703125,-17.700000762939453
120413,3.4357333183288574,7.780045509338379,-5.164366245269775,-2.75154185295105,2.233245849609375,-1.417691946029663,115.50000762939453,-155.70001220703125,-15.90000057220459
120476,3.329861879348755,8.72630786895752,-5.428745746612549,-3.292703866958618,8.384200096130371,-4.839970111846924,108.30000305175781,-162.90000915527344,-16.5
120531,0.7871561646461487,6.393550395965576,-3.5756986141204834,-2.995445966720581,9.641829490661621,-8.971094131469727,129.90000915527344,-143.70001220703125,-17.100000381469727
120551,0.5341416597366333,6.708771705627441,-2.9966962337493896,-2.545747995376587,11.448244094848633,-8.750056266784668,132.3000030517578,-146.10000610351562,-18.900001525878906
120593,-1.0760592222213745,4.152308464050293,-2.352496385574341,-3.0716660022735596,15.038206100463867,-12.362883567810059,161.10000610351562,-143.70001220703125,-15.300000190734863
120633,-3.982435941696167,6.112422943115234,-2.888432502746582,0.914639949798584,13.567159652709961,-6.394857883453369,151.5,-126.9000015258789,-8.700000762939453
120711,-4.702600002288818,9.688719749450684,-2.134772300720215,0.38109999895095825,14.237895965576172,-5.411619663238525,180.3000030517578,-134.10000610351562,-3.9000000953674316
120731,-3.70489764213562,13.014394760131836,-0.5897689461708069,-0.9756159782409668,7.126569747924805,-3.460387945175171,175.5,-129.3000030517578,-5.100000381469727
120775,-5.4532694816589355,11.691302299499512,-1.4080286026000977,-1.2652519941329956,7.408583641052246,-3.9329519271850586,175.5,-131.70001220703125,-3.9000000953674316
120795,-4.938268184661865,14.66407299041748,-1.446907877922058,-0.5640279650688171,1.3567159175872803,-0.49542999267578125,165.90000915527344,-124.50000762939453,-4.5
120815,-5.140440464019775,15.378853797912598,-1.6640337705612183,-1.1280559301376343,0.3048799932003021,0.030487999320030212,185.10000610351562,-114.9000015258789,0.30000001192092896
120835,-5.854025363922119,15.662971496582031,-1.9660959243774414,-1.2728739976882935,-3.353679895401001,0.3125019967556,185.10000610351562,-117.30000305175781,-6.300000190734863
120855,-6.364839553833008,13.600574493408203,-1.0024876594543457,-1.7149499654769897,-7.408583641052246,0.19817200303077698,185.10000610351562,-126.9000015258789,-8.700000762939453
120898,-5.871969699859619,13.24767017364502,-1.5001425743103027,0.7469559907913208,-15.068694114685059,5.14484977722168,182.70001220703125,-122.10000610351562,-8.100000381469727
120918,-4.993895530700684,12.130937576293945,-0.9893285036087036,0.36585599184036255,-15.92997932434082,6.364369869232178,173.10000610351562,-119.70000457763672,-7.500000476837158
120938,-4.27253532409668,10.889192581176758,-0.9540380239486694,0.4420759975910187,-15.38881778717041,7.469559669494629,175.5,-129.3000030517578,-5.100000381469727
120959,-4.19776725769043,9.551146507263184,-1.1597992181777954,0.9756159782409668,-14.24551773071289,8.368955612182617,170.70001220703125,-126.9000015258789,-14.100000381469727
120979,-3.64209246635437,8.835169792175293,-1.546797752380371,1.2576299905776978,-14.268383979797363,9.237863540649414,175.5,-131.70001220703125,-12.300000190734863
120999,-2.8357958793640137,8.120986938476562,-1.3978601694107056,1.3490939140319824,-13.986370086669922,9.405548095703125,163.5,-129.3000030517578,-14.100000381469727
121020,-2.334552049636841,7.979825496673584,-1.9672921895980835,1.4329359531402588,-11.882698059082031,9.100667953491211,163.5,-138.90000915527344,-15.90000057220459
121040,-1.9475535154342651,7.55215311050415,-2.7089896202087402,1.9436099529266357,-11.150985717773438,8.277491569519043,151.5,-138.90000915527344,-18.900001525878906
121060,-1.2662686109542847,7.32904577255249,-2.5439021587371826,2.2561118602752686,-12.141845703125,8.64334774017334,139.5,-143.70001220703125,-18.30000114440918
121081,-0.6208723783493042,8.076725006103516,-2.3417296409606934,1.2347639799118042,-11.379645347595215,8.742433547973633,139.5,-150.90000915527344,-22.5
121123,-0.6723126769065857,6.537702560424805,-3.505117893218994,2.126538038253784,-7.919257640838623,5.015275955200195,117.9000015258789,-148.5,-23.700000762939453
121143,-0.11424531042575836,6.459944248199463,-3.1821205615997314,1.9740979671478271,-9.710428237915039,6.219552040100098,125.10000610351562,-155.70001220703125,-18.900001525878906
121165,0.21832218766212463,7.107134819030762,-3.4387240409851074,0.46494197845458984,-6.516809940338135,5.815586090087891,110.70000457763672,-150.90000915527344,-20.100000381469727
121185,0.20336860418319702,6.809259414672852,-3.7276270389556885,1.5396440029144287,-5.990891933441162,4.756127834320068,115.50000762939453,-153.3000030517578,-18.900001525878906
121205,0.5652450919151306,7.448674201965332,-3.6791775226593018,1.3643379211425781,-5.746987819671631,5.0000319480896,103.50000762939453,-162.90000915527344,-19.5
121225,0.9073829054832458,8.247793197631836,-3.5900540351867676,0.9375059604644775,-4.7027740478515625,4.100636005401611,108.30000305175781,-162.90000915527344,-24.30000114440918
121245,0.9175513386726379,7.738773822784424,-3.67199969291687,0.7317119836807251,-3.7347798347473145,2.3094658851623535,98.70000457763672,-162.90000915527344,-21.900001525878906
121265,1.019235610961914,7.657426357269287,-3.570315361022949,1.1737879514694214,-3.4832539558410645,2.1494040489196777,96.30000305175781,-165.3000030517578,-28.500001907348633
121285,1.415804386138916,8.349477767944336,-3.27961802482605,0.967993974685669,-3.041177988052368,2.2637338638305664,98.70000457763672,-167.70001220703125,-23.700000762939453
121305,2.0043771266937256,9.320263862609863,-3.293375253677368,0.685979962348938,-1.8140360116958618,1.7911700010299683,98.70000457763672,-160.5,-26.100000381469727
121327,2.435638189315796,9.933958053588867,-3.4237704277038574,0.8079319596290588,-0.8231759667396545,0.739333987236023,110.70000457763672,-165.3000030517578,-24.900001525878906
121348,2.029499053955078,9.001453399658203,-3.159989356994629,0.3887220025062561,-0.6021379828453064,-0.9298839569091797,93.9000015258789,-167.70001220703125,-17.100000381469727
121368,2.20296049118042,8.415871620178223,-3.055314302444458,0.5868939757347107,0.09908600151538849,-0.7469559907913208,91.5,-165.3000030517578,-20.100000381469727
121389,2.19697904586792,8.071341514587402,-3.085221529006958,0.7317119836807251,0.8993960022926331,-0.7545779943466187,108.30000305175781,-170.10000610351562,-23.700000762939453
121409,1.9888253211975098,7.717240810394287,-3.353189468383789,1.013725996017456,1.699705958366394,-0.510673999786377,89.10000610351562,-158.10000610351562,-18.900001525878906
121469,2.2675600051879883,9.457837104797363,-3.6821682453155518,1.0518360137939453,2.3018438816070557,-0.38109999895095825,103.50000762939453,-160.5,-22.5
121496,2.0432562828063965,9.018799781799316,-3.4267611503601074,0.28201398253440857,2.7744078636169434,-1.3567159175872803,103.50000762939453,-155.70001220703125,-16.5
121537,1.0443576574325562,8.699989318847656,-3.7694969177246094,0.36585599184036255,2.782029867172241,-1.699705958366394,84.30000305175781,-158.10000610351562,-16.5
121557,0.7686136960983276,8.82799243927002,-3.7180566787719727,0.9222619533538818,1.6844619512557983,-1.067080020904541,96.30000305175781,-155.70001220703125,-17.700000762939453
121619,0.9869359135627747,9.367517471313477,-3.243131160736084,0.15243999660015106,0.3887220025062561,-0.3582339882850647,101.10000610351562,-158.10000610351562,-14.100000381469727
121639,0.9809544682502747,8.91053581237793,-3.0660808086395264,-0.25152599811553955,0.6250039935112,-0.6021379828453064,96.30000305175781,-155.70001220703125,-15.90000057220459
121699,0.92771977186203,8.981715202331543,-3.005070209503174,-0.48018598556518555,1.196653962135315,-0.510673999786377,98.70000457763672,-162.90000915527344,-16.5
121736,0.8505592942237854,8.92848014831543,-2.8334033489227295,-0.09908600151538849,0.6097599864006042,-0.3582339882850647,98.70000457763672,-160.5,-18.900001525878906
121757,0.9779637455940247,9.086389541625977,-2.855534553527832,-0.22103799879550934,0.6021379828453064,-0.114329993724823,105.9000015258789,-158.10000610351562,-18.30000114440918
121777,0.8972144722938538,9.00324821472168,-2.9081711769104004,-0.35061198472976685,0.6021379828453064,-0.3734779953956604,103.50000762939453,-167.70001220703125,-15.300000190734863
121839,0.8565407395362854,9.040332794189453,-2.875871419906616,0.007621999830007553,0.07621999830007553,-0.3125019967556,101.10000610351562,-160.5,-18.900001525878906
121859,0.8493630290031433,9.07203483581543,-2.828019857406616,-0.16768398880958557,0.3201240003108978,-0.46494197845458984,98.70000457763672,-167.70001220703125,-19.5
121899,0.6549665331840515,8.62582015991211,-3.017033100128174,-0.114329993724823,0.48018598556518555,-1.021347999572754,105.9000015258789,-160.5,-20.700000762939453
121994,0.5646469593048096,8.96915340423584,-3.082230806350708,-0.12195199728012085,0.3125019967556,-0.4192099869251251,96.30000305175781,-153.3000030517578,-17.100000381469727
122152,2.396160840988159,8.960780143737793,-4.592541694641113,-1.92836594581604,2.332331895828247,-1.6768399477005005,98.70000457763672,-158.10000610351562,-14.100000381469727
122172,2.7490651607513428,8.44458293914795,-5.310911655426025,-1.9740979671478271,2.8048958778381348,-2.1112940311431885,93.9000015258789,-158.10000610351562,-14.100000381469727
122215,3.186307668685913,8.393141746520996,-4.26655387878418,-2.736297845840454,-0.038109999150037766,-0.9603719711303711,113.10000610351562,-150.90000915527344,-20.100000381469727
122236,3.1318767070770264,8.37759017944336,-4.096681118011475,-3.239349842071533,1.3186060190200806,-1.981719970703125,115.50000762939453,-158.10000610351562,-20.100000381469727
122298,1.3577845096588135,7.897879600524902,-3.6020169258117676,-2.7591638565063477,4.093013763427734,-5.754610061645508,113.10000610351562,-162.90000915527344,-15.90000057220459
122408,-0.6471906900405884,7.7489423751831055,-3.588259696960449,-1.9512319564819336,7.4390716552734375,-7.218033790588379,141.90000915527344,-138.90000915527344,-19.5
122448,-1.0527316331863403,6.2493977546691895,-1.9086742401123047,-2.75154185295105,12.134223937988281,-8.628104209899902,165.90000915527344,-146.10000610351562,-16.5
122472,-2.051032304763794,5.756527900695801,-1.4780112504959106,-2.9344699382781982,14.085455894470215,-8.14029598236084,153.90000915527344,-143.70001220703125,-14.700000762939453
122512,-3.1372599601745605,8.546266555786133,-0.8511574268341064,-2.332331895828247,15.228755950927734,-7.126569747924805,182.70001220703125,-134.10000610351562,-11.700000762939453
122532,-4.032680034637451,10.5410737991333,-1.8680005073547363,-3.6280720233917236,17.995542526245117,-8.490907669067383,175.5,-124.50000762939453,-15.300000190734863
122552,-4.397547245025635,10.14570140838623,-2.4571714401245117,-3.254593849182129,16.844619750976562,-9.184510231018066,177.90000915527344,-124.50000762939453,-7.500000476837158
122572,-4.602710247039795,10.213889122009277,-1.85543954372406,-3.414655923843384,11.951295852661133,-6.981751918792725,182.70001220703125,-129.3000030517578,-13.500000953674316
122592,-4.969371795654297,12.300211906433105,-0.1381710320711136,-4.489357948303223,8.544261932373047,-4.878079891204834,187.5,-112.50000762939453,-9.300000190734863
122616,-5.115916728973389,12.534684181213379,0.00239257188513875,-4.199721813201904,6.295772075653076,-5.365887641906738,177.90000915527344,-119.70000457763672,-12.300000190734863
122636,-5.803183078765869,11.564496040344238,1.099984884262085,-2.903981924057007,3.6433160305023193,-3.5442299842834473,180.3000030517578,-134.10000610351562,-5.100000381469727
122656,-5.550168514251709,13.872730255126953,-0.4432239532470703,-1.9131219387054443,2.39330792427063,0.08384199440479279,180.3000030517578,-114.9000015258789,-6.900000095367432
122678,-3.7515528202056885,15.00082778930664,0.2266961932182312,-2.3551979064941406,-2.14178204536438,0.8231759667396545,192.3000030517578,-119.70000457763672,-9.300000190734863
122701,-5.212217807769775,12.415055274963379,0.41152235865592957,-0.571649968624115,-3.201239824295044,-0.07621999830007553,194.70001220703125,-134.10000610351562,-12.90000057220459
122721,-6.022103309631348,12.444962501525879,-1.140060544013977,1.1737879514694214,-5.678390026092529,2.3628199100494385,175.5,-110.10000610351562,-11.700000762939453
122741,-4.71875,13.46180534362793,-0.5724228024482727,1.196653962135315,-10.426896095275879,4.42838191986084,173.10000610351562,-112.50000762939453,-12.90000057220459
122761,-4.289881229400635,12.243987083435059,-0.12022674083709717,1.0365920066833496,-12.400993347167969,4.817103862762451,170.70001220703125,-119.70000457763672,-12.90000057220459
122781,-4.276722431182861,11.372491836547852,-0.8966163396835327,2.1494040489196777,-12.926911354064941,6.432967662811279,187.5,-122.10000610351562,-12.300000190734863
122801,-3.4267611503601074,11.862969398498535,-1.1903045177459717,2.3094658851623535,-14.50466537475586,7.812549591064453,185.10000610351562,-129.3000030517578,-14.700000762939453
122821,-3.5786893367767334,10.785714149475098,-1.2692593336105347,1.9436099529266357,-14.931497573852539,7.263765811920166,177.90000915527344,-134.10000610351562,-21.30000114440918
122841,-3.7180566787719727,9.927976608276367,-2.9608078002929688,3.49849796295166,-14.565641403198242,8.00309944152832,175.5,-143.70001220703125,-12.300000190734863
122861,-3.064286470413208,9.84184455871582,-2.8830490112304688,3.8262438774108887,-16.372055053710938,8.307979583740234,170.70001220703125,-143.70001220703125,-23.100000381469727
122881,-2.5474908351898193,8.849525451660156,-1.6562578678131104,3.5366079807281494,-17.53059959411621,8.285114288330078,165.90000915527344,-138.90000915527344,-16.5
122905,-1.637715458869934,7.8500285148620605,-1.8662060499191284,2.850627899169922,-13.643380165100098,9.001582145690918,149.10000610351562,-148.5,-14.100000381469727
122925,-1.0981905460357666,7.963675498962402,-1.8715893030166626,1.9054999351501465,-12.050381660461426,9.100667953491211,134.70001220703125,-148.5,-18.900001525878906
122945,-0.8762794733047485,7.436113357543945,-1.7944289445877075,1.0594580173492432,-10.32780933380127,7.934501647949219,132.3000030517578,-155.70001220703125,-16.5
122967,-0.8774757385253906,6.851129531860352,-2.006171464920044,0.7698220014572144,-8.529017448425293,6.730226039886475,144.3000030517578,-155.70001220703125,-18.30000114440918
123028,0.3810170590877533,7.489946365356445,-2.1718571186065674,1.0061039924621582,-6.943641662597656,3.506119966506958,127.50000762939453,-155.70001220703125,-23.100000381469727
123074,0.40673720836639404,6.403120517730713,-3.479397773742676,3.6280720233917236,-5.030519962310791,3.094532012939453,120.30000305175781,-158.10000610351562,-23.700000762939453
123113,0.8374001383781433,8.408095359802246,-3.2951695919036865,1.9207439422607422,-2.8811159133911133,2.698187828063965,122.70000457763672,-162.90000915527344,-18.30000114440918
123133,0.809287428855896,8.207119941711426,-3.3077306747436523,1.5701320171356201,-2.538125991821289,2.0503180027008057,103.50000762939453,-165.3000030517578,-17.700000762939453
123175,1.0168430805206299,7.848832130432129,-3.4261629581451416,1.471045970916748,-1.5472660064697266,0.46494197845458984,103.50000762939453,-160.5,-21.900001525878906
123196,1.0652925968170166,8.562417030334473,-3.41599440574646,1.5396440029144287,-1.4100699424743652,0.8231759667396545,105.9000015258789,-160.5,-22.5
123216,1.2842129468917847,9.103137969970703,-3.4650421142578125,0.9756159782409668,-0.457319974899292,0.3887220025062561,110.70000457763672,-165.3000030517578,-18.30000114440918
123236,1.9320018291473389,10.474081993103027,-4.041053771972656,1.3795819282531738,-0.04573199898004532,0.33536797761917114,103.50000762939453,-153.3000030517578,-18.900001525878906
123258,1.5749104022979736,9.77305793762207,-3.7928245067596436,0.685979962348938,-0.41158798336982727,-1.7225719690322876,105.9000015258789,-158.10000610351562,-18.900001525878906
123279,0.8858497142791748,8.217885971069336,-3.6402981281280518,0.7621999979019165,0.08384199440479279,-2.179892063140869,96.30000305175781,-162.90000915527344,-20.100000381469727
123299,0.8403908610343933,8.492433547973633,-3.794619083404541,0.9908599853515625,0.2439039945602417,-1.1737879514694214,108.30000305175781,-158.10000610351562,-20.100000381469727
123319,0.6824811100959778,8.650343894958496,-3.777272939682007,0.9527499675750732,0.6554920077323914,-0.9908599853515625,113.10000610351562,-167.70001220703125,-23.100000381469727
123340,0.40075579285621643,8.653334617614746,-3.752150774002075,0.8079319596290588,1.0289700031280518,-0.8079319596290588,105.9000015258789,-155.70001220703125,-15.300000190734863
123360,0.5580673813819885,9.072632789611816,-3.833498239517212,0.6936019659042358,1.371959924697876,-0.6936019659042358,108.30000305175781,-165.3000030517578,-24.900001525878906
123380,0.7823709845542908,9.211999893188477,-3.7120752334594727,0.3887220025062561,1.7683039903640747,-0.8231759667396545,101.10000610351562,-170.10000610351562,-9.90000057220459
123420,0.9014014601707458,9.219776153564453,-3.413601875305176,-0.05335399881005287,2.179892063140869,-0.28201398253440857,120.30000305175781,-165.3000030517578,-17.700000762939453
123440,1.0246188640594482,9.904051780700684,-3.0918009281158447,-0.28201398253440857,2.4695279598236084,0.19054999947547913,110.70000457763672,-155.70001220703125,-13.500000953674316
123460,0.9845433235168457,9.740757942199707,-3.0218183994293213,-0.6097599864006042,2.6295900344848633,-0.1600620001554489,115.50000762939453,-160.5,-14.700000762939453
123480,0.6130965352058411,8.650343894958496,-2.876469612121582,-0.7926880121231079,2.8048958778381348,-0.5182960033416748,117.9000015258789,-162.90000915527344,-17.100000381469727
123525,0.28770676255226135,8.671876907348633,-2.7059988975524902,0.1600620001554489,2.3551979064941406,0.2972579896450043,105.9000015258789,-167.70001220703125,-18.900001525878906
123548,0.27275320887565613,8.951210021972656,-3.1252970695495605,0.7240899801254272,1.8369019031524658,0.5335400104522705,108.30000305175781,-160.5,-24.30000114440918
123568,0.3840077817440033,8.938050270080566,-3.2509069442749023,0.8155539631843567,1.2728739976882935,0.49542999267578125,108.30000305175781,-165.3000030517578,-17.100000381469727
123588,0.7225567102432251,9.131848335266113,-3.21980357170105,0.5868939757347107,0.9070180058479309,0.685979962348938,117.9000015258789,-160.5,-12.300000190734863
123611,0.6603498458862305,9.16055965423584,-3.2975621223449707,-0.18292799592018127,1.2118979692459106,0.7469559907913208,105.9000015258789,-165.3000030517578,-18.900001525878906
123653,0.6854718327522278,9.18149471282959,-3.255094051361084,-0.8993960022926331,1.0061039924621582,0.5259180068969727,98.70000457763672,-162.90000915527344,-18.30000114440918
123673,0.7548564076423645,8.87763786315918,-3.022416353225708,-0.8384199738502502,0.7240899801254272,0.5640279650688171,101.10000610351562,-155.70001220703125,-14.100000381469727
123714,0.7387065887451172,9.049304962158203,-2.872880697250366,-0.5030519962310791,0.7621999979019165,0.6707359552383423,103.50000762939453,-162.90000915527344,-21.900001525878906
123734,0.7608378529548645,9.060669898986816,-2.786748170852661,-0.3582339882850647,0.5945159792900085,0.3277460038661957,101.10000610351562,-150.90000915527344,-16.5
123794,0.39357808232307434,8.890796661376953,-3.090604782104492,-0.23628199100494385,0.739333987236023,0.060975998640060425,91.5,-158.10000610351562,-17.700000762939453
123852,0.6633405685424805,9.3238525390625,-3.073258638381958,0.060975998640060425,0.114329993724823,0.2972579896450043,81.9000015258789,-165.3000030517578,-18.900001525878906
123893,0.6609479784965515,8.957789421081543,-3.043949604034424,-0.3125019967556,-0.04573199898004532,-0.015243999660015106,105.9000015258789,-160.5,-14.700000762939453
123913,0.6274519562721252,8.805262565612793,-2.9733686447143555,-0.33536797761917114,-0.1448179930448532,-0.04573199898004532,101.10000610351562,-155.70001220703125,-17.100000381469727
123953,0.6645368337631226,9.436902046203613,-3.2180092334747314,-0.2972579896450043,-0.8079319596290588,0.7012239694595337,103.50000762939453,-150.90000915527344,-17.700000762939453
123976,1.0910128355026245,9.146203994750977,-2.6390068531036377,-1.0442140102386475,-1.2728739976882935,0.3048799932003021,103.50000762939453,-165.3000030517578,-20.700000762939453
123996,0.9677953124046326,8.60368824005127,-2.6521658897399902,-0.9908599853515625,-0.4725639820098877,0.1448179930448532,101.10000610351562,-165.3000030517578,-18.30000114440918
124036,0.8487648963928223,9.201831817626953,-3.2712438106536865,0.39634400606155396,-0.3125019967556,0.4420759975910187,115.50000762939453,-160.5,-15.300000190734863
124091,1.530647873878479,8.853114128112793,-2.778374195098877,-0.3887220025062561,-0.16768398880958557,-0.1295740008354187,98.70000457763672,-160.5,-21.900001525878906
124131,1.6801836490631104,9.16654109954834,-2.995500087738037,0.007621999830007553,0.8765299916267395,0.25152599811553955,98.70000457763672,-150.90000915527344,-15.300000190734863
124151,2.003180742263794,9.441686630249023,-3.3274693489074707,-0.5487840175628662,1.1356779336929321,-0.4192099869251251,96.30000305175781,-162.90000915527344,-15.90000057220459
124194,1.8488599061965942,7.6831464767456055,-4.219898700714111,-1.5625100135803223,2.5228819847106934,-1.5625100135803223,98.70000457763672,-155.70001220703125,-17.100000381469727
124234,3.3155064582824707,8.503798484802246,-5.248704433441162,-1.3109840154647827,0.7698220014572144,-0.3582339882850647,96.30000305175781,-155.70001220703125,-25.500001907348633
124254,3.5577542781829834,8.088088989257812,-5.5041117668151855,-1.8902559280395508,2.324709892272949,-2.332331895828247,103.50000762939453,-155.70001220703125,-18.30000114440918
