time,sensor_accX,sensor_accY,sensor_accZ,sensor_gyroX,sensor_gyroY,sensor_gyroZ,sensor_magX,sensor_magY,sensor_magZ,label_Boxing_slip_left,label_Boxing_slip_right,label_Boxing_pullback,label_Boxing_roll_left,label_Boxing_roll_right,label_Boxing_recording_cut
311281,0.05801987,8.815431,-3.4620516,-0.510674,0.69360197,-0.083841994,129.90001,-153.3,-14.700001,,,,,,
311301,-0.07536601,8.708364,-3.4728181,-0.213416,0.72409,0.198172,129.90001,-155.70001,-6.3,,,,,,
311363,0.1794429,9.038538,-3.371732,-0.17530599,0.91463995,0.33536798,122.700005,-162.90001,-8.1,,,,,,
311384,0.18063918,8.875844,-3.3759189,-0.26677,0.975616,-0.053354,122.700005,-162.90001,-11.1,,,,,,
311404,0.19200389,8.705971,-3.3561802,-0.510674,0.72409,0.068598,113.100006,-153.3,-20.1,,,,,,
311424,0.17884475,9.093568,-3.3531895,-0.55640596,0.853664,0.15244,127.50001,-150.90001,-6.9,,,,,,
311444,0.08314187,9.164148,-3.6085966,0.03811,1.082324,-0.3811,113.100006,-141.3,-12.900001,,,,,,
311464,0.093310304,9.087586,-3.4710236,0.068598,0.830798,-0.60976,117.9,-155.70001,-17.1,,,,,,
311484,0.13398403,8.852516,-3.4656403,-0.099086,0.83842,-0.640248,113.100006,-150.90001,-12.900001,,,,,,
311504,0.14355431,8.779543,-3.5457916,-0.091464,0.861286,-0.41921,117.9,-148.5,-8.700001,,,,,,
311524,0.20576118,9.003846,-3.5075104,-0.091464,0.69360197,-0.137196,125.100006,-153.3,-11.1,,,,,,
311564,0.2781365,8.625221,-3.3143103,-0.47256398,0.640248,-0.182928,120.3,-150.90001,-14.1,,,,,,
311600,0.39656878,8.794497,-3.2162147,-0.41921,0.754578,-0.373478,117.9,-150.90001,-14.1,,,,,,
311620,0.44860724,8.911732,-3.070268,-0.327746,0.785066,-0.586894,120.3,-150.90001,-11.700001,,,,,,
311660,0.117236026,8.729897,-3.0762494,-0.160062,1.013726,-0.81555396,125.100006,-150.90001,-6.9,,,,,,
311680,-0.25540704,9.057081,-3.2365515,0.182928,0.99086,-0.7622,125.100006,-155.70001,-14.700001,,,,,,
311700,-0.65317214,9.3459835,-3.4530795,0.259148,0.57164997,-0.853664,122.700005,-160.5,-14.1,,,,,,
311720,-0.8481667,9.807152,-3.2437294,0.41921,-0.23628199,-0.731712,117.9,-155.70001,-11.700001,,,,,,
311740,-1.1233125,10.576364,-3.0768476,-0.144818,-0.586894,-0.87653,115.50001,-148.5,-12.900001,,,,,,
311763,-1.7310258,10.64515,-3.2138221,-0.861286,-0.34298998,-1.768304,115.50001,-155.70001,-2.1000001,,x,,,,
311783,-2.2765322,10.328135,-3.5075104,-1.440558,-0.792688,-1.8978779,127.50001,-148.5,-10.5,,x,,,,
311803,-3.0421553,9.098352,-3.359171,-1.98172,-2.187514,-2.370442,125.100006,-146.1,-11.700001,,x,,,,
311823,-3.2251868,8.667689,-3.643887,-1.798792,-3.6661818,-1.326228,137.1,-153.3,-18.300001,,x,,,,
311843,-2.3339539,9.565502,-3.6450832,-1.074702,-6.486322,-0.07622,134.70001,-146.1,-6.3,,x,,,,
311865,-2.095893,8.733485,-3.0020795,-1.21952,-8.551884,-0.45731997,132.3,-148.5,-14.700001,,x,,,,
311885,-1.0694796,9.15398,-2.9990888,-0.67073596,-10.160126,1.158544,134.70001,-136.5,-18.900002,,x,,,,
311905,-0.77698773,8.862684,-2.827422,-0.083841994,-11.516842,0.68597996,137.1,-153.3,-17.7,,x,,,,
311928,-0.82842803,7.2142024,-2.3530943,1.661596,-14.2836275,0.99086,134.70001,-153.3,-20.7,,x,,,,
311948,-0.7596416,6.4976273,-1.8183546,1.493912,-15.083938,0.907018,139.5,-158.1,-13.500001,,x,,,,
311970,-0.32419348,5.621946,-1.506124,2.149404,-15.16778,0.289636,141.90001,-150.90001,-15.3,,x,,,,
311990,-0.28770676,5.350389,-1.2321745,2.926848,-15.076316,0.16768399,137.1,-146.1,-24.300001,,x,,,,
312010,-0.13757288,5.7810516,-2.6192682,2.40093,-12.827826,1.006104,144.3,-148.5,-18.900002,,x,,,,
312031,0.46535522,5.3485947,-2.7227468,3.7957559,-12.820204,1.288118,153.90001,-148.5,-20.1,,x,,,,
312051,0.8972145,6.0735435,-3.176139,2.926848,-11.250072,2.7286758,139.5,-148.5,-25.500002,,x,,,,
312071,1.2549039,7.1507993,-4.024306,2.85825,-8.292736,3.155508,132.3,-150.90001,-24.300001,,x,,,,
312091,1.5790974,8.888405,-4.7552366,2.568614,-5.3354,3.62045,139.5,-162.90001,-21.900002,,x,,,,
312114,1.4140099,10.985494,-5.900082,1.280496,-1.3872039,3.567096,137.1,-148.5,-24.900002,,x,,,,
312176,1.2166228,11.671564,-8.4714985,0.46494198,1.71495,0.015244,132.3,-150.90001,-15.900001,,x,,,,
312220,0.4133168,11.401203,-8.238223,-0.11432999,6.760714,-1.8597679,146.70001,-165.3,-17.1,,x,,,,
312260,-1.5115073,8.848329,-7.722026,-1.1128119,10.243968,-4.710396,137.1,-160.5,-11.700001,,x,,,,
312281,-2.171857,8.421255,-7.2871757,-0.80030996,10.007686,-3.551852,134.70001,-148.5,-24.900002,,x,,,,
312322,-2.2681582,8.019901,-5.1559925,-1.798792,7.6524878,-2.995446,132.3,-143.70001,-21.300001,,x,,,,
312345,-1.6885576,7.0467224,-3.280216,-3.147886,6.74547,-3.064044,141.90001,-153.3,-14.700001,,x,,,,
312385,-0.6196761,6.406709,-1.8560376,-2.987824,8.0945635,-3.064044,151.5,-148.5,-9.3,,x,,,,
312405,-0.44142953,6.3917556,-1.5581625,-2.644834,8.932983,-3.536608,137.1,-143.70001,-15.900001,,x,,,,
312448,-0.72136045,5.9228115,-1.8195509,-0.998482,8.7653,-3.8262439,158.70001,-143.70001,-11.700001,,x,,,,
312491,-0.736314,7.5790696,-1.8440747,-0.34298998,8.086942,-2.522882,153.90001,-141.3,-20.7,,x,,,,
312560,-1.7818679,8.774159,-2.4733212,-1.44818,6.425346,-5.137228,151.5,-126.9,-5.1000004,,x,,,,
312581,-2.310028,9.42793,-2.9434617,-0.92226195,6.6158957,-3.521364,153.90001,-146.1,-12.900001,,x,,,,
312621,-3.4776032,9.486547,-4.096083,0.548784,4.214966,-2.568614,163.5,-131.70001,-9.3,,x,,,,
312641,-3.4249666,9.603784,-4.2677503,1.1204339,2.2713559,-1.189032,163.5,-136.5,-3.9,,x,,,,
312661,-3.4339387,9.786816,-4.593738,1.196654,1.272874,-0.510674,156.3,-141.3,-9.900001,,x,,,,
312681,-3.0780437,9.776647,-4.952026,1.463424,0.03811,0.17530599,151.5,-126.9,-11.1,,x,,,,
312701,-2.238251,8.797487,-4.2019544,0.41158798,-1.8597679,1.532022,161.1,-138.90001,-6.3,,x,,,,
312721,-1.7848586,8.899171,-3.8927145,0.022866,-2.118916,2.2484899,158.70001,-141.3,-9.900001,,x,,,,
312742,-0.92652345,8.663503,-3.359769,-1.25763,-1.920744,2.500016,165.90001,-150.90001,-9.900001,,x,,,,
312762,-0.71418273,8.289663,-3.1737466,-1.310984,-2.080806,1.974098,146.70001,-141.3,-5.7000003,,x,,,,
312784,-0.19499461,8.04263,-2.5803888,-0.663114,-2.987824,1.699706,158.70001,-134.1,-6.3,,,,,,
312808,0.15611531,7.9008703,-2.2561953,-0.56402797,-2.942092,1.1128119,170.70001,-143.70001,-10.5,,,,,,
312828,-0.21592961,7.660417,-2.1455388,0.068598,-2.454284,0.64787,134.70001,-124.50001,-16.5,,,,,,
312848,-0.7943339,8.566006,-2.7472706,0.60976,-2.035074,0.251526,139.5,-138.90001,-6.3,,,,,,
312928,-3.7515528,10.247984,-3.4279573,-0.40396598,-1.036592,1.06708,156.3,-138.90001,-8.700001,,,,,,
312984,-4.556653,10.825789,-4.535718,0.594516,-3.993928,4.207344,149.1,-138.90001,-10.5,,x,,,,
313005,-4.217506,10.228843,-4.5578494,-0.510674,-4.253076,5.175338,139.5,-134.1,-12.3,,x,,,,
313045,-2.4362364,8.7950945,-4.838977,0.19055,-5.655524,5.5488157,132.3,-150.90001,-8.700001,,x,,,,
313065,-1.7752883,8.507387,-5.041149,0.41921,-7.286632,5.495462,129.90001,-148.5,-11.700001,,x,,,,
313085,-1.276437,7.1729307,-4.9251094,1.074702,-9.664696,4.123502,129.90001,-153.3,-14.700001,,x,,,,
313105,-0.82902616,5.6889377,-3.9626973,2.065562,-12.88118,4.275942,137.1,-143.70001,-15.900001,,x,,,,
313127,0.31522134,5.848044,-2.765215,2.530504,-14.908631,5.800342,132.3,-150.90001,-15.3,,x,,,,
313147,0.91934574,5.739182,-1.8476636,1.974098,-14.420824,5.3354,120.3,-153.3,-14.700001,,x,,,,
313169,1.3033535,5.2056384,-1.6550616,1.958854,-12.972644,4.64942,129.90001,-153.3,-11.1,,x,,,,
313189,2.0976875,5.143431,-1.4457116,2.164648,-11.905563,5.03052,120.3,-158.1,-17.1,,x,,,,
313209,2.6073053,5.0967765,-2.2819154,1.730194,-9.336949,4.847592,125.100006,-146.1,-12.3,,x,,,,
313232,2.765813,6.4707108,-3.4961457,3.2164838,-7.599134,5.312534,113.100006,-158.1,-12.900001,,x,,,,
313252,3.4303498,8.568996,-4.1229997,2.355198,-5.121984,5.0228977,110.700005,-143.70001,-24.900002,,x,,,,
313272,2.6766899,9.307703,-5.6877413,1.3490939,-0.449698,1.9131219,113.100006,-165.3,-14.1,,x,,,,
313295,2.0845282,10.219871,-8.33931,3.35368,4.908568,1.509156,98.700005,-160.5,-9.3,,x,,,,
313315,2.5456965,11.505878,-10.901753,4.0777698,6.349126,2.957336,91.5,-141.3,-18.300001,,x,,,,
313336,3.785647,12.9414215,-11.382661,0.617382,1.56251,2.454284,103.50001,-162.90001,-13.500001,,x,,,,
313356,3.4698274,12.062749,-9.046314,-1.493912,-1.158544,-0.983238,84.3,-162.90001,-11.700001,,x,,,,
313376,2.844768,10.169028,-8.104837,-1.996964,3.8186219,-2.7439198,98.700005,-153.3,-14.1,,x,,,,
313396,2.1975772,8.971546,-8.1688385,-3.2469718,7.2409,-3.025934,108.3,-155.70001,-9.3,,x,,,,
313418,1.0718722,7.7662883,-6.894196,-3.094532,8.018344,-3.932952,101.100006,-158.1,-13.500001,,x,,,,
313439,0.6406111,7.112518,-5.7553315,-2.6677,8.87963,-3.8186219,108.3,-153.3,-12.900001,,x,,,,
313459,0.48629025,7.165753,-4.9209223,-2.7591639,10.434518,-3.8109999,108.3,-158.1,-12.900001,,x,,,,
313522,-0.64898515,6.1901817,-4.3431163,-0.792688,10.015307,-4.641798,120.3,-150.90001,-9.3,,x,,,,
313542,-0.66992015,6.2990437,-3.6456814,-0.579272,8.475664,-4.550334,120.3,-150.90001,-5.7000003,,x,,,,
313562,-0.78655803,6.370821,-3.2347572,-0.35061198,7.400962,-4.695152,120.3,-146.1,-9.3,,x,,,,
313582,-1.108957,5.8384733,-2.9338913,-0.045732,6.204308,-4.908568,129.90001,-153.3,-10.5,,x,,,,
313606,-1.4606651,6.0843105,-2.8435717,0.853664,4.740884,-3.841488,117.9,-143.70001,-11.1,,x,,,,
313626,-0.95044917,8.640175,-2.2358584,1.8750119,1.501534,-2.05794,115.50001,-158.1,-16.5,,x,,,,
313646,-0.20157418,11.020784,-1.2052581,0.57164997,0.82317597,-1.509156,122.700005,-150.90001,-7.5000005,,x,,,,
313666,-0.71418273,10.768368,-0.90798104,-0.83842,2.881116,-3.7347798,132.3,-146.1,-6.3,,x,,,,
313707,-1.4899741,11.468793,-3.9405658,0.16768399,5.076252,-1.432936,141.90001,-143.70001,-10.5,,x,,,,
313731,-2.472723,10.718722,-4.706787,-0.92226195,4.260698,-3.46801,141.90001,-143.70001,-5.1000004,,x,,,,
313751,-2.9632003,8.845338,-4.346107,0.060976,1.6006199,-2.7667859,129.90001,-136.5,-11.700001,,x,,,,
313773,-2.1287909,10.483652,-3.9728656,-0.46494198,0.785066,-0.70122397,141.90001,-146.1,-12.900001,,,,,,
313793,-2.1144354,10.161851,-4.325172,-1.5929979,1.33385,-1.79117,129.90001,-150.90001,-6.9,,,,,,
313813,-2.1371648,9.080408,-4.4244637,-1.288118,0.23628199,-1.051836,153.90001,-150.90001,-5.7000003,,,,,,
313833,-1.9625071,8.7950945,-4.2934704,-1.29574,-0.137196,-0.64787,134.70001,-148.5,-4.5,,,,,,
313854,-1.2967739,8.631203,-3.920229,-1.097568,-0.53354,0.35061198,144.3,-136.5,-7.5000005,,,,,,
313874,-0.6304427,8.398525,-3.5529692,-1.211898,-0.091464,0.861286,139.5,-148.5,-10.5,,,,,,
313894,-0.4300648,8.446377,-3.4704256,-1.074702,0.0,0.891774,127.50001,-143.70001,-6.3,,,,,,
313914,-0.16568561,8.237027,-3.3298619,-1.074702,0.144818,0.365856,134.70001,-146.1,-16.5,,,,,,
313934,0.026318291,8.11381,-3.313114,-0.754578,0.365856,-0.053354,132.3,-141.3,-8.700001,,,,,,
313956,0.3714468,8.302224,-2.9685836,-0.55640596,0.3811,-0.40396598,149.1,-146.1,-11.1,,,,,,
313976,0.41032606,8.4816675,-3.1318767,-0.716468,1.021348,-0.632626,139.5,-138.90001,-17.7,,,,,,
313996,0.26796806,8.436807,-3.3478062,-0.426832,1.18141,-1.006104,141.90001,-150.90001,-6.9,,,,,,
314016,-0.19439647,8.405704,-3.4692292,-0.15244,1.150922,-0.99086,139.5,-141.3,-7.5000005,,,,,,
314037,-0.3451285,8.534902,-3.5326324,-0.091464,0.746956,-0.94512796,146.70001,-136.5,-6.3,,,,,,
314057,-0.31402507,8.442788,-3.33046,-0.030488,0.541162,-0.91463995,146.70001,-143.70001,-7.5000005,,,,,,
314077,-0.56703955,8.7191305,-3.518277,-0.198172,0.64787,-0.853664,134.70001,-138.90001,-7.5000005,,,,,,
314097,-0.9396826,8.71255,-3.439322,-0.213416,0.34298998,-0.80793196,141.90001,-131.70001,-8.1,,,,,,
314117,-1.192697,8.812441,-3.0529218,-0.16768399,-0.007622,-0.56402797,139.5,-150.90001,-15.3,,,,,,
314137,-1.9020946,8.977528,-2.7604299,-0.289636,0.182928,-0.060976,137.1,-143.70001,-8.1,,,,,,
314157,-2.7048025,10.218675,-3.0421553,-0.373478,0.40396598,0.72409,141.90001,-134.1,-12.900001,,,,,,
314177,-3.8927145,10.316172,-3.3346472,-1.272874,0.091464,0.17530599,141.90001,-141.3,-16.5,,,,,,
314197,-4.8341913,9.284973,-3.6068022,-1.730194,-0.67073596,0.746956,151.5,-143.70001,-15.3,,x,,,,
314217,-4.507007,9.944127,-4.3233776,-1.9054999,-2.09605,3.399412,144.3,-158.1,-11.700001,,x,,,,
314237,-4.438819,10.270713,-4.899987,-1.989342,-3.7347798,4.76375,139.5,-143.70001,-15.900001,,x,,,,
314257,-3.6971216,9.863378,-5.2146106,-1.814036,-6.112844,5.929916,132.3,-150.90001,-14.1,,x,,,,
314277,-2.7879443,10.477073,-5.609385,-1.021348,-7.911636,7.644866,125.100006,-160.5,-8.700001,,x,,,,
314297,-1.7124833,10.092466,-5.954513,-0.33536798,-10.243968,7.27901,129.90001,-158.1,-10.5,,x,,,,
314317,-0.6513777,8.755617,-4.8353877,-0.045732,-14.085456,7.0960817,127.50001,-143.70001,-14.1,,x,,,,
314397,1.2519132,5.630918,-2.363263,1.3414719,-14.169297,5.213448,117.9,-162.90001,-18.300001,,x,,,,
314423,1.5611532,5.048925,-1.6496783,2.179892,-12.591544,4.5884438,98.700005,-153.3,-9.900001,,x,,,,
314443,2.1826236,5.304332,-1.640108,2.012208,-10.266833,4.03966,105.9,-158.1,-14.1,,x,,,,
314463,1.8853467,4.2372446,-2.8017018,1.8292799,-7.4543157,2.7972739,103.50001,-150.90001,-18.300001,,x,,,,
314526,3.7850487,10.887997,-5.1404405,1.059458,0.23628199,2.873494,91.5,-158.1,-21.900002,,x,,,,
314546,3.246122,11.831268,-7.146612,2.36282,4.5731997,0.548784,89.100006,-160.5,-15.900001,,x,,,,
314569,3.2491126,12.187163,-9.249084,2.7515419,5.510706,-0.792688,65.100006,-158.1,-14.700001,,x,,,,
314609,3.824526,11.435896,-7.8057656,0.030488,2.576236,-2.7058098,93.9,-162.90001,-15.3,,x,,,,
314629,3.7252345,11.09316,-8.001957,-0.449698,6.0137577,-3.559474,86.700005,-165.3,-14.700001,,x,,,,
314649,2.9733686,10.072129,-7.443889,-1.6463519,7.682976,-5.3811316,86.700005,-158.1,-19.5,,x,,,,
314669,1.4020472,7.9929843,-6.647761,-2.423796,9.466524,-7.218034,101.100006,-158.1,-15.3,,x,,,,
314689,0.19678904,6.56761,-6.3905597,-2.2713559,11.1890955,-6.532054,101.100006,-162.90001,-14.1,,x,,,,
314709,0.22250919,6.7805486,-5.6680026,-2.2713559,10.70891,-4.26832,103.50001,-158.1,-12.3,,x,,,,
314731,0.29727706,6.5335155,-4.171449,-2.469528,10.945191,-4.1921,105.9,-162.90001,-12.900001,,x,,,,
314751,0.4874865,6.5945263,-3.8807516,-1.974098,11.372024,-3.940574,103.50001,-153.3,-14.1,,x,,,,
314773,0.2213129,6.642976,-3.6127834,-1.669218,11.01379,-4.45887,122.700005,-155.70001,-11.700001,,x,,,,
314793,0.19738717,6.642378,-3.20485,-1.432936,10.36592,-4.9924097,110.700005,-162.90001,-11.1,,x,,,,
314813,-0.25122005,6.2278647,-3.4082186,-1.6082419,10.045795,-6.036624,117.9,-150.90001,-8.700001,,x,,,,
314833,-0.78715616,5.449681,-3.4716218,-0.94512796,8.53664,-5.8613176,113.100006,-150.90001,-15.900001,,x,,,,
314853,-0.83799833,6.1596766,-3.2568884,0.03811,6.280528,-4.329296,122.700005,-160.5,-9.3,,x,,,,
314873,-1.0479465,7.606584,-2.8788621,0.19055,4.260698,-3.3003259,117.9,-155.70001,-6.3,,x,,,,
314893,-0.086132586,9.749132,-2.510406,-1.272874,3.071666,-3.01069,115.50001,-150.90001,-15.3,,x,,,,
314913,-0.31761393,9.575072,-1.7716994,-2.416174,3.932952,-6.272906,120.3,-148.5,-12.900001,,x,,,,
314933,-1.7938308,8.178409,-2.920732,-1.783548,5.5335717,-6.6158957,125.100006,-143.70001,-12.3,,x,,,,
314953,-2.0821357,9.941734,-3.2192054,-0.625004,4.0320377,-3.330814,127.50001,-146.1,-13.500001,,x,,,,
314973,-2.3536925,11.081795,-3.2353554,-1.5244,3.1783738,-3.35368,146.70001,-150.90001,-11.700001,,x,,,,
314993,-2.6228569,9.957884,-3.4692292,-0.899396,2.568614,-4.23021,125.100006,-138.90001,-16.5,,x,,,,
315013,-2.1234076,10.749228,-3.564334,-0.243904,1.6539739,-2.7286758,144.3,-141.3,-9.3,,x,,,,
315033,-2.1826236,10.395126,-3.9417622,-0.899396,1.554888,-2.141782,139.5,-138.90001,-11.700001,,x,,,,
315053,-2.6031182,9.1192875,-4.263563,-0.70122397,1.318606,-1.707328,149.1,-141.3,-12.900001,,x,,,,
315073,-2.0552192,9.47279,-4.2300673,-0.129574,-0.792688,0.26677,144.3,-141.3,-4.5,,x,,,,
315094,-1.6448932,9.068445,-4.020717,-0.586894,-1.3490939,0.46494198,139.5,-153.3,-8.1,,,,,,
315114,-1.1932952,8.747841,-3.8466575,-0.594516,-1.996964,1.006104,141.90001,-141.3,-11.700001,,,,,,
315134,-0.7524639,8.515163,-3.465042,-0.7622,-2.2027578,1.326228,141.90001,-148.5,-7.5000005,,,,,,
315154,-0.33854893,8.602492,-3.1988685,-0.899396,-1.8521459,1.577754,137.1,-143.70001,-6.9,,,,,,
315177,0.006579573,8.94762,-3.0295942,-1.036592,-1.234764,1.242386,129.90001,-138.90001,-15.3,,,,,,
315198,0.15133017,8.601295,-3.0050702,-1.29574,-0.426832,0.3811,149.1,-141.3,-19.5,,,,,,
315221,-0.062206868,8.199344,-3.0595014,-0.92226195,0.365856,-0.045732,146.70001,-143.70001,-9.3,,,,,,
315242,-0.066992015,8.381179,-3.1342692,-0.259148,0.830798,0.022866,146.70001,-143.70001,-12.900001,,,,,,
315305,-0.30804363,8.664101,-3.451883,0.655492,1.768304,-0.99086,137.1,-143.70001,-9.900001,,,,,,
315325,-0.33077306,8.5791645,-3.5003326,0.716468,1.722572,-0.94512796,144.3,-155.70001,-14.1,,,,,,
315345,-0.49466425,8.830983,-3.7389917,0.67835796,1.8673899,-0.67073596,139.5,-148.5,-12.900001,,,,,,
315387,-0.4689441,9.100745,-3.5164826,-0.137196,1.250008,-0.960372,139.5,-141.3,-10.5,,,,,,
315407,-0.38400778,9.100147,-3.350797,-0.23628199,1.1280559,-0.868908,134.70001,-148.5,-11.700001,,,,,,
315427,-0.46176636,9.08639,-3.2323647,-0.56402797,1.211898,-0.87653,139.5,-138.90001,-11.1,,,,,,
315447,-0.5167955,8.701784,-3.258683,-0.602138,1.1204339,-1.021348,144.3,-146.1,-1.5,,,,,,
315467,-0.5490953,8.350674,-3.1103435,-0.221038,0.853664,-0.68597996,134.70001,-141.3,-9.3,,,,,,
315487,-0.4551868,8.799281,-2.9637985,0.068598,0.594516,0.030488,146.70001,-141.3,-14.1,,,,,,
315507,-0.73033255,8.990687,-3.091203,0.22865999,0.480186,-0.068598,153.90001,-141.3,-15.3,,,,,,
315527,-1.1029756,9.101343,-3.20485,0.099086,0.045732,0.030488,153.90001,-138.90001,-11.700001,,,,,,
315547,-1.5617512,9.322657,-3.1019695,0.053354,-0.510674,0.35061198,134.70001,-141.3,-9.900001,,x,,,,
315567,-1.878767,9.924388,-3.0600994,-0.426832,-1.036592,0.83842,141.90001,-141.3,-2.7,,x,,,,
315587,-2.8064868,9.974632,-3.267057,-1.089946,-0.891774,0.92988396,137.1,-136.5,-9.900001,,x,,,,
315607,-3.8412743,9.576867,-4.0392594,-0.907018,-1.3567159,1.326228,141.90001,-143.70001,-10.5,,x,,,,
315627,-4.216908,10.794686,-4.7343016,0.297258,-3.574718,3.08691,144.3,-150.90001,-8.1,,x,,,,
315647,-4.511194,10.33292,-4.617664,-0.22865999,-6.0747337,3.399412,127.50001,-146.1,-19.5,,x,,,,
315689,-3.5822783,9.624121,-4.6092896,-1.006104,-8.902495,5.929916,127.50001,-141.3,-13.500001,,x,,,,
315710,-2.3692443,8.251382,-4.794714,-0.259148,-10.78513,5.914672,132.3,-148.5,-17.1,,x,,,,
315730,-0.8924293,7.8464394,-4.317396,1.417692,-13.323256,6.8979096,113.100006,-138.90001,-15.900001,,x,,,,
315751,0.0723753,7.3368216,-3.5912504,1.554888,-14.352225,6.66925,110.700005,-160.5,-23.1,,x,,,,
315771,0.656761,6.6674995,-2.832207,1.699706,-14.458934,5.52595,120.3,-160.5,-20.1,,x,,,,
315791,1.0485446,6.2990437,-2.6090996,1.8750119,-13.330877,5.0838737,122.700005,-160.5,-9.3,,x,,,,
315851,1.9415721,4.627832,-2.1479313,2.32471,-10.876594,4.9009457,101.100006,-153.3,-17.1,,x,,,,
315911,3.9770527,8.139529,-4.0153337,2.6677,-2.2180018,6.0976,108.3,-162.90001,-22.5,,x,,,,
315931,3.221,9.744946,-6.1184044,3.35368,1.958854,4.8857017,89.100006,-148.5,-14.700001,,x,,,,
315951,3.530838,11.392231,-7.920609,3.8033779,3.589962,3.490876,79.5,-155.70001,-26.1,,x,,,,
315971,3.481192,12.462309,-8.615651,2.675322,1.951232,1.158544,91.5,-155.70001,-9.900001,,x,,,,
315991,3.225785,12.843326,-8.707766,1.5244,1.745438,-1.044214,79.5,-150.90001,-6.3,,x,,,,
316011,3.6050076,12.175798,-8.357254,-0.198172,2.423796,-3.109776,81.9,-160.5,-7.5000005,,x,,,,
316033,3.459061,10.667282,-7.3553643,-1.98172,4.336918,-4.34454,74.700005,-170.1,-14.1,,x,,,,
316053,2.355487,9.133643,-6.9641786,-3.140264,7.301876,-4.9543,84.3,-148.5,-13.500001,,x,,,,
316073,1.2818204,8.21669,-6.8224187,-2.881116,8.61286,-5.076252,89.100006,-158.1,-16.5,,x,,,,
316093,0.4581775,7.304522,-5.9670744,-2.103672,8.109808,-5.403998,89.100006,-158.1,-14.700001,,x,,,,
316113,0.14355431,6.8038764,-5.1942735,-1.570132,7.911636,-5.251558,98.700005,-160.5,-18.300001,,x,,,,
316135,-0.20576118,5.8797455,-4.250404,-0.830798,8.1250515,-4.870458,115.50001,-167.70001,-12.3,,x,,,,
316155,-0.10228245,6.3768024,-4.205543,-0.967994,8.788166,-4.283564,110.700005,-158.1,-9.900001,,x,,,,
316175,-0.15611531,6.4384108,-4.0883074,-1.3719599,8.833898,-4.367406,113.100006,-160.5,-17.7,,x,,,,
316195,-0.23447205,6.6112742,-3.911855,-1.585376,8.254626,-4.4969797,110.700005,-158.1,-13.500001,,x,,,,
316215,-0.09689916,6.681257,-3.732412,-1.547266,7.5457797,-4.367406,101.100006,-143.70001,-18.300001,,x,,,,
316279,-0.1698726,6.2996416,-2.3967588,-2.050318,5.251558,-4.443626,120.3,-143.70001,-8.1,,x,,,,
316299,-0.3271842,7.1196957,-2.3997495,-1.699706,5.304912,-3.7424018,115.50001,-143.70001,-14.1,,x,,,,
316342,-0.43185923,10.862874,-2.3058412,-1.3414719,4.0625257,-3.528986,134.70001,-153.3,-10.5,,x,,,,
316363,-1.8614209,9.563109,-3.1910927,-1.440558,5.731744,-5.0381417,132.3,-146.1,-14.1,,x,,,,
316383,-2.3201966,9.849022,-3.5667264,-0.28201398,5.236314,-3.612828,134.70001,-141.3,-16.5,,x,,,,
316403,-1.6179768,11.529804,-3.9626973,0.434454,4.80186,-2.301844,134.70001,-146.1,-14.1,,x,,,,
316423,-2.0408638,11.661395,-4.3897715,-0.121952,4.214966,-2.614346,127.50001,-153.3,-8.1,,x,,,,
316443,-2.3357482,10.415463,-4.413099,0.053354,2.881116,-3.01069,134.70001,-148.5,-12.3,,x,,,,
316463,-2.2950745,9.627709,-3.975258,0.053354,1.539644,-2.461906,139.5,-141.3,-11.700001,,x,,,,
316485,-1.9427683,9.271216,-3.9806414,-0.34298998,1.013726,-1.6234859,137.1,-131.70001,-5.1000004,,x,,,,
316505,-1.7627274,8.822011,-3.9357808,-0.46494198,0.3811,-0.602138,141.90001,-141.3,-8.700001,,x,,,,
316525,-1.3936732,8.520547,-3.8616111,-0.602138,-0.26677,0.510674,141.90001,-131.70001,-7.5000005,,x,,,,
316545,-0.99710435,8.213699,-3.3783114,-0.69360197,-0.68597996,1.158544,134.70001,-146.1,-11.1,,x,,,,
316565,-0.38640037,8.213699,-3.1683633,-0.94512796,-0.396344,1.265252,141.90001,-153.3,-14.700001,,x,,,,
316588,-0.07058087,7.9929843,-3.2180092,-1.074702,-0.045732,0.91463995,134.70001,-146.1,-5.7000003,,,,,,
316608,0.12979703,8.334524,-3.3573766,-0.746956,0.11432999,1.21952,141.90001,-143.70001,-9.3,,,,,,
316629,0.18841504,8.805263,-3.505118,-0.510674,-0.083841994,1.06708,144.3,-148.5,-12.900001,,,,,,
316649,0.19559275,8.789113,-3.359171,-0.40396598,-0.41158798,0.655492,137.1,-146.1,-5.7000003,,,,,,
316669,0.31761393,8.840553,-3.301151,-0.56402797,-0.297258,0.15244,129.90001,-141.3,-11.1,,,,,,
316689,0.21772404,8.775953,-3.3310583,-0.60976,-0.15244,0.0,132.3,-158.1,-13.500001,,,,,,
316709,0.011962859,8.658718,-3.4943511,-0.41158798,0.091464,-0.121952,137.1,-141.3,-10.5,,,,,,
316749,0.004785144,8.801076,-3.371732,-0.41921,0.47256398,-0.57164997,134.70001,-141.3,-9.3,,,,,,
316771,-0.12261931,8.524136,-3.3663487,-0.56402797,0.861286,-0.746956,141.90001,-136.5,-9.900001,,,,,,
316791,-0.32359535,8.396731,-3.5709136,-0.35061198,1.089946,-0.7622,137.1,-150.90001,-11.1,,,,,,
316811,-0.4360462,8.487649,-3.711477,0.129574,0.777444,-0.625004,134.70001,-153.3,-8.1,,,,,,
316831,-0.4342518,8.654531,-3.6851587,0.388722,0.442076,-0.548784,129.90001,-143.70001,-11.1,,,,,,
316851,-0.35529694,8.814235,-3.6833644,0.33536798,0.33536798,-0.579272,137.1,-143.70001,-0.3,,,,,,
316871,-0.3397452,8.941041,-3.7754784,-0.007622,0.60976,-0.7622,144.3,-134.1,-11.1,,,,,,
316891,-0.3564932,8.969153,-3.9022849,-0.07622,0.754578,-0.80030996,127.50001,-148.5,-8.700001,,,,,,
316911,-0.46236452,8.778346,-3.974062,-0.030488,0.708846,-0.746956,132.3,-138.90001,-11.1,,,,,,
316931,-0.51559925,8.740664,-3.8209374,0.053354,0.53354,-0.47256398,149.1,-141.3,-4.5,,,,,,
316955,-0.4731311,8.777748,-3.6426907,-0.11432999,0.53354,-0.41921,144.3,-131.70001,-12.3,,,,,,
316975,-0.38400778,8.923695,-3.4542756,-0.16768399,0.55640596,-0.541162,132.3,-136.5,-14.700001,,,,,,
316995,-0.43185923,8.628212,-3.2239907,-0.358234,0.67073596,-0.87653,146.70001,-134.1,-5.1000004,,,,,,
317015,-0.67410713,8.422451,-3.1366618,-0.129574,0.792688,-0.777444,151.5,-148.5,-11.700001,,x,,,,
317035,-1.0646945,8.1150055,-2.9835372,-0.015244,0.754578,-0.57164997,127.50001,-153.3,-5.1000004,,x,,,,
317059,-0.9241309,8.661709,-2.5301447,0.3811,0.3811,-0.198172,139.5,-143.70001,-10.5,,x,,,,
317079,-0.92891604,9.587035,-2.469134,0.442076,0.769822,-0.518296,146.70001,-134.1,-8.1,,x,,,,
317099,-1.8452711,9.254468,-2.7012136,-0.11432999,1.036592,-1.471046,146.70001,-143.70001,-8.700001,,x,,,,
317119,-2.7263358,8.709559,-2.6922414,-0.213416,0.541162,-1.250008,146.70001,-143.70001,-8.1,,x,,,,
317139,-3.2873938,9.059473,-3.0529218,-0.49543,0.11432999,-0.640248,132.3,-143.70001,-12.3,,x,,,,
317161,-3.496744,9.698888,-4.1068497,-0.274392,-0.365856,0.480186,134.70001,-141.3,-6.9,,x,,,,
317181,-3.6546535,10.858089,-5.4078107,0.70122397,-2.187514,1.707328,151.5,-141.3,-18.900002,,x,,,,
317201,-2.866301,10.924483,-5.9084563,1.250008,-5.9680257,2.89636,144.3,-153.3,-11.700001,,x,,,,
317221,-3.0977824,9.6157465,-5.2319565,0.55640596,-9.001582,3.513742,134.70001,-143.70001,-8.1,,x,,,,
317241,-3.1982706,8.75442,-5.699704,0.708846,-10.914703,4.23021,141.90001,-146.1,-10.5,,x,,,,
317323,-1.8811597,5.925802,-3.4752107,1.8369019,-21.219648,3.643316,120.3,-146.1,-14.1,,x,,,,
317359,0.7476787,5.355772,-2.3459167,2.2561119,-20.861414,6.219552,137.1,-153.3,-11.700001,,x,,,,
317379,1.8554395,5.0220084,-2.041462,2.17227,-18.75012,7.027484,137.1,-150.90001,-18.900002,,x,,,,
317419,4.0344744,7.7447553,-2.970976,1.554888,-8.643348,5.586926,105.9,-165.3,-22.5,,x,,,,
317439,3.9973896,8.7933,-4.229469,1.318606,-3.2164838,2.865872,110.700005,-160.5,-21.300001,,x,,,,
317481,3.296366,11.578254,-7.4235525,1.44818,4.893324,0.746956,108.3,-167.70001,-20.1,,x,,,,
317541,1.8554395,10.161851,-7.9684606,-0.510674,8.346089,-4.748506,120.3,-153.3,-15.3,,x,,,,
317561,1.4397302,9.664794,-8.068351,-0.518296,9.405548,-5.152472,120.3,-143.70001,-15.900001,,x,,,,
317604,-0.17465775,8.499612,-7.5413866,-2.393308,12.393372,-5.350644,134.70001,-153.3,-18.900002,,x,,,,
317624,-0.62446123,7.9642735,-7.300933,-2.6677,12.522945,-4.413138,125.100006,-153.3,-12.900001,,x,,,,
317644,-0.7058087,7.9176183,-6.598115,-3.422278,12.408616,-3.2317278,129.90001,-141.3,-17.7,,x,,,,
317664,-1.150827,7.318877,-6.5412917,-3.528986,12.698252,-3.003068,149.1,-146.1,-14.1,,x,,,,
317684,-0.9145606,7.3780937,-5.6608253,-2.8048959,10.754642,-1.661596,139.5,-131.70001,-11.700001,,x,,,,
317704,-0.9277198,7.300933,-4.782153,-3.612828,10.701288,-1.737816,125.100006,-158.1,-14.1,,x,,,,
317724,-1.2321745,5.918625,-4.2839,-3.643316,10.106771,-2.027452,139.5,-155.70001,-17.7,,x,,,,
317786,-0.6657331,6.9928894,-2.0115547,-2.949714,7.73633,-1.1356779,129.90001,-150.90001,-6.3,,x,,,,
317839,-0.06280501,9.122278,-0.6723127,-1.8673899,5.198204,-1.097568,122.700005,-148.5,-9.3,,x,,,,
317879,-2.3112245,8.568996,-1.3410366,-1.021348,4.291186,-4.9314337,122.700005,-150.90001,-12.900001,,x,,,,
317903,-1.8823559,9.345386,-1.6102009,-0.259148,3.948196,-3.2622159,134.70001,-155.70001,-10.5,,x,,,,
317923,-2.1359684,11.657806,-2.16767,-0.33536798,3.35368,-2.446662,125.100006,-148.5,-16.5,,x,,,,
317967,-3.250907,9.450659,-3.9926043,2.050318,1.3643379,-3.025934,156.3,-146.1,-15.3,,x,,,,
318009,-2.0988836,9.222168,-4.0147357,2.042696,0.144818,-0.891774,149.1,-143.70001,-9.3,,x,,,,
318079,-0.68367743,9.342395,-3.627139,-0.55640596,-0.617382,1.3490939,144.3,-146.1,-11.1,,,,,,
318100,-0.41391495,9.003248,-3.2826085,-1.33385,-0.907018,0.69360197,151.5,-155.70001,-10.5,,,,,,
318141,-0.013159146,8.710158,-2.51878,-1.6082419,-0.899396,0.129574,139.5,-141.3,-9.3,,,,,,
318161,-0.24464047,8.313589,-2.7711964,-1.440558,-0.320124,-0.23628199,141.90001,-126.9,-14.1,,,,,,
318181,-0.38998923,8.50021,-3.007463,-0.297258,-0.46494198,0.20579399,144.3,-136.5,-13.500001,,,,,,
318201,-0.15133017,8.965565,-2.8997972,0.41921,-0.49543,0.449698,139.5,-150.90001,-15.3,,,,,,
318221,-0.18063918,8.917115,-2.9937055,0.30488,-0.297258,0.327746,134.70001,-138.90001,-14.1,,,,,,
318241,-0.19499461,8.871058,-3.1426432,0.3811,0.03811,0.182928,144.3,-141.3,-5.1000004,,,,,,
318265,-0.34991363,9.0977545,-3.6660182,0.55640596,0.487808,0.129574,125.100006,-138.90001,-13.500001,,,,,,
318285,-0.3050529,9.052894,-3.7730858,0.198172,0.274392,-0.060976,146.70001,-148.5,-15.900001,,,,,,
318305,-0.20994818,8.9894905,-3.664822,0.11432999,0.053354,-0.19055,137.1,-146.1,-12.900001,,,,,,
318325,-0.2601922,8.869264,-3.7431786,-0.129574,-0.022866,-0.137196,122.700005,-148.5,-11.1,,,,,,
318348,-0.17166704,9.060072,-3.6977198,-0.365856,-0.20579399,0.137196,149.1,-148.5,-12.900001,,,,,,
318368,-0.16448931,8.900966,-3.6032133,-0.68597996,-0.091464,0.198172,134.70001,-146.1,-15.900001,,,,,,
318388,-0.23207948,8.561818,-3.4817903,-0.68597996,0.03811,0.198172,134.70001,-153.3,-20.1,,,,,,
318450,0.0077758585,8.955995,-3.4913604,-0.15244,0.41921,0.16768399,122.700005,-138.90001,-14.1,,,,,,
318470,-0.29847333,8.91891,-3.3753207,-0.41158798,0.480186,0.099086,125.100006,-153.3,-9.900001,,,,,,
318490,-0.09869359,8.995472,-3.451883,-0.23628199,0.510674,-0.182928,139.5,-146.1,-12.3,,,,,,
318510,-0.01016843,8.808253,-3.1569986,-0.106708,0.33536798,-0.274392,141.90001,-146.1,-17.1,,,,,,
318534,-0.09091773,8.850123,-3.2012613,-0.625004,0.480186,0.03811,122.700005,-136.5,-11.700001,,,,,,
318554,0.0640013,8.815431,-3.0648847,-0.449698,0.41921,-0.297258,132.3,-146.1,-12.900001,,,,,,
318574,0.1698726,8.789711,-2.9733686,-0.426832,0.548784,-0.434454,137.1,-141.3,-17.1,,,,,,
318594,0.26497734,8.734084,-2.9751632,-0.297258,0.754578,-0.72409,139.5,-150.90001,-14.1,,,,,,
318614,0.4151112,9.016407,-2.9518356,0.068598,0.846042,-0.80030996,137.1,-138.90001,-6.9,,,,,,
318634,0.23207948,8.880031,-3.017033,-0.182928,1.021348,-1.150922,139.5,-131.70001,-11.1,,,,,,
318674,-0.24763119,9.140223,-3.1564004,0.083841994,1.044214,-1.41007,144.3,-143.70001,-12.3,,x,,,,
318695,-0.63941485,9.661205,-3.246122,0.129574,0.92226195,-1.3643379,151.5,-143.70001,-12.3,,x,,,,
318715,-1.1191255,9.697692,-3.0050702,-0.060976,0.45731997,-1.6387299,139.5,-146.1,-14.700001,,x,,,,
318735,-1.5414144,9.718627,-2.8836472,-0.487808,0.121952,-1.56251,149.1,-138.90001,-13.500001,,x,,,,
318755,-2.413507,9.924986,-2.8262255,-1.150922,-0.640248,-1.471046,134.70001,-136.5,-5.1000004,,x,,,,
318775,-3.5122955,9.483557,-2.639605,-1.265252,-1.6006199,-1.94361,146.70001,-138.90001,-12.900001,,x,,,,
318795,-4.19358,10.189963,-2.8926194,-1.234764,-2.7058098,-1.3490939,146.70001,-153.3,-17.1,,x,,,,
318815,-4.6876464,10.061961,-3.2473183,-0.94512796,-3.955818,-1.67684,156.3,-153.3,-6.9,,x,,,,
318835,-4.5153813,9.219776,-3.5583525,0.060976,-5.899428,-0.30488,156.3,-146.1,-10.5,,x,,,,
318856,-3.8544333,9.578662,-3.6325223,0.3811,-8.07932,2.2637339,146.70001,-153.3,-10.5,,x,,,,
318876,-3.0116498,9.582251,-3.4799957,0.434454,-9.923843,3.323192,149.1,-150.90001,-14.700001,,x,,,,
318898,-2.9063766,7.7459517,-3.465042,0.868908,-10.769886,3.2927039,149.1,-141.3,-16.5,,x,,,,
318918,-2.2274845,6.687238,-3.3711338,2.187514,-12.812582,4.4207597,163.5,-148.5,-18.300001,,x,,,,
318940,-1.0359837,6.3193803,-2.6007257,3.155508,-14.542776,5.350644,153.90001,-141.3,-20.1,,x,,,,
318964,-0.37264308,5.7972016,-2.4081235,3.041178,-14.17692,4.984788,149.1,-150.90001,-21.300001,,x,,,,
318984,0.4761218,5.6674047,-2.6138847,3.071666,-13.277524,4.733262,149.1,-136.5,-18.300001,,x,,,,
319004,0.8780739,5.2409286,-3.0014815,3.01069,-12.370505,4.275942,137.1,-162.90001,-20.1,,x,,,,
319025,2.3363464,5.03756,-2.9219284,2.964958,-11.707392,4.214966,125.100006,-148.5,-14.700001,,x,,,,
319045,3.23057,5.4108014,-2.8902268,2.2561119,-9.405548,4.15399,132.3,-158.1,-17.7,,x,,,,
319107,3.0971844,13.208791,-8.775953,1.1280559,2.6829438,1.33385,122.700005,-148.5,-16.5,,x,,,,
319149,1.6574541,12.1429,-9.693505,1.6082419,2.560992,-0.510674,134.70001,-153.3,-20.1,,x,,,,
319241,-0.23148133,7.9493203,-5.642881,-4.054904,6.844556,-3.16313,120.3,-153.3,-20.7,,x,,,,
319278,-0.9965062,7.0431333,-3.8329,-2.911604,8.147918,-2.55337,125.100006,-160.5,-14.700001,,x,,,,
319341,-1.000095,6.9312806,-3.167167,-1.21952,8.048832,-3.437522,117.9,-155.70001,-14.1,,x,,,,
319478,-1.1370698,8.64496,-2.2161198,-1.097568,6.0976,-3.7424018,141.90001,-143.70001,-12.900001,,x,,,,
319518,-0.99889874,10.913716,-3.2108314,-0.777444,4.5274677,-2.2027578,144.3,-146.1,-15.900001,,x,,,,
319538,-1.828523,9.843638,-3.2054482,-0.92988396,4.138746,-2.637212,139.5,-138.90001,-14.700001,,x,,,,
319581,-2.8938158,10.506979,-3.9028828,0.3811,3.147886,-1.250008,156.3,-141.3,-14.1,,x,,,,
319601,-3.0427532,11.8187065,-4.1277847,0.358234,2.926848,-1.684462,151.5,-131.70001,-11.1,,x,,,,
319621,-3.3735263,11.08,-4.798303,-0.297258,3.16313,-3.2774599,158.70001,-134.1,-6.3,,x,,,,
319642,-3.4040318,9.6695795,-4.780359,0.320124,1.5929979,-2.7058098,153.90001,-143.70001,-10.5,,x,,,,
319662,-2.920134,8.7304945,-4.30005,-0.19055,0.60976,-0.868908,153.90001,-148.5,-8.700001,,x,,,,
319682,-2.1305852,8.832777,-4.124794,-0.594516,-0.007622,1.250008,151.5,-134.1,-13.500001,,x,,,,
319702,-1.5073203,8.415872,-3.6929348,-0.731712,-0.655492,1.8597679,151.5,-134.1,-8.1,,,,,,
319764,0.16807817,8.104239,-2.6455863,-0.69360197,-0.30488,0.16768399,144.3,-141.3,-15.900001,,,,,,
319784,-0.061608724,8.106033,-2.719158,-0.312502,0.137196,0.022866,163.5,-136.5,-16.5,,,,,,
319804,-0.31641763,8.534902,-3.0098555,-0.106708,0.365856,-0.213416,134.70001,-146.1,-11.1,,,,,,
319826,-0.48389766,8.331533,-3.054118,0.022866,0.198172,-0.510674,151.5,-138.90001,-17.1,,,,,,
319846,-0.57421726,8.454153,-3.1892984,-0.121952,0.327746,-0.20579399,151.5,-141.3,-14.1,,,,,,
319866,-0.67709786,8.549257,-3.4823885,0.0,0.47256398,-0.144818,158.70001,-138.90001,-8.1,,,,,,
319886,-0.4761218,8.579762,-3.4776032,0.274392,0.289636,0.11432999,151.5,-153.3,-15.3,,,,,,
319906,-0.4761218,8.993079,-3.606204,-0.022866,0.541162,0.49543,137.1,-146.1,-14.1,,,,,,
319927,-0.50363636,9.061866,-3.786245,-0.03811,0.67835796,0.358234,149.1,-138.90001,-16.5,,,,,,
319949,-0.6011337,9.325647,-4.011745,0.022866,0.655492,0.34298998,149.1,-146.1,-5.7000003,,,,,,
319969,-0.7339214,9.136634,-4.100868,-0.17530599,0.49543,0.099086,149.1,-143.70001,-0.3,,,,,,
319989,-0.30266035,9.070838,-3.7240381,-0.015244,-0.099086,0.19055,151.5,-148.5,-17.1,,,,,,
320011,-0.36426908,8.820814,-3.5290434,-0.30488,0.137196,0.121952,144.3,-155.70001,-8.1,,,,,,
320031,-0.794932,8.582155,-3.5110993,-0.19055,0.007622,0.083841994,134.70001,-136.5,-7.5000005,,,,,,
320051,-0.7554546,8.637783,-3.299955,0.083841994,-0.579272,0.07622,144.3,-143.70001,-8.700001,,,,,,
320131,-0.3409415,8.399722,-2.552874,-0.23628199,-0.068598,-0.312502,137.1,-150.90001,-12.900001,,,,,,
320177,-0.8858497,8.525929,-2.9171433,0.35061198,0.11432999,-0.259148,141.90001,-143.70001,-9.3,,x,,,,
320197,-1.3087368,8.851319,-3.268253,0.525918,-0.182928,0.0,151.5,-153.3,-10.5,,x,,,,
320237,-2.0097604,9.110913,-3.2371497,0.274392,-1.730194,0.67835796,146.70001,-148.5,-8.700001,,x,,,,
320257,-2.3279724,9.418359,-3.2204018,0.03811,-2.2180018,1.44818,144.3,-155.70001,-8.700001,,x,,,,
320277,-2.8064868,10.908334,-3.9471455,0.426832,-2.393308,2.2789779,139.5,-146.1,-14.700001,,x,,,,
320298,-3.8598166,10.701376,-4.9813347,0.80030996,-3.612828,1.8292799,144.3,-143.70001,-15.900001,,x,,,,
320318,-3.6163723,10.733077,-5.318089,1.935988,-6.890288,3.643316,137.1,-143.70001,-8.700001,,x,,,,
320341,-2.7717946,10.624814,-4.099672,-0.182928,-9.596098,5.3354,129.90001,-134.1,-10.5,,x,,,,
320402,-1.3781214,6.719538,-3.401639,1.150922,-14.817167,6.890288,127.50001,-153.3,-12.900001,,x,,,,
320422,-0.5915634,7.488152,-3.1342692,0.632626,-14.550398,6.8979096,127.50001,-153.3,-18.300001,,x,,,,
320442,-0.038879294,7.0395446,-2.707195,1.722572,-15.068694,5.3354,122.700005,-158.1,-17.1,,x,,,,
320482,1.0228245,5.279808,-1.3081387,1.478668,-13.300389,3.39179,122.700005,-155.70001,-18.900002,,x,,,,
320543,3.116923,5.651853,-2.9470503,2.17227,-3.7347798,7.5305357,110.700005,-153.3,-13.500001,,x,,,,
320563,3.694131,9.10254,-4.739685,1.79117,1.318606,7.759196,103.50001,-162.90001,-15.900001,,x,,,,
320603,3.3669467,11.7971735,-7.783036,0.640248,5.823208,-0.182928,98.700005,-162.90001,-15.900001,,x,,,,
320626,2.6288383,12.078301,-8.981116,1.44818,5.815586,-1.303362,93.9,-153.3,-15.900001,,x,,,,
320646,2.96978,11.471186,-9.006837,1.158544,2.7515419,-2.812518,101.100006,-148.5,-14.1,,x,,,,
320666,3.1809244,11.888091,-7.9541054,1.29574,3.650938,-3.536608,93.9,-165.3,-20.7,,x,,,,
320686,2.7622242,11.7888,-7.948722,0.663114,5.358266,-4.504602,81.9,-158.1,-17.7,,x,,,,
320707,1.669417,10.264731,-7.7656903,-0.632626,7.179924,-6.425346,93.9,-153.3,-18.300001,,x,,,,
320727,0.40434465,8.351871,-6.9342713,-1.3414719,7.865904,-6.768336,103.50001,-150.90001,-18.300001,,x,,,,
320790,-0.69504213,6.9474306,-4.279713,-2.073184,8.53664,-3.6814258,101.100006,-148.5,-14.1,,x,,,,
320811,-0.6447981,6.191976,-3.9884174,-1.8673899,8.925362,-4.0625257,120.3,-148.5,-7.5000005,,x,,,,
320831,-0.5024401,5.944345,-3.5416045,-1.196654,7.73633,-3.46801,146.70001,-160.5,-17.7,,x,,,,
320851,-0.10228245,6.5305247,-2.7006154,-0.967994,6.59303,-2.827762,101.100006,-148.5,-14.1,,x,,,,
320871,-0.026318291,6.806867,-2.262775,-1.6234859,7.1418138,-3.2774599,120.3,-155.70001,-10.5,,x,,,,
320891,-0.1752559,6.48387,-2.5169857,-1.6158639,7.4085836,-3.6814258,115.50001,-150.90001,-15.900001,,x,,,,
320911,-0.0017944289,6.882831,-2.451788,-0.92988396,6.646384,-3.483254,122.700005,-148.5,-11.700001,,x,,,,
320931,-0.21054633,7.517461,-2.6509697,-0.47256398,6.196686,-3.2850819,129.90001,-150.90001,-14.700001,,x,,,,
320954,-0.099291734,9.115101,-2.9757612,-0.030488,5.137228,-2.6677,129.90001,-141.3,-14.1,,x,,,,
320977,0.34572664,10.045812,-1.978657,-0.480186,4.38265,-3.871976,125.100006,-146.1,-17.1,,x,,,,
320997,0.13876916,10.164244,-2.4027402,-0.792688,5.5793037,-4.214966,115.50001,-148.5,-10.5,,x,,,,
321019,-1.3266811,10.721713,-3.7742822,-0.548784,5.86894,-4.596066,139.5,-153.3,-7.5000005,,x,,,,
321039,-2.3207948,10.009923,-3.6636257,-0.640248,4.771372,-4.847592,132.3,-146.1,-13.500001,,x,,,,
321059,-2.4452085,9.347778,-3.76531,-1.44818,4.397894,-4.603688,129.90001,-141.3,-11.700001,,x,,,,
321080,-2.7424855,9.0217905,-4.1403456,-0.373478,3.940574,-4.207344,149.1,-143.70001,-6.3,,x,,,,
321100,-2.8591235,8.955995,-4.4914556,-0.083841994,3.018312,-2.652456,144.3,-141.3,-6.9,,x,,,,
321120,-2.6079032,9.214991,-4.8335934,0.525918,2.149404,-1.56251,141.90001,-134.1,-9.3,,x,,,,
321143,-1.9589182,8.997865,-4.192982,0.754578,0.891774,-0.57164997,151.5,-131.70001,-11.700001,,x,,,,
321163,-1.5928547,8.321365,-4.179823,-0.16768399,1.082324,0.320124,158.70001,-143.70001,-3.9,,x,,,,
321183,-1.3601772,8.256167,-4.2061415,-0.503052,0.716468,1.303362,149.1,-141.3,-6.9,,x,,,,
321203,-1.083835,8.366824,-4.1229997,-0.53354,-0.053354,1.440558,151.5,-143.70001,-2.7,,x,,,,
321225,-0.7476787,8.747841,-3.9423604,-0.28201398,-1.051836,1.303362,144.3,-124.50001,-7.5000005,,x,,,,
321245,-0.27993092,8.836366,-3.4417148,-0.45731997,-1.6158639,0.80030996,146.70001,-141.3,-11.1,,,,,,
321269,0.0059814295,8.210709,-3.0110517,-1.5244,-0.960372,0.388722,129.90001,-138.90001,-10.5,,,,,,
321289,-0.053234726,8.551052,-3.2616737,-1.326228,-0.442076,0.548784,141.90001,-138.90001,-6.9,,,,,,
321311,-0.18362989,8.668288,-3.246122,-0.81555396,-0.45731997,0.068598,151.5,-138.90001,-6.9,,,,,,
321331,-0.19499461,8.840553,-3.2736366,-0.434454,-0.442076,-0.243904,134.70001,-141.3,-14.700001,,,,,,
321352,-0.2990715,8.80945,-3.371732,-0.289636,-0.259148,-0.64787,146.70001,-134.1,-9.900001,,,,,,
321372,-0.4396351,8.770571,-3.4632478,-0.07622,-0.213416,-0.7622,139.5,-136.5,-17.1,,,,,,
321392,-0.38101706,9.061268,-3.656448,-0.022866,-0.137196,-0.518296,153.90001,-143.70001,-8.700001,,,,,,
321416,-0.4216908,9.174317,-3.8418722,-0.23628199,0.022866,-0.625004,144.3,-155.70001,-9.3,,,,,,
321436,-0.40613908,8.878835,-3.7348046,-0.396344,0.060976,-0.746956,141.90001,-129.3,-8.700001,,,,,,
321456,-0.30146405,8.700587,-3.694729,-0.632626,0.221038,-0.640248,151.5,-141.3,-11.700001,,,,,,
321476,-0.32180092,8.726906,-3.6845608,-0.632626,0.373478,-0.510674,146.70001,-124.50001,-2.1000001,,,,,,
321496,-0.3744375,8.759206,-3.606204,-0.49543,0.45731997,-0.602138,151.5,-150.90001,-15.3,,,,,,
321519,-0.36127836,8.758608,-3.3537877,-0.26677,0.480186,-0.64787,129.90001,-134.1,-12.900001,,x,,,,
321539,-0.44501838,8.634792,-3.3819003,-0.60976,0.82317597,-0.754578,141.90001,-141.3,-17.7,,x,,,,
321560,-0.6101058,8.50978,-3.496744,-0.480186,0.91463995,-0.617382,146.70001,-134.1,-11.700001,,x,,,,
321580,-0.8134744,8.894984,-3.5583525,-0.121952,0.67835796,-0.3811,144.3,-146.1,-6.3,,x,,,,
321600,-0.8021097,8.849525,-3.5158844,-0.182928,0.396344,-0.41158798,158.70001,-138.90001,-9.3,,x,,,,
321620,-0.73511773,9.16056,-3.3143103,-0.045732,0.129574,-0.213416,132.3,-124.50001,-13.500001,,x,,,,
321640,-1.0664889,8.771767,-3.0780437,-0.129574,-0.083841994,-0.053354,144.3,-119.700005,-11.700001,,x,,,,
321660,-1.2082489,8.753822,-3.0224164,0.007622,-0.15244,0.15244,146.70001,-138.90001,-2.1000001,,x,,,,
321680,-1.3769251,9.654028,-2.8034961,0.3811,-0.846042,0.80793196,146.70001,-136.5,-3.3000002,,x,,,,
321700,-2.2651675,10.183982,-2.5875664,-1.013726,-0.95274997,0.091464,149.1,-143.70001,-10.5,,x,,,,
321720,-2.5462947,9.9722395,-2.7837574,-1.303362,-0.81555396,-0.137196,144.3,-148.5,-7.5000005,,x,,,,
321740,-3.3783114,9.570288,-3.2939734,-1.547266,-1.3872039,-0.106708,141.90001,-138.90001,-14.1,,x,,,,
321761,-3.9292011,8.991285,-3.9208272,-1.471046,-2.2408679,0.434454,158.70001,-146.1,-8.1,,x,,,,
321781,-3.970473,9.65941,-4.4621468,-0.81555396,-4.176856,2.05794,149.1,-138.90001,-13.500001,,x,,,,
321802,-3.468631,9.868761,-4.4113045,-1.021348,-5.9680257,2.675322,153.90001,-143.70001,-14.1,,x,,,,
321867,-1.2261931,8.01392,-3.0696697,-0.007622,-10.983302,3.2317278,139.5,-150.90001,-14.1,,x,,,,
321887,-1.4008509,6.3582597,-3.0971844,0.49543,-11.120498,2.637212,144.3,-131.70001,-16.5,,x,,,,
321908,-0.97078604,5.7457614,-2.438629,1.570132,-12.340017,3.536608,141.90001,-143.70001,-13.500001,,x,,,,
321928,-0.8673073,5.435325,-1.53962,1.021348,-12.553433,3.559474,137.1,-146.1,-17.1,,x,,,,
321948,-0.117834166,4.7911253,-1.8177565,1.3414719,-10.884215,3.399412,137.1,-153.3,-20.1,,x,,,,
321969,0.23985533,4.916137,-2.1060615,1.539644,-10.541225,3.528986,132.3,-153.3,-10.5,,x,,,,
321989,0.7853617,4.932885,-2.7161672,1.920744,-9.71805,3.589962,137.1,-153.3,-15.900001,,x,,,,
322009,2.4081235,7.500713,-3.128886,2.964958,-8.292736,5.9680257,120.3,-141.3,-20.7,,x,,,,
322029,2.530743,8.036649,-3.384891,2.385686,-7.157058,5.746988,115.50001,-158.1,-23.1,,x,,,,
322049,2.4918637,8.569594,-4.162477,2.2865999,-4.939056,5.5945477,129.90001,-160.5,-14.1,,x,,,,
322069,2.4787045,9.94293,-5.091991,2.8048959,-2.522882,5.6097918,108.3,-170.1,-19.5,,x,,,,
322093,2.493658,13.3517475,-8.213101,3.3003259,2.2256238,4.428382,108.3,-148.5,-17.7,,x,,,,
322113,3.539212,13.812318,-9.204823,2.652456,0.899396,2.378064,113.100006,-158.1,-26.1,,x,,,,
322133,3.8263206,13.8703375,-8.295047,1.547266,0.099086,0.754578,105.9,-150.90001,-14.1,,x,,,,
322153,3.785647,14.080285,-7.9343667,0.426832,3.025934,-0.67835796,105.9,-155.70001,-12.3,,x,,,,
322173,2.5534723,11.510663,-7.317083,-1.326228,5.708878,-3.6738038,110.700005,-160.5,-13.500001,,x,,,,
322193,1.2818204,9.407593,-6.991693,-1.3490939,8.010722,-4.504602,122.700005,-153.3,-25.500002,,x,,,,
322255,-0.19678904,7.271026,-5.4622416,-0.708846,9.016826,-2.89636,120.3,-148.5,-14.700001,,x,,,,
322280,-0.13936731,6.7757635,-4.294667,-1.8826339,8.978716,-3.7195358,113.100006,-160.5,-17.7,,x,,,,
322300,-0.19020946,6.025094,-3.748562,-1.8902559,9.047314,-3.513742,113.100006,-146.1,-12.3,,x,,,,
322340,-0.13996546,6.809858,-3.058305,-1.013726,7.225656,-3.445144,122.700005,-143.70001,-11.700001,,x,,,,
322360,-0.23925719,6.191378,-2.3285706,-1.044214,5.785098,-4.641798,127.50001,-155.70001,-13.500001,,x,,,,
322380,-0.19499461,6.0920863,-1.6999223,-1.29574,5.358266,-4.695152,117.9,-146.1,-14.1,,x,,,,
322400,-0.5335435,5.992196,-2.0564156,-1.455802,6.272906,-4.618932,122.700005,-150.90001,-12.900001,,x,,,,
322420,-0.71657526,7.4379077,-2.8471606,-0.81555396,6.036624,-3.399412,129.90001,-153.3,-15.3,,x,,,,
322440,-0.84517604,8.689821,-2.9775558,-0.503052,4.83997,-3.109776,132.3,-143.70001,-18.900002,,x,,,,
322464,-0.6639387,9.293347,-2.8555346,-0.320124,4.054904,-2.919226,127.50001,-150.90001,-8.700001,,x,,,,
322484,-0.5790024,10.284471,-3.0367718,-0.373478,4.30643,-2.568614,134.70001,-143.70001,-12.900001,,x,,,,
322504,-1.4445152,9.642065,-3.2903845,-0.625004,4.397894,-3.62045,134.70001,-134.1,-13.500001,,x,,,,
322524,-2.1234076,9.006837,-3.5792875,-0.17530599,4.085392,-3.094532,141.90001,-134.1,-12.3,,x,,,,
322547,-2.254401,10.329929,-4.0111465,0.312502,3.346058,-2.157026,127.50001,-141.3,-7.5000005,,x,,,,
322567,-2.1987736,10.515951,-4.150514,0.40396598,2.431418,-2.545748,146.70001,-136.5,-12.900001,,x,,,,
322587,-2.5917535,9.83048,-4.5411015,0.365856,1.3490939,-2.850628,144.3,-146.1,-9.3,,x,,,,
322607,-2.4822934,9.350769,-4.599121,0.49543,0.746956,-2.7591639,141.90001,-143.70001,-12.900001,,x,,,,
322627,-2.0181344,8.76399,-4.291676,0.327746,-0.365856,-1.6387299,139.5,-134.1,-4.5,,x,,,,
322647,-1.8261305,8.173624,-4.111037,-0.57164997,-0.47256398,-0.55640596,146.70001,-136.5,-7.5000005,,x,,,,
322667,-1.619173,7.9870033,-4.0560074,-0.94512796,-0.716468,0.503052,161.1,-146.1,-12.900001,,x,,,,
322687,-1.1861175,8.068949,-3.669009,-1.051836,-1.044214,0.80793196,139.5,-141.3,-6.9,,,,,,
322707,-0.7692119,8.314187,-3.4500887,-1.21952,-0.94512796,0.731712,144.3,-134.1,-16.5,,,,,,
322731,-0.5754135,8.512771,-3.4578645,-1.1280559,-0.7622,0.41158798,141.90001,-148.5,-5.1000004,,,,,,
322751,-0.5431138,8.301028,-3.2957678,-0.868908,-0.846042,0.46494198,141.90001,-146.1,-15.900001,,,,,,
322771,-0.43903694,8.589334,-3.3543859,-0.3811,-0.81555396,0.41158798,156.3,-143.70001,-14.700001,,,,,,
322791,-0.117834166,8.913527,-3.3065343,-0.007622,-0.769822,0.487808,129.90001,-148.5,-12.3,,,,,,
322811,-0.041271865,9.535595,-3.359171,-0.068598,-0.426832,0.26677,141.90001,-138.90001,-4.5,,,,,,
322831,-0.049047723,9.075026,-3.30474,-0.17530599,-0.11432999,-0.525918,139.5,-134.1,-9.900001,,,,,,
322851,-0.10946016,8.646755,-3.3376377,-0.16768399,0.053354,-0.45731997,149.1,-138.90001,-18.300001,,,,,,
322871,-0.18362989,8.407497,-3.3753207,-0.060976,0.289636,-0.259148,149.1,-138.90001,-8.1,,,,,,
322891,-0.15910603,8.75442,-3.4118075,0.137196,0.56402797,-0.20579399,149.1,-129.3,-3.3000002,,,,,,
322911,-0.23507018,8.832179,-3.5362213,0.121952,0.853664,-0.40396598,153.90001,-146.1,-6.3,,,,,,
322931,-0.5072252,8.649147,-3.7246363,0.221038,1.044214,-0.731712,141.90001,-134.1,-14.1,,,,,,
322951,-0.63403153,8.67068,-3.8376853,0.365856,1.013726,-0.716468,139.5,-146.1,-14.700001,,,,,,
322971,-0.5526841,8.846535,-3.8885274,0.22865999,1.036592,-0.388722,153.90001,-136.5,-12.900001,,,,,,
322991,-0.31223062,9.295142,-3.8466575,-0.17530599,1.1432999,-0.121952,151.5,-136.5,-17.1,,,,,,
323011,-0.11663788,9.224561,-3.80718,-0.586894,1.173788,-0.312502,144.3,-131.70001,-5.7000003,,,,,,
323035,-0.1447506,8.871058,-3.6660182,-0.442076,1.02897,-0.503052,141.90001,-129.3,-9.3,,,,,,
323056,-0.40135393,8.325552,-3.488968,-0.373478,1.051836,-0.388722,137.1,-141.3,-0.3,,,,,,
323076,-0.39178365,8.843544,-3.4464998,-0.251526,1.265252,-0.754578,149.1,-138.90001,-15.900001,,,,,,
323096,-0.62266684,8.673671,-3.489566,-0.41921,1.577754,-1.29574,156.3,-134.1,-13.500001,,,,,,
323116,-1.1263032,8.654531,-3.6175687,-0.144818,1.6311079,-1.272874,149.1,-134.1,-8.1,,x,,,,
323139,-1.3858973,9.07981,-3.648074,0.251526,1.303362,-0.95274997,149.1,-126.9,-5.1000004,,x,,,,
323159,-1.7507645,9.113904,-3.3687413,0.121952,0.769822,-0.830798,156.3,-143.70001,-8.700001,,x,,,,
323179,-2.301056,8.60309,-3.137858,-0.11432999,0.26677,-0.45731997,163.5,-146.1,-15.3,,x,,,,
323199,-2.9990888,8.615053,-2.957817,-0.487808,-0.40396598,0.487808,144.3,-143.70001,-5.7000003,,x,,,,
323219,-3.715066,9.402807,-2.994902,-1.021348,-0.92226195,1.3872039,156.3,-131.70001,-11.1,,x,,,,
323239,-4.3646493,9.618737,-3.6283352,-1.310984,-1.44818,1.1204339,149.1,-131.70001,-8.700001,,x,,,,
323259,-4.5249515,9.417761,-4.627832,-0.716468,-2.6677,1.3414719,139.5,-143.70001,-8.1,,x,,,,
323280,-4.166664,9.968651,-5.341417,0.022866,-4.893324,2.987824,144.3,-138.90001,-6.3,,x,,,,
323300,-3.703103,9.845433,-5.452073,-0.121952,-7.301876,4.275942,129.90001,-138.90001,-4.5,,x,,,,
323320,-2.7101858,10.169028,-5.5005226,-0.22865999,-9.580853,5.320156,137.1,-141.3,-17.1,,x,,,,
323340,-2.4667416,8.953004,-5.325267,-0.015244,-11.814099,4.771372,146.70001,-136.5,-15.3,,x,,,,
323360,-1.6149861,8.805263,-4.929296,1.036592,-15.000095,5.213448,129.90001,-131.70001,-11.700001,,x,,,,
323420,-0.64360183,5.112926,-3.3819003,3.46801,-17.751638,1.669218,134.70001,-146.1,-17.1,,x,,,,
323441,0.98334706,5.7343965,-2.3142152,4.222588,-17.827858,3.7042918,141.90001,-153.3,-10.5,,x,,,,
323461,1.1657807,5.3946514,-2.5169857,2.62959,-12.012272,4.207344,132.3,-158.1,-16.5,,x,,,,
323481,1.3739344,5.713462,-2.32558,2.7362978,-11.24245,4.672286,137.1,-155.70001,-13.500001,,x,,,,
323502,1.7059038,5.732004,-2.6515677,1.966476,-8.056454,4.375028,139.5,-150.90001,-14.1,,x,,,,
323522,2.0940986,7.162762,-3.5613432,2.073184,-5.213448,4.9466777,115.50001,-162.90001,-14.1,,x,,,,
323542,2.2460268,8.738869,-3.8640037,1.471046,-3.559474,4.11588,125.100006,-155.70001,-15.900001,,x,,,,
323562,2.0857246,9.201233,-4.5339236,0.3811,-1.166166,2.378064,120.3,-165.3,-23.1,,x,,,,
323585,2.0881171,10.247984,-6.741071,0.67835796,3.932952,1.8902559,117.9,-155.70001,-17.7,,x,,,,
323605,2.2370548,10.661301,-8.005546,1.33385,4.4055157,0.655492,122.700005,-155.70001,-18.900002,,x,,,,
323625,2.6246514,11.250471,-7.9989657,1.196654,3.2698379,-0.243904,115.50001,-160.5,-18.300001,,x,,,,
323646,2.7406912,11.522626,-7.4355154,0.137196,5.0991178,-2.560992,117.9,-148.5,-20.1,,x,,,,
323666,1.7962234,10.267722,-7.552751,-1.577754,8.42231,-5.10674,125.100006,-160.5,-18.900002,,x,,,,
323686,0.8092874,8.987697,-7.467217,-2.538126,9.992442,-6.150954,122.700005,-165.3,-20.1,,x,,,,
323707,0.001196286,7.8105507,-6.889411,-2.599102,10.083906,-6.204308,129.90001,-150.90001,-18.300001,,x,,,,
323727,-0.84697044,7.647258,-6.369026,-2.492394,10.327809,-5.3963757,134.70001,-148.5,-19.5,,x,,,,
323747,-1.0742648,8.339908,-6.108236,-1.98172,9.352194,-4.870458,144.3,-141.3,-25.500002,,x,,,,
323767,-1.1765472,8.338711,-5.4203715,-1.730194,8.368956,-4.923812,127.50001,-150.90001,-14.1,,x,,,,
323787,-1.5713216,7.262652,-4.7809567,-1.737816,7.6524878,-4.702774,132.3,-141.3,-14.700001,,x,,,,
323807,-1.4786094,6.75124,-3.999184,-1.463424,6.379614,-3.559474,149.1,-146.1,-15.3,,x,,,,
323847,-1.1424531,6.9091496,-3.1013713,-0.67073596,5.9070497,-2.7896519,149.1,-136.5,-13.500001,,x,,,,
323867,-0.9588232,6.9552064,-2.8459642,-0.07622,4.9619217,-3.147886,153.90001,-143.70001,-16.5,,x,,,,
323889,-0.89601815,6.58376,-2.421881,0.221038,4.176856,-3.894842,141.90001,-141.3,-12.3,,x,,,,
323909,0.23207948,7.1717343,-1.4319543,0.55640596,2.911604,-3.2393498,156.3,-155.70001,-12.3,,x,,,,
323930,0.4312611,7.9092445,-1.1735566,0.15244,3.376546,-3.102154,149.1,-136.5,-18.300001,,x,,,,
323950,-0.112450875,9.307703,-1.9822458,-0.83842,6.5091877,-3.910086,161.1,-141.3,-7.5000005,,x,,,,
323972,-0.56225437,10.215684,-3.451285,-0.26677,6.692116,-4.4969797,156.3,-138.90001,-15.3,,x,,,,
323992,-1.0270115,10.898763,-3.3537877,-0.34298998,6.5701637,-4.390272,173.1,-131.70001,-14.700001,,x,,,,
324012,-2.8543382,8.673671,-3.9806414,-1.1051899,7.644866,-5.914672,173.1,-138.90001,-16.5,,x,,,,
324032,-4.002175,9.115699,-5.20504,0.579272,6.295772,-4.672286,163.5,-126.9,-9.3,,x,,,,
324055,-4.422669,9.963865,-5.246312,0.792688,4.009172,-4.207344,163.5,-131.70001,-12.900001,,x,,,,
324075,-4.6338134,9.5403805,-5.3162947,-0.22865999,3.018312,-4.070148,173.1,-129.3,-11.700001,,x,,,,
324095,-4.4585576,8.995472,-5.318089,-0.69360197,1.8521459,-2.446662,175.5,-124.50001,-5.1000004,,x,,,,
324116,-3.8651998,8.555239,-4.716357,-1.318606,0.17530599,-0.41158798,165.90001,-119.700005,-8.700001,,x,,,,
324136,-2.8980026,8.171829,-4.0231094,-1.6158639,-0.93750596,1.234764,185.1,-129.3,-8.700001,,x,,,,
324156,-2.1467352,7.7292037,-3.4728181,-1.75306,-1.196654,1.9054999,170.70001,-126.9,-7.5000005,,x,,,,
324176,-1.5808918,8.224466,-3.4153965,-1.242386,-1.242386,2.012208,161.1,-107.700005,-5.7000003,,x,,,,
324196,-1.3284756,8.428432,-3.6911402,-0.777444,-1.158544,1.29574,161.1,-129.3,-12.900001,,,,,,
324280,-1.1340791,8.540883,-3.9543233,-0.967994,-0.67835796,0.746956,153.90001,-119.700005,-10.5,,,,,,
324316,-0.690257,8.592324,-3.2365515,-0.70122397,-0.69360197,0.586894,163.5,-126.9,-12.900001,,,,,,
324336,-0.61369467,8.6329975,-3.1205118,-0.967994,0.510674,0.40396598,158.70001,-124.50001,-11.700001,,,,,,
324376,-0.9618139,8.807057,-3.6516628,-0.640248,1.6006199,-0.11432999,165.90001,-146.1,-9.900001,,,,,,
324396,-1.0957979,8.490042,-3.6504664,-0.41158798,1.33385,-0.221038,168.3,-131.70001,-12.3,,,,,,
324416,-0.9396826,8.558827,-3.6044095,-0.365856,1.21952,-0.060976,168.3,-138.90001,-12.900001,,,,,,
324438,-0.75784713,8.68384,-3.769497,-0.518296,1.417692,-0.137196,149.1,-141.3,-11.1,,,,,,
324458,-0.740501,8.729299,-3.7593286,-0.480186,1.3643379,-0.20579399,151.5,-131.70001,-6.9,,,,,,
324500,-0.80749303,8.034855,-3.3926668,-0.23628199,0.785066,-0.57164997,158.70001,-129.3,-10.5,,,,,,
324524,-0.8362039,8.0498085,-3.2036538,-0.068598,0.754578,-0.274392,158.70001,-126.9,-8.700001,,,,,,
324567,-1.4403282,8.351273,-3.2867956,0.274392,0.93750596,-0.449698,156.3,-138.90001,-15.900001,,,,,,
324587,-1.9654979,9.039137,-3.459061,0.365856,0.55640596,-0.327746,156.3,-129.3,-7.5000005,,x,,,,
324607,-2.5624444,8.877638,-3.1569986,-0.365856,0.045732,-0.20579399,151.5,-126.9,-9.900001,,x,,,,
324631,-3.196476,9.533203,-3.3035436,-1.417692,1.173788,0.41158798,161.1,-134.1,-6.3,,x,,,,
324651,-4.2019544,10.191758,-3.3998446,-1.9131219,0.967994,0.3811,161.1,-136.5,-9.3,,x,,,,
324671,-4.450184,11.297725,-4.852734,-1.8750119,1.204276,0.92988396,173.1,-119.700005,-9.900001,,x,,,,
324737,-2.0767524,8.671877,-3.9848285,-0.274392,-8.399444,2.179892,158.70001,-129.3,-5.1000004,,x,,,,
324757,-1.7124833,7.031769,-3.4752107,1.150922,-9.29884,3.498498,153.90001,-138.90001,-13.500001,,x,,,,
324777,-1.7740921,6.3157916,-3.9632952,2.835384,-9.740916,5.0991178,173.1,-143.70001,-15.3,,x,,,,
324801,-1.2507169,6.9881043,-3.8221335,3.955818,-11.905563,6.4024796,170.70001,-124.50001,-17.7,,x,,,,
324821,-1.0676852,6.965375,-3.2790198,3.338436,-12.858314,5.510706,146.70001,-138.90001,-14.700001,,x,,,,
324841,-0.5544785,5.953915,-3.2873938,2.59148,-12.84307,4.87808,149.1,-141.3,-17.1,,x,,,,
324861,0.12501188,5.174535,-2.9464524,2.355198,-12.622032,5.25918,144.3,-150.90001,-18.900002,,x,,,,
324884,0.71358454,5.1727405,-3.4937532,1.9054999,-11.09001,5.884184,144.3,-134.1,-15.3,,x,,,,
324904,1.2465299,5.409007,-4.4286504,2.835384,-9.649452,6.4177237,149.1,-138.90001,-9.900001,,x,,,,
324926,2.7036061,8.246597,-4.894006,2.652456,-7.5610237,7.16468,127.50001,-150.90001,-13.500001,,x,,,,
324986,2.1688664,11.874932,-7.99777,1.5244,1.074702,2.149404,120.3,-155.70001,-17.7,,x,,,,
325159,-0.4791125,7.1848936,-4.063185,-1.1432999,6.996996,-3.955818,137.1,-136.5,-12.3,,x,,,,
325201,-0.40853164,5.793613,-3.4070225,-1.036592,7.042728,-3.2698379,127.50001,-148.5,-11.1,,x,,,,
325280,-0.8296243,6.517366,-3.7760766,-0.68597996,6.920776,-3.102154,141.90001,-146.1,-15.900001,,x,,,,
325300,-0.7123883,7.19566,-3.5445952,-0.503052,5.320156,-2.62959,146.70001,-141.3,-14.1,,x,,,,
325343,-0.061608724,9.430322,-3.4423127,-0.94512796,3.7957559,-3.132642,151.5,-131.70001,-9.3,,x,,,,
325383,-0.7315289,10.987288,-3.4064243,-1.539644,3.155508,-5.632658,146.70001,-138.90001,-11.700001,,x,,,,
325427,-2.5965385,9.734179,-4.5829716,-0.47256398,5.9985137,-5.14485,170.70001,-141.3,-6.9,,x,,,,
325457,-4.066774,9.31488,-5.525047,0.82317597,3.92533,-4.298808,149.1,-122.100006,-9.900001,,x,,,,
325523,-2.7849536,8.647951,-4.7534423,-1.196654,-0.94512796,0.785066,170.70001,-134.1,-2.7,,x,,,,
325543,-1.9702829,8.438003,-3.9632952,-2.012208,-1.6387299,1.6463519,170.70001,-129.3,-15.3,,x,,,,
325589,-0.6669294,7.9852085,-2.7221487,-2.355198,-1.737816,1.9054999,161.1,-126.9,-13.500001,,x,,,,
325629,-0.36008206,7.698698,-2.1563053,-1.3719599,-0.68597996,1.089946,151.5,-129.3,-11.700001,,x,,,,
325717,-1.3159145,8.615651,-3.4153965,-0.068598,0.28201398,-0.69360197,158.70001,-134.1,-2.7,,x,,,,
325997,-1.8548414,8.487649,-3.7641137,0.022866,-0.289636,0.525918,158.70001,-129.3,-11.700001,,x,,,,
326017,-2.6132867,8.813637,-4.0266986,0.221038,-0.3811,0.94512796,156.3,-136.5,-13.500001,,x,,,,
326057,-3.1707559,10.505185,-5.0507193,-0.45731997,-0.594516,0.907018,153.90001,-131.70001,-2.7,,x,,,,
326079,-3.7922266,9.969847,-5.61417,-0.82317597,-0.983238,0.93750596,153.90001,-129.3,-9.3,,x,,,,
326100,-3.7802637,10.489634,-6.125582,-0.632626,-3.92533,3.498498,151.5,-141.3,-14.700001,,x,,,,
326120,-3.3962557,10.145701,-5.1278796,-1.250008,-6.737848,4.245454,156.3,-129.3,-12.3,,x,,,,
326140,-2.5504816,9.848424,-4.4077153,-1.722572,-8.811031,5.0381417,139.5,-143.70001,-3.9,,x,,,,
326160,-2.1521184,8.415274,-3.3980503,-1.478668,-10.754642,5.0076537,149.1,-131.70001,-12.3,,x,,,,
326180,-1.5958455,7.5114794,-2.820244,-0.373478,-11.570196,5.800342,139.5,-141.3,-12.3,,x,,,,
326200,-1.2967739,7.0473204,-2.4804988,0.769822,-12.751606,6.3567476,144.3,-143.70001,-18.300001,,x,,,,
326220,-0.38221335,7.0969663,-2.0300972,1.463424,-13.689112,6.9131536,149.1,-150.90001,-11.1,,x,,,,
326283,1.5790974,5.54,-1.9176464,1.783548,-12.294286,7.0503497,129.90001,-148.5,-15.3,,x,,,,
326361,3.59783,9.235328,-4.9263053,-2.461906,-1.432936,4.100636,98.700005,-160.5,-11.700001,,x,,,,
326381,2.9560225,8.87704,-5.684751,-2.873494,0.64787,1.5929979,103.50001,-170.1,-15.900001,,x,,,,
326422,2.8483567,12.25236,-7.3200736,-1.471046,2.7515419,0.23628199,89.100006,-172.5,-24.900002,,x,,,,
326462,2.0564156,11.711639,-6.8971868,-0.15244,2.7896519,-3.8109999,110.700005,-167.70001,-23.7,,x,,,,
326482,2.0845282,11.773248,-6.663911,-0.45731997,4.352162,-4.9543,115.50001,-160.5,-23.1,,x,,,,
326543,-0.11484345,8.722121,-5.4269514,-2.484772,9.550365,-4.9161897,117.9,-153.3,-15.3,,x,,,,
326563,-0.8601296,7.647258,-4.5494757,-2.606724,9.809514,-4.580822,122.700005,-160.5,-20.7,,x,,,,
326583,-0.89422375,7.213006,-4.313209,-2.309466,10.335432,-4.009172,122.700005,-143.70001,-14.700001,,x,,,,
326603,-0.83740014,7.3703175,-3.8628073,-1.3567159,9.687562,-3.643316,129.90001,-146.1,-17.1,,x,,,,
326623,-0.99471176,6.702192,-3.5487823,-0.907018,9.062558,-4.291186,132.3,-131.70001,-14.700001,,x,,,,
326643,-0.8810646,6.308614,-2.9972944,-0.34298998,7.9649897,-4.009172,122.700005,-150.90001,-13.500001,,x,,,,
326665,-0.63522786,6.4790845,-2.459564,-0.053354,7.492426,-3.7347798,137.1,-155.70001,-14.700001,,x,,,,
326686,-0.4133168,6.421065,-2.2980652,0.144818,7.6372437,-3.971062,153.90001,-129.3,-19.5,,x,,,,
326706,-0.21234076,6.6352,-2.2861025,0.49543,7.2409,-4.009172,144.3,-155.70001,-14.1,,x,,,,
326726,-0.58797455,6.2571735,-2.329767,0.160062,7.271388,-4.0472817,141.90001,-138.90001,-20.7,,x,,,,
326746,-1.0198338,6.748249,-2.5630426,-0.030488,7.179924,-3.437522,146.70001,-136.5,-14.700001,,x,,,,
326766,-0.9881322,7.786027,-2.8519456,-0.41921,6.905532,-2.309466,146.70001,-141.3,-11.700001,,x,,,,
326786,-0.72076225,9.587035,-2.7664113,-1.173788,6.234796,-1.051836,153.90001,-141.3,-21.300001,,x,,,,
326806,-1.4164026,9.892089,-2.974565,-1.935988,6.920776,-1.25763,139.5,-126.9,-15.3,,x,,,,
326829,-1.6454914,11.0518875,-3.7282252,-1.8597679,6.791202,-0.49543,149.1,-143.70001,-11.1,,x,,,,
326849,-2.0450509,11.108113,-3.995595,-1.539644,5.647902,-1.326228,139.5,-141.3,-14.1,,x,,,,
326873,-2.5989313,9.857994,-3.7096827,-0.55640596,4.596066,-2.141782,153.90001,-141.3,-13.500001,,x,,,,
326893,-2.7628224,11.158956,-3.694131,0.045732,4.03966,-1.554888,149.1,-138.90001,-6.3,,x,,,,
326915,-3.899892,10.498606,-4.8969965,0.137196,3.864354,-2.82014,149.1,-138.90001,-14.1,,x,,,,
326997,-1.5450033,8.869264,-3.530838,-0.91463995,-2.126538,1.6311079,137.1,-136.5,-7.5000005,,x,,,,
327017,-0.8726906,8.629409,-3.280216,-1.227142,-2.6829438,1.67684,139.5,-134.1,-11.1,,x,,,,
327040,-0.60352623,8.074332,-2.8603196,-1.1280559,-3.079288,0.92988396,156.3,-150.90001,-9.900001,,x,,,,
327080,-0.16389118,8.25856,-2.8752732,-0.289636,-2.942092,0.510674,137.1,-136.5,-10.5,,x,,,,
327100,-0.27036062,8.436209,-2.9566207,-0.045732,-2.62959,0.16768399,151.5,-136.5,-11.700001,,x,,,,
327120,-0.41032606,8.7933,-2.9398727,-0.022866,-2.149404,0.34298998,144.3,-143.70001,-14.700001,,x,,,,
327140,-0.49346796,9.124073,-3.0780437,-0.160062,-1.71495,0.259148,156.3,-141.3,-17.7,,x,,,,
327160,-0.5096178,8.629409,-3.0439496,0.083841994,-0.480186,-0.40396598,151.5,-153.3,-12.3,,x,,,,
327180,-0.44501838,8.681447,-3.0313885,0.060976,-0.099086,-0.23628199,149.1,-126.9,-10.5,,x,,,,
327200,-0.5072252,8.60967,-3.0595014,0.03811,0.579272,-0.160062,151.5,-126.9,-20.1,,x,,,,
327222,-0.54610455,8.6001,-2.9799483,0.17530599,0.95274997,-0.160062,153.90001,-143.70001,-11.700001,,x,,,,
327242,-0.32120278,8.9356575,-3.0935955,0.259148,1.56251,-0.426832,153.90001,-143.70001,-7.5000005,,,,,,
327262,-0.2829216,8.96736,-3.2054482,0.34298998,1.661596,-0.625004,153.90001,-134.1,-12.900001,,,,,,
327282,-0.38939106,8.463723,-3.3310583,0.518296,1.806414,-0.99086,134.70001,-146.1,-15.900001,,,,,,
327302,-0.49885124,8.411086,-3.5027251,0.91463995,1.699706,-0.602138,134.70001,-150.90001,-6.9,,,,,,
327322,-0.47133666,8.942836,-3.5003326,1.06708,1.570132,-0.312502,137.1,-138.90001,-11.700001,,,,,,
327345,-0.38759664,9.031959,-3.619363,0.60976,1.6006199,-0.769822,151.5,-138.90001,-11.1,,,,,,
327365,-0.43185923,8.890199,-3.6211576,0.274392,1.6082419,-0.91463995,156.3,-138.90001,-8.700001,,,,,,
327385,-0.4468128,8.929676,-3.4829865,0.144818,1.56251,-0.87653,153.90001,-138.90001,-12.3,,,,,,
327450,-0.72614557,8.765785,-3.1426432,-0.20579399,1.4024479,-1.303362,156.3,-138.90001,-8.700001,,x,,,,
327470,-0.9839452,8.7843275,-3.2138221,-0.030488,1.18141,-1.06708,144.3,-146.1,-6.3,,x,,,,
327490,-1.3248867,8.63539,-3.3053381,0.213416,0.53354,-0.80793196,149.1,-126.9,-17.1,,x,,,,
327510,-1.501937,8.862684,-3.3830967,0.49543,-0.137196,-0.243904,151.5,-131.70001,-14.1,,x,,,,
327531,-1.8446729,8.713747,-3.4482942,0.251526,-0.731712,0.160062,149.1,-136.5,-12.3,,x,,,,
327552,-2.6413994,9.186279,-3.4877717,-0.015244,-1.48629,1.204276,149.1,-134.1,-11.1,,x,,,,
327574,-3.2664587,9.709057,-3.8544333,-1.044214,-2.126538,1.577754,163.5,-131.70001,-14.1,,x,,,,
327614,-3.9734638,8.472695,-5.138048,-0.777444,-4.5427117,3.330814,151.5,-146.1,-12.900001,,x,,,,
327634,-3.2204018,9.162354,-4.7600217,-0.182928,-8.025966,6.189064,149.1,-150.90001,-11.700001,,x,,,,
327654,-1.9936105,10.816219,-3.8687887,-0.853664,-8.658592,6.951264,146.70001,-150.90001,-10.5,,x,,,,
327674,-2.0809393,11.901849,-4.5781865,-1.493912,-7.4238276,5.44973,134.70001,-141.3,-9.3,,x,,,,
327694,-2.9733686,9.613354,-5.181114,-0.480186,-8.68908,3.559474,144.3,-150.90001,-15.900001,,x,,,,
327714,-2.5779963,8.63539,-4.695422,0.64787,-12.126602,5.6097918,137.1,-158.1,-14.1,,x,,,,
327737,-1.8668042,7.771672,-3.9345844,0.792688,-13.68149,6.646384,127.50001,-155.70001,-19.5,,x,,,,
327757,-1.0664889,7.154388,-3.3693395,1.547266,-14.756191,7.3628516,129.90001,-158.1,-12.900001,,x,,,,
327778,-0.43664438,7.0473204,-2.6419976,1.737816,-15.343085,7.248522,120.3,-160.5,-22.5,,x,,,,
327798,-0.11304902,6.0550013,-2.2364566,1.532022,-15.350708,6.150954,117.9,-153.3,-17.1,,x,,,,
327859,2.5032284,5.329454,-1.5348349,1.280496,-10.998546,6.051868,101.100006,-150.90001,-15.900001,,x,,,,
327923,4.2198987,8.845338,-4.5387087,1.814036,-3.102154,3.3155699,93.9,-153.3,-20.1,,x,,,,
327944,4.4465947,10.530905,-5.3820906,1.25763,-0.754578,2.17227,108.3,-155.70001,-21.300001,,x,,,,
327964,3.8107688,11.734967,-6.8044744,0.884152,2.36282,-0.182928,101.100006,-162.90001,-22.5,,x,,,,
328028,2.6653252,11.527411,-7.1244807,-0.716468,6.844556,-4.618932,93.9,-146.1,-17.7,,x,,,,
328068,0.9767675,8.304617,-6.8086615,-1.242386,11.493976,-6.4024796,101.100006,-160.5,-19.5,,x,,,,
328125,-0.40972793,7.6747723,-5.7379856,-0.602138,13.384232,-6.5244317,113.100006,-153.3,-19.5,,x,,,,
328165,-1.0730685,6.6363964,-5.4646344,-0.243904,12.42386,-5.86894,115.50001,-158.1,-13.500001,,x,,,,
328185,-1.0096654,6.9737487,-5.0058584,-0.30488,11.105254,-4.862836,132.3,-155.70001,-13.500001,,x,,,,
328229,-0.81766146,6.710566,-3.7970116,-0.396344,7.4695597,-4.237832,122.700005,-155.70001,-11.700001,,x,,,,
328249,-0.98095447,6.2733235,-3.263468,-0.327746,6.32626,-4.30643,120.3,-143.70001,-10.5,,x,,,,
328270,-0.9241309,6.439607,-2.865105,-0.060976,5.29729,-3.902464,132.3,-146.1,-8.700001,,x,,,,
328290,-0.5682358,7.2518854,-2.301654,-0.289636,4.565578,-3.1783738,139.5,-146.1,-8.700001,,x,,,,
328310,-0.64360183,8.573183,-2.5002377,-1.006104,5.22107,-3.08691,125.100006,-138.90001,-11.700001,,x,,,,
328330,-0.89601815,9.86278,-3.095988,-0.93750596,5.076252,-3.2393498,149.1,-150.90001,-12.900001,,x,,,,
328350,-1.0682833,10.521933,-3.0684733,-0.853664,4.352162,-3.16313,137.1,-141.3,-16.5,,x,,,,
328370,-1.359579,10.109215,-3.368143,-1.768304,4.11588,-3.2545938,144.3,-143.70001,-9.900001,,x,,,,
328390,-2.543304,8.662307,-4.0183244,-1.1280559,3.6814258,-2.827762,146.70001,-148.5,-5.1000004,,x,,,,
328410,-2.301056,9.895678,-4.3078256,-0.083841994,1.8750119,-0.83842,141.90001,-141.3,-4.5,,x,,,,
328430,-2.2310734,10.649338,-4.495044,-0.297258,1.29574,-1.18141,146.70001,-150.90001,-5.7000003,,x,,,,
328450,-2.5546687,10.135532,-4.949035,-0.426832,0.594516,-1.951232,141.90001,-129.3,-4.5,,x,,,,
328472,-2.3602722,9.473987,-4.956811,-0.106708,-0.67835796,-1.75306,149.1,-141.3,-5.7000003,,x,,,,
328492,-1.7280351,9.090577,-4.4944463,-0.17530599,-1.768304,-0.426832,141.90001,-138.90001,-11.700001,,x,,,,
328514,-1.2208098,8.941041,-4.1403456,-0.72409,-2.042696,0.739334,144.3,-138.90001,-7.5000005,,x,,,,
328534,-0.65377027,8.304617,-3.6492703,-1.1128119,-2.339954,1.440558,149.1,-136.5,-10.5,,x,,,,
328556,-0.0029907147,8.007938,-3.0020795,-1.1204339,-2.2637339,1.737816,151.5,-136.5,-6.3,,x,,,,
328576,0.19260204,7.884721,-2.8704882,-0.92988396,-2.050318,1.196654,141.90001,-141.3,-5.1000004,,,,,,
328596,0.17645217,8.259158,-2.9261155,-0.586894,-1.783548,0.746956,146.70001,-150.90001,-9.3,,,,,,
328616,-0.0071777157,8.485256,-3.2180092,-0.60976,-1.539644,0.373478,139.5,-138.90001,-7.5000005,,,,,,
328636,0.0059814295,8.645558,-3.0828288,-0.541162,-1.478668,0.068598,149.1,-129.3,-7.5000005,,,,,,
328660,0.08254373,8.945827,-3.1564004,-0.617382,-1.006104,-0.083841994,129.90001,-138.90001,-11.700001,,,,,,
328680,-0.09869359,8.811842,-3.3866856,-0.548784,-0.46494198,-0.26677,137.1,-141.3,-14.1,,,,,,
328700,-0.2213129,8.839955,-3.4626496,-0.274392,-0.160062,-0.11432999,139.5,-138.90001,-8.700001,,,,,,
328720,-0.3050529,9.155176,-3.5798857,-0.060976,-0.060976,-0.129574,139.5,-153.3,-7.5000005,,,,,,
328760,-0.3648672,8.872853,-3.3902743,-0.28201398,0.22865999,-0.243904,149.1,-141.3,-12.900001,,,,,,
328781,-0.46954224,8.743654,-3.4118075,-0.40396598,0.487808,-0.35061198,134.70001,-136.5,-14.1,,,,,,
328802,-0.55986184,8.610268,-3.5828764,-0.373478,0.663114,-0.426832,146.70001,-150.90001,-15.3,,,,,,
328822,-0.60651696,8.5899315,-3.7246363,-0.274392,0.716468,-0.07622,137.1,-138.90001,-18.900002,,,,,,
328843,-0.47073853,8.865675,-3.7892358,-0.182928,0.769822,0.121952,137.1,-134.1,-10.5,,,,,,
328883,-0.32538977,8.807655,-3.6977198,-0.11432999,0.830798,-0.46494198,134.70001,-136.5,-8.700001,,,,,,
328903,-0.4175038,8.662307,-3.8125632,-0.221038,0.967994,-0.617382,132.3,-141.3,-17.7,,,,,,
328926,-0.3828115,8.505593,-3.8263206,-0.007622,0.87653,-0.70122397,137.1,-131.70001,-15.3,,,,,,
328946,-0.37084866,8.841151,-3.7138698,0.243904,0.7622,-0.82317597,146.70001,-134.1,-20.1,,,,,,
328966,-0.47253296,8.936256,-3.5511749,0.129574,0.830798,-1.051836,144.3,-148.5,-8.700001,,,,,,
328986,-0.7010236,8.833974,-3.539212,-0.22865999,1.1280559,-1.204276,139.5,-141.3,-18.300001,,,,,,
329007,-0.7315289,8.729299,-3.477005,-0.137196,1.250008,-1.02897,146.70001,-143.70001,-6.9,,,,,,
329028,-0.88226086,8.556436,-3.3496006,-0.137196,1.326228,-0.899396,134.70001,-141.3,-3.3000002,,x,,,,
329068,-1.0808444,8.487051,-3.0188277,0.022866,1.06708,-0.586894,141.90001,-153.3,-8.1,,x,,,,
329088,-1.1280977,8.498415,-2.8668993,0.045732,1.02897,-0.30488,134.70001,-131.70001,-15.3,,x,,,,
329108,-1.3254849,8.7520275,-3.028996,0.17530599,1.044214,-0.22865999,156.3,-141.3,-4.5,,x,,,,
329128,-1.7226517,8.912331,-3.3663487,0.41158798,0.594516,-0.068598,132.3,-143.70001,-11.700001,,x,,,,
329151,-1.8901318,8.939845,-3.3603673,0.57164997,-0.327746,0.396344,149.1,-129.3,-7.5000005,,x,,,,
329171,-1.8674023,9.417761,-3.1719522,0.49543,-1.089946,1.059458,137.1,-131.70001,-6.3,,x,,,,
329191,-2.356085,10.078111,-3.2993567,0.091464,-1.211898,1.1051899,144.3,-136.5,-11.1,,x,,,,
329211,-3.061894,10.996859,-4.4160895,0.16768399,-1.737816,1.006104,132.3,-136.5,-9.3,,x,,,,
329232,-3.686355,10.172019,-4.496839,-0.106708,-3.498498,1.242386,137.1,-138.90001,-7.5000005,,x,,,,
329252,-3.802993,9.878331,-4.582373,-0.33536798,-4.329296,1.760682,144.3,-148.5,-7.5000005,,x,,,,
329272,-3.5194733,9.297534,-4.3317513,-0.480186,-6.5091877,2.652456,146.70001,-134.1,-4.5,,x,,,,
329292,-2.911162,7.976835,-3.8000023,-0.015244,-9.710428,3.01069,139.5,-131.70001,-16.5,,x,,,,
329312,-2.6330254,7.0269837,-4.050026,1.67684,-12.164712,4.0167937,125.100006,-146.1,-8.1,,x,,,,
329332,-1.744783,7.361346,-3.6199613,3.414656,-15.541258,5.091496,137.1,-143.70001,-16.5,,x,,,,
329352,-0.78595984,7.036554,-2.836394,3.50612,-17.37816,4.519846,129.90001,-150.90001,-8.700001,,x,,,,
329372,-0.025122005,6.291268,-2.217914,2.7058098,-16.95895,4.108258,132.3,-148.5,-12.3,,x,,,,
329394,0.011962859,5.3988385,-2.4583676,2.583858,-14.870522,3.2469718,137.1,-143.70001,-17.7,,x,,,,
329414,0.3714468,4.4531746,-2.6784842,2.903982,-13.422341,3.2698379,137.1,-143.70001,-14.1,,x,,,,
329434,0.899607,4.9388666,-3.3663487,3.6738038,-11.227205,4.23021,129.90001,-155.70001,-18.900002,,x,,,,
329454,1.4690391,5.7810516,-4.268348,4.03966,-9.024447,4.550334,129.90001,-148.5,-18.900002,,x,,,,
329474,2.3309631,7.669987,-4.6894407,3.7576458,-7.675354,4.9771657,132.3,-153.3,-20.1,,x,,,,
329498,2.8686936,8.968555,-4.985522,1.8750119,-4.939056,3.8033779,120.3,-150.90001,-13.500001,,x,,,,
329540,2.5122006,11.809735,-9.338806,0.769822,2.088428,1.699706,115.50001,-153.3,-12.900001,,x,,,,
329560,2.3417296,11.618927,-9.293945,0.068598,0.82317597,0.70122397,108.3,-148.5,-13.500001,,x,,,,
329581,2.2669618,12.050188,-8.90934,-0.396344,2.93447,-0.67835796,120.3,-160.5,-24.900002,,x,,,,
329602,1.8087844,11.382661,-9.161158,-0.785066,5.0686297,-2.484772,115.50001,-155.70001,-9.900001,,x,,,,
329622,1.4439172,10.392735,-8.29744,-1.432936,5.929916,-3.2927039,127.50001,-143.70001,-9.900001,,x,,,,
329643,0.8110819,9.243103,-7.693913,-2.538126,8.483286,-3.910086,129.90001,-158.1,-8.700001,,x,,,,
329663,-0.14953575,8.329141,-7.4283376,-3.109776,10.632689,-4.321674,115.50001,-160.5,-13.500001,,x,,,,
329683,-0.89601815,7.927189,-7.1759214,-2.865872,11.417756,-4.275942,129.90001,-148.5,-14.700001,,x,,,,
329706,-1.3230922,7.686137,-6.5191603,-2.644834,10.571713,-4.207344,132.3,-158.1,-11.1,,x,,,,
329726,-1.4881797,7.366131,-5.5657206,-2.843006,9.657074,-3.910086,117.9,-143.70001,-15.900001,,x,,,,
329749,-1.3446254,7.144818,-4.764209,-2.964958,9.253108,-3.6585598,139.5,-146.1,-16.5,,x,,,,
329769,-1.1813323,6.9169254,-4.021315,-2.835384,8.826276,-3.567096,141.90001,-138.90001,-9.3,,x,,,,
329792,-0.9438696,6.2805014,-3.489566,-2.13416,8.346089,-3.612828,137.1,-143.70001,-12.900001,,x,,,,
329812,-0.63462967,6.5065994,-2.8483567,-1.3795819,6.8598,-3.1783738,134.70001,-146.1,-18.900002,,x,,,,
329832,-0.694444,5.815744,-2.2490175,-1.3643379,6.486322,-3.2927039,139.5,-146.1,-6.3,,x,,,,
329852,-0.4151112,6.0400476,-1.9188427,-0.64787,5.9375377,-2.7820299,139.5,-138.90001,-5.7000003,,x,,,,
329873,-0.38041893,6.7667913,-1.7699051,-0.16768399,5.556438,-2.560992,139.5,-150.90001,-15.3,,x,,,,
329894,-0.66214424,7.382879,-1.908076,-0.243904,5.251558,-2.888738,137.1,-146.1,-15.3,,x,,,,
329914,-0.44322395,8.557034,-2.2041569,-0.053354,4.855214,-2.538126,139.5,-138.90001,-13.500001,,x,,,,
329934,-1.0174412,9.786816,-2.2292788,-0.198172,4.64942,-2.576236,144.3,-146.1,-10.5,,x,,,,
329954,-1.7388016,10.292246,-2.7879443,-1.554888,4.855214,-2.85825,141.90001,-131.70001,-9.900001,,x,,,,
330018,-2.5486872,10.378379,-4.442408,-0.045732,2.179892,-1.1280559,146.70001,-124.50001,-5.1000004,,x,,,,
330081,-2.1144354,9.2443,-4.214515,-0.70122397,-0.46494198,-1.577754,134.70001,-143.70001,-8.700001,,x,,,,
330101,-1.9337962,8.899171,-4.1475234,-1.432936,-0.602138,-0.60976,141.90001,-129.3,-3.9,,x,,,,
330123,-1.74897,8.875844,-4.053615,-1.9054999,-0.907018,0.259148,139.5,-131.70001,-9.900001,,x,,,,
330143,-1.3697474,8.714943,-3.6295316,-2.035074,-1.3719599,0.731712,139.5,-134.1,-4.5,,x,,,,
330207,-0.3146232,7.6191454,-2.8938158,-1.25763,-0.320124,0.868908,146.70001,-138.90001,-11.1,,,,,,
330227,-0.28710863,7.9678626,-2.9966962,-0.22865999,-0.274392,1.097568,153.90001,-134.1,-11.700001,,,,,,
330248,-0.29428634,8.443386,-3.212626,0.091464,0.0,0.91463995,134.70001,-148.5,-8.700001,,,,,,
330268,-0.27933276,8.646156,-3.4865754,0.274392,0.221038,0.426832,149.1,-138.90001,-10.5,,,,,,
330288,-0.40853164,8.742457,-3.6666164,0.259148,0.41921,0.121952,144.3,-141.3,-14.700001,,,,,,
330332,-0.6095077,9.242505,-3.9746602,0.099086,0.26677,0.045732,153.90001,-138.90001,-11.1,,,,,,
330352,-0.25122005,9.570886,-4.1493177,-0.099086,0.388722,-0.55640596,141.90001,-148.5,-8.700001,,,,,,
330372,-0.46475708,8.726308,-4.0009785,-0.20579399,0.41921,-0.884152,139.5,-148.5,-11.1,,,,,,
330392,-0.40613908,9.08938,-4.008156,-0.068598,0.198172,-0.55640596,144.3,-148.5,-23.7,,,,,,
330414,-0.38041893,8.775355,-3.9004903,-0.137196,0.289636,-0.46494198,144.3,-146.1,-6.3,,,,,,
330477,-0.27873462,8.745448,-3.57211,-0.19055,0.830798,-0.327746,146.70001,-126.9,-10.5,,,,,,
330558,-0.4175038,8.698793,-3.24672,-0.26677,1.471046,-0.198172,129.90001,-148.5,-9.3,,,,,,
330600,-0.76622117,8.687428,-3.2867956,-0.022866,1.501534,-0.548784,132.3,-129.3,-2.1000001,,,,,,
330620,-0.9857396,8.80287,-3.2993567,0.129574,1.097568,-0.80793196,144.3,-138.90001,-11.1,,x,,,,
330640,-0.96659905,9.093568,-3.1246989,0.365856,0.480186,-0.891774,149.1,-138.90001,-13.500001,,x,,,,
330680,-1.7053056,9.101942,-2.154511,-0.891774,-0.007622,-0.67835796,149.1,-148.5,-14.700001,,x,,,,
330700,-2.400946,9.54696,-2.36745,-1.8673899,0.30488,-0.983238,146.70001,-138.90001,-8.1,,x,,,,
330724,-3.4985383,8.902162,-3.5218658,-2.408552,-0.884152,-0.663114,161.1,-131.70001,-3.3000002,,x,,,,
330744,-3.5469878,9.042128,-3.614578,-2.164648,-3.071666,0.60976,158.70001,-141.3,-15.900001,,x,,,,
330764,-3.1312785,9.597204,-4.1941786,-2.05794,-4.4664917,1.958854,156.3,-138.90001,-9.3,,x,,,,
330806,-2.288495,10.670871,-5.3306503,0.388722,-8.544262,3.2927039,134.70001,-146.1,-9.3,,x,,,,
330826,-2.1473334,10.215086,-5.643479,0.884152,-11.006167,2.7058098,146.70001,-138.90001,-17.7,,x,,,,
330846,-1.8189528,9.458435,-5.2391343,1.3414719,-13.841552,3.2088618,137.1,-134.1,-17.7,,x,,,,
330888,-1.4319543,7.4157767,-3.4028354,0.068598,-15.708941,2.301844,141.90001,-141.3,-24.300001,,x,,,,
330918,-0.86910176,6.2763143,-2.192194,0.56402797,-15.533636,2.7896519,137.1,-146.1,-15.900001,,x,,,,
330938,-0.74229544,5.20504,-1.5432088,0.480186,-14.161675,2.7667859,144.3,-160.5,-20.1,,x,,,,
330981,-0.45159793,4.1594863,-2.0193307,0.99086,-10.457384,3.528986,156.3,-153.3,-26.1,,x,,,,
331001,0.16568561,5.6183567,-2.7508595,2.926848,-9.832379,5.800342,125.100006,-150.90001,-20.7,,x,,,,
331021,0.78715616,7.0227966,-3.4082186,2.7591639,-8.521396,6.158576,122.700005,-148.5,-20.7,,x,,,,
331041,1.7071,8.511575,-4.2414317,2.7820299,-6.51681,6.0137577,125.100006,-160.5,-18.300001,,x,,,,
331062,1.9589182,9.980614,-4.9974847,3.056422,-4.314052,5.358266,105.9,-158.1,-20.7,,x,,,,
331082,1.9900217,12.025066,-6.120797,2.835384,-1.493912,4.30643,127.50001,-160.5,-23.7,,x,,,,
331147,1.4678428,12.10103,-6.7422676,-1.059458,3.7271578,-0.80793196,117.9,-165.3,-15.3,,x,,,,
331282,-0.07835673,7.2279596,-4.6074953,-1.059458,12.439104,-3.170752,127.50001,-150.90001,-21.300001,,x,,,,
331302,-0.01614986,7.106537,-3.7748804,-0.93750596,11.943674,-2.911604,115.50001,-153.3,-21.900002,,x,,,,
331342,-0.33316565,6.284688,-3.485379,-0.846042,10.762263,-3.910086,120.3,-160.5,-17.7,,x,,,,
331365,-0.3283805,5.676975,-2.9003952,-0.068598,9.314084,-3.833866,120.3,-150.90001,-15.3,,x,,,,
331385,-0.05024401,6.38398,-2.5989313,0.60976,8.186028,-3.064044,125.100006,-141.3,-13.500001,,x,,,,
331405,-0.21174261,6.6029,-2.2986634,1.02897,7.0655937,-3.521364,117.9,-153.3,-12.900001,,x,,,,
331468,-0.029309006,8.843544,-1.8159621,0.92226195,4.214966,-2.926848,134.70001,-138.90001,-9.900001,,x,,,,
331511,-1.5150962,9.776049,-3.4716218,0.182928,3.940574,-3.7271578,125.100006,-136.5,-15.3,,x,,,,
331531,-2.731719,9.99437,-3.953725,0.625004,2.850628,-3.2088618,134.70001,-141.3,-10.5,,x,,,,
331551,-3.622952,10.437594,-4.6140747,0.64787,1.737816,-2.7667859,137.1,-153.3,-7.5000005,,x,,,,
331571,-3.5445952,10.853304,-4.572205,0.35061198,0.26677,-2.606724,156.3,-134.1,-14.700001,,x,,,,
331591,-3.5834746,10.303013,-4.431641,-1.013726,-0.28201398,-2.614346,149.1,-134.1,-8.1,,x,,,,
331614,-3.2730384,9.6049795,-4.4160895,-1.8445239,-0.602138,-1.737816,137.1,-138.90001,-12.900001,,x,,,,
331634,-2.4535825,9.081007,-4.099672,-2.004586,-0.80030996,-0.396344,153.90001,-129.3,-17.7,,x,,,,
331696,-0.65377027,8.156876,-3.3005528,-0.57164997,-0.49543,1.9054999,144.3,-143.70001,-9.900001,,,,,,
331717,-0.27753833,8.375796,-3.2323647,-0.144818,-0.03811,1.6158639,137.1,-148.5,-12.3,,,,,,
331758,-0.4940661,8.663503,-3.5822783,-0.007622,-0.182928,0.11432999,151.5,-143.70001,-9.3,,,,,,
331778,-0.535338,8.507387,-3.5751004,-0.083841994,-0.358234,-0.022866,134.70001,-143.70001,-11.1,,,,,,
331801,-0.30385664,8.822609,-3.368143,-0.213416,-0.67835796,0.091464,153.90001,-136.5,-9.3,,,,,,
331821,-0.27933276,8.622829,-3.2329628,-0.49543,-0.3811,-0.091464,161.1,-148.5,-11.1,,,,,,
331882,-0.5233751,8.9894905,-3.4716218,-0.251526,0.518296,-0.358234,132.3,-134.1,-11.1,,,,,,
331902,-0.65496653,8.890797,-3.523062,-0.221038,0.41158798,-0.525918,146.70001,-136.5,-14.700001,,,,,,
331922,-0.7219586,8.976332,-3.6008208,-0.091464,0.137196,-0.46494198,141.90001,-138.90001,-14.700001,,,,,,
331942,-0.6878644,9.076221,-3.5212677,-0.068598,-0.129574,-0.358234,137.1,-138.90001,-11.1,,,,,,
331966,-0.6268538,8.998463,-3.4997346,-0.297258,-0.19055,-0.19055,134.70001,-143.70001,-15.3,,,,,,
331986,-0.59275967,8.862086,-3.5290434,-0.274392,-0.17530599,-0.083841994,134.70001,-146.1,-12.3,,,,,,
332006,-0.56464696,8.894984,-3.5487823,-0.19055,-0.160062,0.137196,153.90001,-146.1,-11.1,,,,,,
332030,-0.45399052,8.768776,-3.5332305,-0.213416,-0.11432999,0.312502,144.3,-143.70001,-12.3,,,,,,
332050,-0.31103435,8.737075,-3.530838,-0.182928,-0.045732,0.41921,146.70001,-143.70001,-12.900001,,,,,,
332070,-0.20097604,8.953004,-3.3687413,-0.137196,0.03811,0.35061198,144.3,-148.5,-16.5,,,,,,
332090,-0.2075556,8.890199,-3.2939734,-0.41921,0.22865999,0.045732,146.70001,-141.3,-14.1,,,,,,
332111,-0.22729433,8.705971,-3.299955,-0.45731997,0.41158798,0.045732,134.70001,-138.90001,-8.700001,,,,,,
332191,-0.21892032,8.743654,-3.0403607,0.213416,0.82317597,-0.525918,141.90001,-148.5,-11.1,,,,,,
332299,-1.62336,8.792104,-3.0277996,0.17530599,-0.7622,-0.15244,153.90001,-138.90001,-13.500001,,x,,,,
332320,-2.1521184,9.200037,-2.9554243,-0.327746,-1.1051899,0.289636,161.1,-141.3,-15.3,,x,,,,
332360,-3.2060463,9.3244505,-3.4925568,-1.25763,-1.8292799,0.94512796,141.90001,-138.90001,-9.900001,,x,,,,
332380,-3.192887,9.120484,-3.7928245,-0.967994,-3.12502,2.149404,141.90001,-143.70001,-12.3,,x,,,,
332404,-2.861516,9.329236,-4.3413215,0.015244,-4.5122237,3.7271578,132.3,-136.5,-9.900001,,x,,,,
332424,-2.6144829,10.103233,-4.5207644,1.707328,-7.0960817,4.245454,146.70001,-138.90001,-15.3,,x,,,,
332444,-3.0272017,9.462622,-4.835986,1.6234859,-7.4543157,3.8186219,141.90001,-146.1,-11.1,,x,,,,
332464,-2.9859297,9.610961,-5.5962257,2.492394,-9.779026,4.474114,144.3,-134.1,-8.700001,,x,,,,
332484,-2.279523,8.975135,-5.4060163,2.545748,-13.193682,4.5427117,132.3,-146.1,-17.1,,x,,,,
332504,-1.8907299,8.067753,-4.8599114,1.974098,-15.47266,4.984788,125.100006,-153.3,-11.1,,x,,,,
332524,-1.1466401,6.8325872,-4.3855844,2.012208,-16.631203,5.0533857,134.70001,-150.90001,-6.3,,x,,,,
332545,0.22370547,6.25837,-2.948845,2.149404,-16.631203,5.480218,137.1,-134.1,-15.3,,x,,,,
332566,0.7428936,5.078832,-2.6515677,1.75306,-14.336982,5.0076537,125.100006,-148.5,-17.1,,x,,,,
332586,1.309335,4.4352303,-2.5750055,2.606724,-12.400993,5.823208,122.700005,-148.5,-24.900002,,x,,,,
332606,2.0426583,4.9681754,-2.506817,2.850628,-10.297321,6.51681,129.90001,-153.3,-26.1,,x,,,,
332626,2.3094301,5.074645,-2.8788621,2.339954,-7.728708,5.708878,122.700005,-162.90001,-18.900002,,x,,,,
332646,3.0266035,6.506001,-3.5535674,2.644834,-5.190582,5.64028,120.3,-153.3,-14.1,,x,,,,
332666,3.4632478,8.304019,-4.122401,1.94361,-2.47715,4.862836,103.50001,-162.90001,-23.7,,x,,,,
332726,2.6557548,12.263127,-9.631298,3.16313,7.5762677,0.68597996,89.100006,-160.5,-18.300001,,x,,,,
332801,2.083332,10.448361,-7.9493203,-1.150922,7.721086,-5.350644,91.5,-150.90001,-14.700001,,x,,,,
332960,-0.66034985,6.28409,-3.6755886,-3.2469718,10.975679,-4.794238,110.700005,-148.5,-14.700001,,x,,,,
332980,-0.6513777,6.120797,-3.3896763,-2.568614,9.466524,-4.68753,122.700005,-158.1,-15.900001,,x,,,,
333022,-0.90798104,6.698603,-2.7574391,-0.69360197,6.951264,-4.618932,129.90001,-138.90001,-14.1,,x,,,,
333062,-0.9887303,7.4050097,-2.142548,-0.083841994,4.664664,-4.5274677,137.1,-138.90001,-7.5000005,,x,,,,
333082,-0.98095447,9.948912,-2.6725028,-0.426832,4.657042,-3.1936178,129.90001,-150.90001,-6.9,,x,,,,
333102,-1.5665364,11.209199,-2.643792,-1.234764,3.971062,-4.184478,137.1,-143.70001,-13.500001,,x,,,,
333149,-2.5427058,10.356247,-3.287992,-1.48629,3.041178,-3.902464,139.5,-146.1,-6.9,,x,,,,
333169,-3.2610755,9.490136,-3.4841828,-1.3948259,2.51526,-3.567096,149.1,-129.3,-9.3,,x,,,,
333189,-3.4447055,9.785021,-3.7671044,-0.594516,2.004586,-2.919226,137.1,-136.5,-11.1,,x,,,,
333209,-3.6881495,9.671373,-4.3269663,0.07622,1.6311079,-2.873494,149.1,-134.1,-11.1,,x,,,,
333229,-3.610989,9.093568,-4.6798706,0.7622,0.30488,-1.8750119,144.3,-138.90001,-13.500001,,x,,,,
333249,-2.4721248,9.038538,-4.238441,0.068598,-1.25763,1.196654,156.3,-136.5,-11.700001,,x,,,,
333329,-0.061608724,8.315384,-3.1558022,-1.417692,-1.783548,1.75306,146.70001,-131.70001,-8.700001,,x,,,,
333349,0.12321745,8.20712,-3.0648847,-1.227142,-1.3872039,1.1280559,144.3,-141.3,-20.1,,x,,,,
333369,0.016748004,8.433816,-3.2018592,-0.99086,-1.02897,0.72409,132.3,-141.3,-13.500001,,,,,,
333389,0.009570288,8.448172,-3.191691,-0.57164997,-0.94512796,0.28201398,137.1,-136.5,-13.500001,,,,,,
333412,-0.1309933,8.645558,-3.2987585,-0.243904,-0.541162,-0.060976,151.5,-129.3,-12.3,,,,,,
333433,-0.033496007,9.028968,-3.2951696,-0.060976,-0.060976,-0.259148,139.5,-143.70001,-15.900001,,,,,,
333457,-0.0891233,8.917115,-3.506314,-0.358234,0.625004,-0.739334,137.1,-143.70001,-11.700001,,,,,,
333477,-0.3104362,8.580361,-3.602615,-0.28201398,0.975616,-0.7622,141.90001,-134.1,-8.1,,,,,,
333499,-0.31761393,8.772365,-3.7425807,0.129574,0.891774,-0.396344,149.1,-136.5,-9.3,,,,,,
333519,-0.45877567,8.908143,-3.7389917,0.007622,0.82317597,-0.3811,144.3,-134.1,-17.1,,,,,,
333541,-0.5514878,8.841749,-3.8729758,-0.068598,0.739334,-0.365856,144.3,-136.5,-8.700001,,,,,,
333562,-0.36965236,8.939845,-3.7629175,0.015244,0.586894,-0.320124,153.90001,-129.3,-3.9,,,,,,
333582,-0.5413194,8.6324,-3.7718897,-0.19055,0.785066,-0.22865999,146.70001,-148.5,-12.3,,,,,,
333604,-0.6705183,8.804665,-3.815554,0.022866,0.716468,0.045732,158.70001,-143.70001,-5.7000003,,,,,,
333624,-0.61070395,8.66111,-3.7025049,-0.060976,0.518296,0.053354,156.3,-129.3,-11.1,,,,,,
333644,-0.5891708,8.911732,-3.5948393,-0.091464,0.449698,0.07622,151.5,-146.1,-9.900001,,,,,,
333664,-0.58558196,8.762197,-3.4405184,-0.327746,0.503052,-0.182928,151.5,-129.3,-5.7000003,,,,,,
333684,-0.59933925,8.652737,-3.3196936,-0.47256398,0.655492,-0.083841994,139.5,-134.1,-8.700001,,,,,,
333706,-0.49047723,9.069642,-3.2897863,-0.49543,0.746956,-0.091464,137.1,-134.1,-6.3,,,,,,
333726,-0.53832865,9.072035,-3.259879,-0.57164997,0.746956,-0.579272,149.1,-126.9,-5.7000003,,,,,,
333746,-0.5592637,8.744252,-3.1109416,-0.373478,0.541162,-0.739334,149.1,-131.70001,-12.900001,,,,,,
333766,-0.5957504,8.683242,-2.9685836,-0.297258,0.47256398,-0.503052,139.5,-136.5,-12.900001,,,,,,
333789,-0.66214424,8.721522,-3.0230145,-0.045732,0.525918,-0.602138,139.5,-134.1,-16.5,,,,,,
333809,-0.6687238,8.747243,-3.0738568,0.312502,0.396344,-0.548784,153.90001,-134.1,-7.5000005,,,,,,
333829,-0.7267437,8.662307,-3.1055584,0.510674,0.182928,-0.45731997,149.1,-136.5,-9.900001,,,,,,
333849,-0.7620341,8.746046,-3.0505292,0.602138,0.068598,-0.07622,151.5,-138.90001,-17.1,,,,,,
333869,-0.9462622,8.703578,-3.049931,0.434454,0.0,0.068598,139.5,-141.3,-7.5000005,,,,,,
333893,-1.1681732,8.614455,-3.1707559,0.312502,-0.19055,0.259148,141.90001,-131.70001,-17.7,,x,,,,
333913,-1.53962,9.103138,-3.3807042,0.015244,-0.69360197,0.87653,153.90001,-136.5,-8.1,,x,,,,
333934,-1.5671346,9.251477,-3.3460119,-0.144818,-0.998482,1.082324,139.5,-141.3,-15.3,,x,,,,
333954,-1.8165601,9.340002,-3.4584627,-0.846042,-1.3719599,1.5244,149.1,-143.70001,-7.5000005,,x,,,,
333974,-1.8087844,10.478269,-3.5218658,-1.471046,-2.484772,2.660078,137.1,-150.90001,-10.5,,x,,,,
333995,-1.8799634,10.596701,-3.7258325,-1.699706,-2.7286758,2.568614,144.3,-143.70001,-2.1000001,,x,,,,
334015,-2.3118227,10.36163,-4.3144054,-1.509156,-3.7728899,2.47715,146.70001,-148.5,-10.5,,x,,,,
334035,-2.2890933,10.94183,-4.6535525,-0.274392,-6.150954,3.102154,129.90001,-155.70001,-14.700001,,x,,,,
334055,-2.238251,10.858687,-4.3873787,0.022866,-8.452798,3.361302,144.3,-150.90001,-11.700001,,x,,,,
334075,-2.4493954,9.774254,-3.908266,-0.35061198,-10.000064,3.2698379,144.3,-143.70001,-12.3,,x,,,,
334099,-2.0468452,8.40032,-4.188197,-0.33536798,-11.1586075,4.0320377,137.1,-148.5,-10.5,,x,,,,
334119,-1.9391795,7.083209,-4.188795,0.053354,-11.989406,3.7576458,127.50001,-153.3,-14.1,,x,,,,
334139,-1.4738243,5.8869233,-4.1074476,0.708846,-13.308012,4.298808,127.50001,-148.5,-9.3,,x,,,,
334159,-0.4498035,6.1136193,-2.9889205,1.021348,-14.8095455,5.175338,125.100006,-155.70001,-17.1,,x,,,,
334182,-0.074169725,5.7655,-1.9750681,0.41158798,-13.894906,4.352162,129.90001,-150.90001,-18.900002,,x,,,,
334202,0.5257677,5.4239607,-1.3105313,0.792688,-12.088491,3.567096,132.3,-158.1,-18.900002,,x,,,,
334223,0.34153965,4.2516003,-1.8267286,1.158544,-9.123534,2.835384,115.50001,-155.70001,-15.3,,x,,,,
334283,2.4063292,8.080314,-2.2597842,-0.213416,-2.903982,3.54423,113.100006,-158.1,-24.300001,,x,,,,
334303,2.1365666,8.34888,-4.178627,0.594516,0.640248,2.2256238,103.50001,-160.5,-19.5,,x,,,,
334323,2.9081712,11.982,-6.2099204,2.7896519,2.97258,2.987824,113.100006,-165.3,-10.5,,x,,,,
334343,2.8226366,12.879214,-8.323757,3.1936178,3.8109999,-0.35061198,96.3,-155.70001,-21.300001,,x,,,,
334366,2.673101,12.726688,-8.515761,2.484772,1.509156,-2.492394,115.50001,-172.5,-14.700001,,x,,,,
334386,2.400946,12.494609,-8.939845,1.509156,4.61131,-3.064044,108.3,-165.3,-18.900002,,x,,,,
334406,2.254401,12.40728,-9.212,0.297258,5.0076537,-3.2012398,120.3,-162.90001,-10.5,,x,,,,
334429,1.827925,10.856295,-7.6693892,-1.935988,5.693634,-3.92533,115.50001,-153.3,-15.3,,x,,,,
334449,0.9636083,8.457144,-6.7895207,-3.635694,8.163162,-4.375028,120.3,-158.1,-12.900001,,x,,,,
334471,0.1321896,6.651948,-6.0191126,-3.879598,9.535122,-3.7042918,115.50001,-160.5,-17.1,,x,,,,
334511,-0.5221788,6.1393394,-4.2904797,-2.469528,10.17537,-2.309466,120.3,-158.1,-17.1,,x,,,,
334532,-0.6388167,6.04902,-3.7886376,-2.09605,10.388785,-2.644834,129.90001,-158.1,-17.7,,x,,,,
334552,-0.23507018,6.7661934,-3.7132716,-1.06708,9.771403,-2.40093,125.100006,-150.90001,-17.7,,x,,,,
334572,-0.21234076,6.8014836,-3.175541,-0.602138,8.635726,-3.2012398,108.3,-150.90001,-11.700001,,x,,,,
334595,-0.11364716,6.439009,-2.6946342,0.259148,7.4238276,-3.7576458,120.3,-150.90001,-9.3,,x,,,,
334615,-0.18542433,6.217696,-2.338739,0.754578,6.775958,-4.131124,134.70001,-155.70001,-8.700001,,x,,,,
334636,-0.2829216,6.482075,-2.167072,0.998482,6.234796,-3.910086,122.700005,-146.1,-15.3,,x,,,,
334696,-0.6657331,9.873546,-1.7645217,-0.068598,3.7424018,-3.452766,139.5,-146.1,-12.3,,x,,,,
334719,-1.2925869,8.810048,-2.7711964,-0.640248,5.091496,-4.923812,122.700005,-150.90001,-21.900002,,x,,,,
334739,-1.8392897,9.275403,-3.481192,0.121952,4.390272,-3.6585598,134.70001,-146.1,-8.700001,,x,,,,
334799,-2.6928396,10.33292,-4.0266986,0.55640596,1.18141,-1.75306,129.90001,-143.70001,-10.5,,x,,,,
334821,-2.8399827,10.852108,-4.5931396,-0.022866,1.33385,-1.699706,134.70001,-126.9,-10.5,,x,,,,
334841,-2.9805465,11.090169,-5.2241807,0.33536798,0.868908,-2.050318,146.70001,-143.70001,-12.3,,x,,,,
334884,-1.9906198,8.756215,-4.715161,-0.121952,-1.1204339,-0.46494198,144.3,-122.100006,-11.1,,x,,,,
334924,-0.7542583,8.259158,-3.8568258,-0.868908,-1.089946,2.073184,168.3,-122.100006,-9.900001,,,,,,
334944,-0.3200065,8.10065,-3.434537,-1.265252,-0.95274997,1.9054999,151.5,-141.3,-9.900001,,,,,,
335004,0.7482768,7.9182167,-2.669512,-0.53354,-0.983238,0.617382,137.1,-138.90001,-6.9,,,,,,
335024,0.35709137,8.845338,-3.2527015,-0.396344,-0.579272,0.480186,132.3,-136.5,-8.700001,,,,,,
335044,0.1447506,8.883619,-3.4608552,0.007622,-0.69360197,-0.3811,151.5,-146.1,-12.3,,,,,,
335064,0.06519759,8.93805,-3.5619414,-0.007622,-0.716468,-0.68597996,139.5,-141.3,-8.700001,,,,,,
335124,-0.6513777,8.981715,-4.2563853,-0.442076,0.015244,-0.20579399,149.1,-138.90001,-9.3,,,,,,
335146,-0.70700496,8.958387,-4.22588,-0.40396598,-0.213416,0.16768399,141.90001,-146.1,-9.3,,,,,,
335166,-0.49227166,8.868068,-4.066774,-0.53354,-0.320124,0.480186,144.3,-131.70001,-11.1,,,,,,
335186,-0.48210323,8.448172,-3.8125632,-0.70122397,-0.15244,0.373478,134.70001,-134.1,-8.700001,,,,,,
335210,-0.29428634,8.622829,-3.6151762,-0.388722,0.41921,0.28201398,141.90001,-141.3,-9.900001,,,,,,
335230,-0.5209825,8.741859,-3.7132716,-0.53354,0.830798,-0.015244,139.5,-134.1,-12.900001,,,,,,
335250,-0.698631,8.582155,-3.7120752,-0.548784,0.7622,-0.30488,153.90001,-134.1,-8.1,,,,,,
335270,-0.56285256,8.628212,-3.6373074,-0.396344,0.655492,-0.23628199,149.1,-148.5,-15.3,,,,,,
335292,-0.43544808,8.761,-3.6917384,-0.33536798,0.64787,-0.22865999,139.5,-148.5,-14.700001,,,,,,
335312,-0.47492552,8.647353,-3.715066,-0.20579399,0.64787,-0.19055,146.70001,-148.5,-6.3,,,,,,
335334,-0.41570938,8.621035,-3.698318,-0.17530599,0.640248,-0.099086,134.70001,-138.90001,-10.5,,,,,,
335354,-0.30325848,8.570192,-3.689944,-0.137196,0.68597996,-0.106708,144.3,-150.90001,-11.1,,,,,,
335374,-0.30983806,8.634792,-3.7898338,-0.07622,0.739334,-0.358234,127.50001,-129.3,-12.3,,,,,,
335394,-0.29727706,8.647951,-3.8556297,0.015244,0.731712,-0.64787,144.3,-146.1,-8.1,,,,,,
335418,-0.3648672,8.654531,-3.8221335,-0.068598,0.754578,-0.899396,132.3,-146.1,-12.900001,,,,,,
335438,-0.4312611,8.686233,-3.7742822,-0.121952,0.80793196,-0.87653,144.3,-122.100006,-8.700001,,,,,,
335458,-0.45279422,8.804665,-3.768899,-0.16768399,0.891774,-0.87653,156.3,-143.70001,-6.9,,,,,,
335540,-1.0922091,8.964967,-3.7503564,-0.251526,0.541162,-0.640248,141.90001,-129.3,-3.9,,,,,,
335560,-1.2901944,8.726308,-3.5942411,-0.320124,0.091464,-0.449698,144.3,-129.3,-3.9,,,,,,
335601,-2.0157418,9.605578,-3.4124057,-0.769822,-0.213416,0.46494198,151.5,-138.90001,-14.700001,,x,,,,
335681,-3.9698749,10.304209,-5.120702,-0.67073596,-3.88722,3.46801,139.5,-136.5,-12.3,,x,,,,
335716,-3.6588407,9.823302,-5.400633,-0.525918,-7.179924,3.7500238,134.70001,-148.5,-9.900001,,x,,,,
335779,-1.2537076,7.8667765,-4.297059,0.480186,-15.655587,5.22107,127.50001,-153.3,-14.700001,,x,,,,
335799,-0.8816627,7.278802,-3.6887476,1.4024479,-17.37816,5.152472,125.100006,-146.1,-17.1,,x,,,,
335819,0.043664437,6.8720646,-2.774187,0.95274997,-18.460484,4.778994,134.70001,-160.5,-18.900002,,x,,,,
335840,0.62446123,5.965878,-2.0259101,0.091464,-17.45438,4.054904,132.3,-153.3,-14.700001,,x,,,,
335860,0.2601922,4.485474,-2.0881171,-0.289636,-15.022962,3.894842,132.3,-150.90001,-17.7,,x,,,,
335880,1.3242885,5.0196157,-2.0617988,0.891774,-14.001614,5.9222937,125.100006,-153.3,-15.900001,,x,,,,
335900,2.08393,5.360557,-2.0486398,1.310984,-11.905563,6.0290017,132.3,-150.90001,-24.300001,,x,,,,
335920,2.3746276,5.973654,-2.5540705,1.75306,-9.054935,5.9375377,113.100006,-162.90001,-21.900002,,x,,,,
335942,2.659942,7.7184367,-3.3286657,2.332332,-6.219552,5.464974,108.3,-160.5,-18.900002,,x,,,,
335963,2.3979552,9.719823,-4.67688,2.01983,-3.170752,3.978684,105.9,-155.70001,-12.3,,x,,,,
335983,2.447601,11.779828,-6.529927,2.385686,-0.34298998,2.652456,101.100006,-162.90001,-21.300001,,x,,,,
336003,2.4422178,12.498198,-7.7298017,2.32471,-0.221038,0.007622,98.700005,-158.1,-17.7,,x,,,,
336023,2.5373225,12.449748,-7.575481,1.699706,0.015244,-1.669218,103.50001,-162.90001,-20.1,,x,,,,
336043,2.7335134,12.79368,-7.366729,0.487808,3.056422,-2.995446,98.700005,-155.70001,-11.1,,x,,,,
336063,2.368048,11.633283,-7.2231746,-1.318606,6.3719916,-4.336918,101.100006,-146.1,-21.900002,,x,,,,
336083,1.4319543,10.089476,-6.7841377,-2.55337,8.826276,-4.5274677,113.100006,-150.90001,-19.5,,x,,,,
336105,0.18901318,7.9971714,-5.894699,-3.094532,10.419273,-4.38265,115.50001,-153.3,-12.900001,,x,,,,
336125,0.05203844,7.436712,-4.7582273,-2.7591639,10.571713,-4.11588,113.100006,-158.1,-23.1,,x,,,,
336145,0.41032606,7.408599,-3.9770527,-3.1783738,11.897942,-4.5274677,113.100006,-148.5,-24.300001,,x,,,,
336165,0.08374002,6.735688,-3.9776506,-3.033556,13.83393,-5.22107,134.70001,-160.5,-15.3,,x,,,,
336185,-0.11364716,6.621443,-3.8628073,-2.2942219,13.7577095,-5.137228,129.90001,-150.90001,-17.7,,x,,,,
336205,-0.3062492,6.1524987,-3.4357333,-1.75306,13.109839,-5.045764,120.3,-150.90001,-17.1,,x,,,,
336229,-0.3158195,6.287081,-3.1707559,-1.189032,12.782094,-4.618932,122.700005,-148.5,-10.5,,x,,,,
336269,-0.4803088,6.4414015,-3.1061563,-0.26677,11.753123,-4.710396,129.90001,-155.70001,-13.500001,,x,,,,
336289,-0.7853617,6.1483116,-3.1366618,0.22865999,10.6708,-4.778994,146.70001,-143.70001,-20.7,,x,,,,
336313,-0.9468603,6.442,-2.7640188,0.57164997,9.550365,-4.291186,137.1,-153.3,-14.1,,x,,,,
336333,-0.7716044,8.005546,-2.9482467,0.297258,9.1768875,-3.864354,141.90001,-136.5,-8.1,,x,,,,
336353,-0.9977025,9.808349,-3.4112093,0.28201398,8.5899935,-4.15399,134.70001,-141.3,-12.900001,,x,,,,
336373,-1.6855669,10.469296,-3.8544333,0.221038,7.4238276,-5.114362,141.90001,-153.3,-12.900001,,x,,,,
336393,-1.7256424,11.161347,-3.8837423,-0.388722,5.8765616,-4.5122237,146.70001,-131.70001,-13.500001,,x,,,,
336416,-2.731719,9.207214,-3.9387715,-1.6158639,5.44973,-4.5427117,144.3,-138.90001,-10.5,,x,,,,
336436,-3.2832067,9.5942135,-4.486072,-0.518296,4.603688,-3.6738038,141.90001,-129.3,-6.3,,x,,,,
336458,-3.8837423,10.066746,-4.928698,0.198172,3.597584,-3.460388,149.1,-129.3,-13.500001,,x,,,,
336479,-4.1612806,10.079308,-5.327061,0.373478,2.2789779,-3.16313,146.70001,-124.50001,-9.3,,x,,,,
336500,-3.8011985,9.601391,-5.2020493,0.137196,0.388722,-1.730194,158.70001,-136.5,-8.700001,,x,,,,
336520,-3.2491126,9.14441,-4.7887325,-0.67835796,-0.983238,0.312502,158.70001,-146.1,-5.7000003,,x,,,,
336540,-2.3237855,8.738869,-4.317396,-1.3490939,-1.920744,2.17227,156.3,-119.700005,-9.900001,,x,,,,
336560,-1.2967739,8.73528,-3.6588407,-1.6234859,-2.47715,3.1859958,153.90001,-119.700005,-9.900001,,x,,,,
336584,-0.4898791,8.19755,-3.2108314,-1.699706,-2.2180018,2.964958,156.3,-141.3,-12.900001,,x,,,,
336604,-0.06639387,8.201736,-2.9685836,-1.189032,-2.2484899,2.59148,149.1,-143.70001,-9.900001,,,,,,
336624,0.072973445,8.157474,-2.7975147,-0.99086,-2.050318,2.080806,146.70001,-143.70001,-12.3,,,,,,
336644,-0.112450875,8.346487,-2.887236,-0.777444,-1.669218,1.516778,134.70001,-141.3,-11.700001,,,,,,
336664,-0.08972145,8.391348,-2.865105,-0.586894,-1.463424,0.983238,149.1,-138.90001,-8.700001,,,,,,
336684,0.03229972,8.7089615,-2.9757612,-0.28201398,-1.06708,0.754578,137.1,-136.5,-8.1,,,,,,
336704,-0.10826388,8.81902,-3.058305,-0.160062,-0.57164997,0.487808,139.5,-150.90001,-14.1,,,,,,
336744,-0.39896137,8.798683,-3.4189851,-0.40396598,0.28201398,0.365856,134.70001,-146.1,-9.900001,,,,,,
336764,-0.4384388,8.6437645,-3.5828764,-0.41921,0.426832,0.45731997,151.5,-153.3,-13.500001,,,,,,
336784,-0.39836323,8.984706,-3.76531,-0.15244,0.289636,0.388722,132.3,-141.3,-11.700001,,,,,,
336804,-0.2548089,9.2592535,-3.8119652,-0.137196,0.144818,0.15244,146.70001,-136.5,-8.700001,,,,,,
336825,-0.053832866,9.276599,-3.8227317,-0.243904,0.068598,-0.015244,144.3,-143.70001,-14.1,,,,,,
336845,-0.0640013,8.643166,-3.6552517,-0.480186,0.15244,-0.045732,141.90001,-141.3,-15.3,,,,,,
336865,0.0077758585,8.722121,-3.509903,-0.327746,0.121952,0.49543,144.3,-136.5,-11.700001,,,,,,
336905,-0.23267761,9.094764,-3.6367092,-0.045732,0.70122397,-0.053354,151.5,-141.3,-5.7000003,,,,,,
336925,-0.40853164,8.930873,-3.5876615,0.091464,0.70122397,-0.449698,149.1,-150.90001,-9.3,,,,,,
336945,-0.5526841,8.72571,-3.5457916,0.11432999,0.56402797,-0.320124,151.5,-136.5,-4.5,,,,,,
336965,-0.64240557,8.762197,-3.4668367,0.16768399,0.34298998,0.007622,141.90001,-136.5,-10.5,,,,,,
336989,-0.7309307,8.637783,-3.3872836,0.137196,0.060976,0.198172,141.90001,-141.3,-5.1000004,,,,,,
337009,-0.57421726,8.6868305,-3.0852215,0.137196,-0.243904,0.41158798,129.90001,-146.1,-12.900001,,,,,,
337029,-0.29428634,8.839356,-2.932097,-0.137196,0.045732,0.289636,139.5,-160.5,-9.900001,,,,,,
337052,-0.2924919,8.670082,-3.0523236,-0.289636,0.57164997,-0.160062,137.1,-146.1,-12.900001,,,,,,
337072,-0.35709137,8.49064,-3.0774455,-0.106708,0.60976,-0.068598,137.1,-146.1,-9.900001,,,,,,
337133,-0.2715569,8.685634,-3.06309,0.091464,0.396344,-0.289636,127.50001,-141.3,-5.1000004,,,,,,
337176,-0.68367743,8.789113,-3.334049,0.594516,-0.297258,-0.640248,146.70001,-143.70001,-9.900001,,,,,,
337221,-1.2584928,9.271814,-3.1994667,0.449698,-0.983238,-0.007622,144.3,-136.5,-6.9,,,,,,
337242,-1.5719197,10.248582,-2.8399827,-0.030488,-1.1280559,0.15244,144.3,-134.1,-11.700001,,x,,,,
337282,-3.1611855,9.225159,-3.7258325,-1.3490939,-1.234764,-0.213416,141.90001,-146.1,-11.700001,,x,,,,
337305,-3.6205595,8.954201,-4.078737,-0.907018,-3.08691,1.8750119,151.5,-131.70001,-8.1,,x,,,,
337325,-3.656448,9.406995,-4.393958,-0.510674,-5.495462,3.521364,141.90001,-143.70001,-10.5,,x,,,,
337345,-3.06309,10.076915,-4.5315313,-0.068598,-7.942124,3.940574,151.5,-138.90001,-11.1,,x,,,,
337408,-0.44860724,9.591223,-4.2492075,1.6158639,-16.394922,4.30643,134.70001,-167.70001,-14.700001,,x,,,,
337432,-0.5090197,8.871656,-3.898696,0.40396598,-16.646448,1.9054999,139.5,-138.90001,-14.1,,x,,,,
337452,-1.0993868,6.8367743,-3.8167503,1.1204339,-16.836998,-1.1204339,129.90001,-143.70001,-15.900001,,x,,,,
337472,-0.6029281,5.117711,-3.1121378,2.660078,-17.507734,-1.059458,149.1,-165.3,-30.300001,,x,,,,
337492,-0.2685662,4.990905,-2.0336862,2.454284,-16.059553,1.1051899,144.3,-138.90001,-21.900002,,x,,,,
337512,-0.032897864,5.0854115,-2.735906,1.722572,-13.22417,2.82014,151.5,-155.70001,-18.300001,,x,,,,
337532,0.53115094,5.0519156,-2.769402,2.2713559,-12.065626,4.207344,139.5,-155.70001,-20.7,,x,,,,
337552,1.108359,5.197264,-2.9817426,1.570132,-9.748538,5.769854,127.50001,-155.70001,-21.300001,,x,,,,
337572,1.7142777,7.057489,-3.489566,1.501534,-6.8979096,7.309498,139.5,-155.70001,-19.5,,x,,,,
337593,1.7711014,8.67427,-4.20016,0.785066,-3.6814258,6.608274,137.1,-148.5,-21.300001,,x,,,,
337613,2.2364566,10.901155,-5.3497906,0.625004,-0.663114,6.5091877,117.9,-158.1,-17.1,,x,,,,
337633,2.3213928,12.242192,-6.0723476,0.28201398,0.80030996,4.0320377,110.700005,-158.1,-26.1,,x,,,,
337653,2.3130188,12.524516,-6.6752753,1.211898,2.149404,1.227142,117.9,-153.3,-19.5,,x,,,,
337675,2.133576,12.383354,-7.3146906,1.8597679,3.483254,-0.868908,117.9,-160.5,-20.1,,x,,,,
337696,2.2113345,12.532291,-7.387066,1.745438,4.443626,-2.157026,115.50001,-158.1,-14.1,,x,,,,
337716,1.6167804,11.056075,-6.9546084,0.243904,6.684494,-4.100636,122.700005,-150.90001,-17.1,,x,,,,
337736,0.7434917,9.277796,-6.8648868,-1.189032,9.22262,-4.085392,117.9,-158.1,-20.1,,x,,,,
337759,-0.28890306,7.994779,-6.550264,-1.8673899,11.097631,-3.39179,122.700005,-153.3,-12.900001,,x,,,,
337779,-0.3200065,8.201736,-5.7212377,-1.516778,10.480249,-3.2164838,110.700005,-150.90001,-23.7,,x,,,,
337803,-0.14833945,8.102445,-4.711572,-2.035074,10.762263,-3.88722,117.9,-158.1,-15.3,,x,,,,
337823,-0.27036062,7.291363,-4.2396374,-2.43904,11.615928,-4.893324,122.700005,-146.1,-17.7,,x,,,,
337843,0.13458216,6.974347,-3.5278473,-2.126538,10.929948,-4.9161897,125.100006,-148.5,-9.3,,x,,,,
337865,0.20396675,6.4031205,-2.7466726,-2.09605,10.968058,-5.160094,139.5,-148.5,-10.5,,x,,,,
337885,0.031701576,6.2619586,-2.5116024,-1.8978779,11.39489,-5.320156,146.70001,-148.5,-18.300001,,x,,,,
337907,-0.63223714,5.6536474,-2.5199764,-0.625004,10.465006,-5.94516,132.3,-148.5,-8.1,,x,,,,
337927,-1.0503391,5.7038913,-2.4804988,0.198172,9.41317,-5.464974,141.90001,-138.90001,-17.1,,x,,,,
337947,-1.4487023,6.392354,-2.6324272,0.56402797,8.391822,-4.4512477,141.90001,-146.1,-16.5,,x,,,,
337970,-1.53962,8.256167,-2.6114922,0.7622,6.9436417,-3.3155699,146.70001,-138.90001,-9.3,,x,,,,
338010,-2.4565732,9.880724,-3.664224,-2.01983,7.4848037,-3.7576458,156.3,-146.1,-11.1,,x,,,,
338030,-2.5654352,9.720422,-4.1050553,-1.006104,5.693634,-3.460388,151.5,-134.1,-11.1,,x,,,,
338050,-2.5032284,10.740853,-4.1708508,-0.030488,4.0472817,-2.812518,139.5,-131.70001,-5.1000004,,x,,,,
338070,-3.1767373,9.884911,-4.3383307,-0.106708,3.01069,-3.368924,158.70001,-136.5,-9.3,,x,,,,
338094,-3.0780437,9.850817,-4.2025523,0.35061198,1.669218,-2.89636,153.90001,-131.70001,-10.5,,x,,,,
338114,-3.1988685,9.65941,-4.526746,-0.213416,1.577754,-2.7210538,149.1,-138.90001,-13.500001,,x,,,,
338134,-3.2473183,9.093568,-4.7223387,-0.15244,0.868908,-1.935988,165.90001,-136.5,-14.700001,,x,,,,
338156,-2.7299244,8.842946,-4.2701426,-0.541162,-0.259148,-0.297258,151.5,-138.90001,-6.3,,x,,,,
338176,-2.205353,8.681447,-3.7730858,-1.082324,-0.60976,0.746956,153.90001,-136.5,-9.900001,,x,,,,
338196,-1.7250444,8.359646,-3.4171908,-1.280496,-0.853664,1.250008,144.3,-129.3,-10.5,,x,,,,
338218,-1.187912,8.381778,-2.9895186,-1.189032,-1.051836,1.707328,158.70001,-136.5,-20.1,,,,,,
338238,-0.7716044,8.753224,-2.6180718,-1.3414719,-0.81555396,1.6387299,161.1,-129.3,-6.9,,,,,,
338258,-0.93609375,8.260354,-2.6545584,-1.547266,-0.221038,0.83842,161.1,-136.5,-11.700001,,,,,,
338280,-0.7291363,8.404507,-2.6874564,-1.097568,-0.22865999,0.663114,156.3,-148.5,-14.700001,,,,,,
338304,-0.70521057,9.273608,-3.47222,-0.72409,0.17530599,0.396344,158.70001,-134.1,-14.1,,,,,,
338325,-0.794932,8.826796,-3.6582425,-0.34298998,-0.41158798,-0.198172,161.1,-138.90001,-11.700001,,,,,,
338345,-0.28112718,8.947022,-3.5918486,0.045732,-1.051836,0.34298998,153.90001,-134.1,-12.3,,,,,,
338365,0.04844958,8.740065,-3.4453034,-0.434454,-0.884152,0.45731997,144.3,-141.3,-11.1,,,,,,
338385,0.39776507,8.8919935,-3.618167,-0.510674,-0.503052,0.716468,144.3,-141.3,-8.700001,,,,,,
338405,0.36546534,8.798683,-3.6761868,-0.289636,-0.22865999,0.34298998,146.70001,-143.70001,-15.900001,,,,,,
338425,0.045458864,8.243009,-3.7832544,-0.213416,-0.030488,-0.26677,149.1,-129.3,-12.3,,,,,,
338447,0.019140575,8.423648,-3.9232197,0.045732,-0.137196,-0.045732,158.70001,-148.5,-9.900001,,,,,,
338467,-0.31761393,8.131156,-4.1104383,-0.091464,0.099086,-0.083841994,163.5,-141.3,-13.500001,,,,,,
338489,-0.3200065,8.8058605,-4.258778,0.617382,-0.358234,0.510674,144.3,-148.5,-9.3,,,,,,
338509,-0.5526841,9.316077,-4.4280524,0.92226195,-0.55640596,0.388722,146.70001,-143.70001,-9.3,,,,,,
338529,-0.8206521,9.434509,-4.4956427,0.998482,-0.998482,0.053354,165.90001,-143.70001,-5.1000004,,,,,,
338550,-0.5909653,9.354956,-4.0841203,1.051836,-1.44818,0.022866,149.1,-131.70001,-3.3000002,,,,,,
338571,-0.933103,8.249588,-3.7724876,0.3811,-1.1128119,-0.251526,153.90001,-136.5,-6.9,,,,,,
338591,-1.2812222,7.6412764,-3.3543859,0.45731997,-0.640248,0.632626,151.5,-146.1,-7.5000005,,,,,,
338612,-1.2220061,8.753224,-3.5487823,0.19055,0.0,0.434454,151.5,-136.5,-9.3,,,,,,
338632,-1.146042,8.50021,-3.484781,-0.198172,0.365856,-0.487808,149.1,-141.3,-8.1,,,,,,
338652,-0.8296243,8.6324,-3.3956575,-0.56402797,0.586894,-0.579272,144.3,-136.5,-8.1,,,,,,
338714,-0.31701577,8.411086,-3.154008,-0.617382,1.493912,-0.891774,146.70001,-138.90001,-8.1,,,,,,
338734,-0.36666164,8.271719,-3.174943,-0.72409,2.088428,-0.94512796,144.3,-131.70001,-12.900001,,,,,,
338757,-0.6154891,8.709559,-3.5110993,-0.541162,2.423796,-1.059458,146.70001,-143.70001,-11.1,,,,,,
338778,-0.857737,9.0756235,-3.961501,-0.015244,2.2789779,-1.455802,156.3,-141.3,-17.1,,,,,,
338798,-1.3835047,8.862086,-4.2390394,0.03811,1.75306,-1.71495,163.5,-136.5,-8.1,,,,,,
338818,-1.4780113,9.00265,-4.3281627,0.160062,1.02897,-1.21952,146.70001,-131.70001,-11.700001,,,,,,
338838,-1.4911704,9.244898,-4.3401256,-0.060976,0.617382,-1.166166,144.3,-141.3,-11.700001,,,,,,
338858,-1.3422328,9.096559,-4.2366467,-0.07622,0.15244,-1.272874,149.1,-134.1,-11.1,,,,,,
338878,-1.2650723,8.6551285,-4.1068497,-0.03811,-0.19055,-1.173788,158.70001,-126.9,-9.900001,,,,,,
338898,-0.9277198,8.737673,-3.8275168,0.0,-0.442076,-0.53354,144.3,-126.9,-11.700001,,,,,,
338918,-0.66992015,9.082203,-3.564932,-0.33536798,-0.297258,-0.15244,158.70001,-129.3,-11.700001,,,,,,
338938,-0.7016217,8.742457,-3.501529,-0.632626,0.015244,-0.30488,156.3,-126.9,-5.7000003,,,,,,
338958,-0.72734183,8.495424,-3.2724402,-0.221038,0.083841994,-0.289636,158.70001,-141.3,-15.900001,,,,,,
339022,-1.3571864,8.766383,-3.6056058,0.434454,0.327746,-0.198172,146.70001,-138.90001,-9.900001,,,,,,
339042,-1.5222739,8.575576,-3.7449732,0.373478,0.015244,0.07622,158.70001,-138.90001,-12.900001,,,,,,
339062,-1.5402181,8.638979,-3.7186549,0.327746,-0.259148,0.56402797,153.90001,-131.70001,-15.3,,,,,,
339082,-1.4899741,9.156971,-3.694131,0.182928,-0.35061198,0.777444,144.3,-131.70001,-12.900001,,,,,,
339102,-1.869795,9.241309,-3.6367092,-0.099086,-0.259148,0.47256398,158.70001,-141.3,-12.900001,,x,,,,
339122,-2.2573917,9.050501,-3.593643,-0.56402797,-0.365856,0.35061198,146.70001,-141.3,-4.5,,x,,,,
339142,-2.748467,8.8489275,-3.685757,-0.846042,-0.60976,0.53354,146.70001,-141.3,-11.1,,x,,,,
339162,-3.4243686,8.576772,-3.7922266,-0.99086,-1.310984,0.754578,156.3,-138.90001,-8.1,,x,,,,
339202,-3.4997346,10.166636,-4.6828613,-0.099086,-3.559474,1.4024479,156.3,-136.5,-14.1,,x,,,,
339262,-2.740093,8.549855,-4.6080933,0.45731997,-8.605238,0.72409,151.5,-124.50001,-12.3,,x,,,,
339326,-1.0048802,7.326055,-3.7467675,1.3414719,-12.865935,1.074702,175.5,-141.3,-17.7,,x,,,,
339348,-0.39716694,6.869074,-2.6653252,1.02897,-13.308012,0.92226195,161.1,-134.1,-19.5,,x,,,,
339368,-0.093310304,6.9306827,-2.1066597,0.80030996,-12.644897,0.69360197,165.90001,-143.70001,-11.700001,,x,,,,
339389,0.038879294,6.993488,-1.723848,0.632626,-11.760746,0.426832,158.70001,-126.9,-21.300001,,x,,,,
339431,0.24882747,6.213509,-1.2166228,0.327746,-9.07018,1.6311079,168.3,-134.1,-21.900002,,x,,,,
339451,0.19379832,6.729707,-2.0713692,0.137196,-6.394858,2.93447,165.90001,-134.1,-21.300001,,x,,,,
339495,0.040075578,8.753822,-4.1403456,0.93750596,-2.385686,3.102154,149.1,-134.1,-18.900002,,x,,,,
339515,-0.002392572,10.31976,-5.480186,1.189032,-0.510674,3.346058,158.70001,-148.5,-22.5,,x,,,,
339537,0.17585403,12.243987,-6.8158393,1.3490939,-0.28201398,2.149404,161.1,-146.1,-17.1,,x,,,,
339557,0.23566833,12.348063,-7.0144224,0.92226195,0.30488,0.746956,151.5,-141.3,-20.1,,x,,,,
339637,-0.60472256,8.839356,-6.6196485,-2.2256238,7.705842,0.259148,151.5,-134.1,-16.5,,x,,,,
339685,-0.9211402,7.6789594,-5.86539,-2.47715,9.893355,1.02897,144.3,-146.1,-21.300001,,x,,,,
339705,-0.94028074,7.518059,-5.6045995,-1.8445239,9.977198,1.272874,137.1,-138.90001,-15.3,,x,,,,
339747,-0.47971067,7.046124,-3.7425807,-1.920744,9.596098,0.53354,132.3,-138.90001,-20.7,,x,,,,
339789,-0.24404234,6.8038764,-2.7065969,-1.6463519,8.978716,-0.92226195,134.70001,-146.1,-21.900002,,x,,,,
339859,-1.2662686,8.150894,-2.4733212,-0.213416,5.320156,-2.8048959,139.5,-146.1,-16.5,,x,,,,
339879,-0.62446123,9.394434,-1.7740921,-0.40396598,3.597584,-2.7591639,134.70001,-150.90001,-15.900001,,x,,,,
339922,-2.0187325,10.122972,-2.690447,-2.088428,4.771372,-4.908568,134.70001,-148.5,-12.900001,,x,,,,
339962,-3.015837,9.091773,-3.1013713,-1.1432999,2.05794,-3.894842,153.90001,-141.3,-14.1,,x,,,,
339982,-2.811272,10.117588,-3.0595014,-0.891774,1.554888,-2.583858,151.5,-141.3,-12.3,,x,,,,
340002,-2.6276422,10.606271,-3.2574866,-0.95274997,1.21952,-2.103672,151.5,-146.1,-24.300001,,x,,,,
340043,-2.4918637,8.958387,-3.422574,-0.602138,0.23628199,-1.417692,151.5,-138.90001,-11.700001,,x,,,,
340063,-1.9738718,8.958985,-3.1641762,-0.33536798,-0.49543,-0.182928,149.1,-141.3,-12.3,,,,,,
340103,-1.2064544,8.822011,-3.338834,-1.044214,-0.518296,0.67073596,163.5,-138.90001,-19.5,,,,,,
340127,-0.67709786,8.314785,-3.0104535,-0.754578,-1.051836,0.99086,153.90001,-136.5,-25.500002,,,,,,
340147,-0.5072252,8.4063015,-2.8710864,-0.60976,-0.92988396,1.1128119,149.1,-134.1,-14.1,,,,,,
340169,-0.35529694,8.61266,-2.8812547,-0.259148,-0.70122397,0.884152,163.5,-134.1,-18.300001,,,,,,
340189,-0.31402507,8.701186,-2.7538502,0.060976,-0.442076,0.358234,158.70001,-138.90001,-13.500001,,,,,,
340209,-0.2548089,8.473293,-2.6384087,0.35061198,-0.030488,0.022866,153.90001,-131.70001,-16.5,,,,,,
340232,-0.37503564,8.728103,-2.7580373,0.56402797,0.769822,-0.060976,153.90001,-143.70001,-17.1,,,,,,
340252,-0.7201641,9.004444,-3.1055584,0.56402797,1.44818,-0.17530599,153.90001,-138.90001,-15.3,,,,,,
340272,-0.9462622,9.051698,-3.4082186,0.754578,1.425314,-0.625004,146.70001,-146.1,-5.1000004,,,,,,
340292,-0.97377676,9.025977,-3.4776032,0.731712,1.318606,-0.655492,161.1,-136.5,-7.5000005,,,,,,
340312,-1.158603,8.941639,-3.6343167,0.602138,1.1356779,-0.510674,158.70001,-143.70001,-12.900001,,,,,,
340332,-1.313522,9.143213,-3.907668,0.160062,0.68597996,-0.182928,141.90001,-131.70001,-13.500001,,,,,,
340352,-1.1819305,9.061268,-3.9064717,0.160062,0.28201398,-0.129574,163.5,-153.3,-13.500001,,,,,,
340372,-0.954038,9.0977545,-3.7886376,-0.160062,0.060976,-0.022866,149.1,-136.5,-12.900001,,,,,,
340393,-0.8439797,8.792104,-3.7210474,-0.26677,0.221038,0.030488,156.3,-138.90001,-9.900001,,,,,,
340413,-0.72435117,8.841749,-3.6259427,-0.3811,0.198172,0.388722,158.70001,-134.1,-9.3,,,,,,
340436,-0.58558196,8.950013,-3.476407,-0.40396598,0.388722,0.289636,151.5,-141.3,-9.900001,,,,,,
340456,-0.61309654,8.953602,-3.3657506,-0.426832,0.579272,0.083841994,165.90001,-141.3,-17.7,,,,,,
340476,-0.67171454,8.934462,-3.343619,-0.41921,0.769822,-0.17530599,149.1,-143.70001,-14.1,,,,,,
340496,-0.6890607,8.875844,-3.3101232,-0.320124,0.80793196,-0.34298998,149.1,-141.3,-17.1,,,,,,
340519,-0.76981,8.6647,-3.1450357,-0.358234,0.846042,-0.274392,156.3,-136.5,-19.5,,,,,,
340539,-0.782371,8.8489275,-3.246122,-0.480186,0.884152,-0.106708,149.1,-143.70001,-13.500001,,,,,,
340559,-0.757249,8.827394,-3.2580848,-0.15244,0.769822,-0.182928,156.3,-141.3,-9.3,,,,,,
340602,-0.77938026,8.595314,-3.2676551,0.022866,0.503052,-0.07622,158.70001,-138.90001,-8.700001,,,,,,
340642,-0.77938026,8.991285,-3.4201815,0.121952,0.49543,-0.243904,151.5,-129.3,-11.700001,,,,,,
340682,-0.9103736,8.830983,-3.2156167,-0.274392,0.884152,-0.34298998,132.3,-146.1,-6.3,,,,,,
340704,-1.0054784,8.7520275,-3.1235025,-0.121952,0.861286,-0.15244,144.3,-131.70001,-20.1,,,,,,
340724,-1.0389743,9.069642,-2.941667,0.0,0.769822,-0.182928,161.1,-136.5,-11.1,,,,,,
340744,-1.2226043,9.072633,-2.7885425,-0.083841994,0.739334,-0.46494198,158.70001,-138.90001,-9.900001,,,,,,
340764,-1.4821982,9.209607,-2.6790824,-0.160062,0.731712,-0.510674,163.5,-131.70001,-9.3,,x,,,,
340787,-1.8231398,9.326245,-2.68626,-0.602138,0.739334,-0.41921,137.1,-136.5,-17.7,,x,,,,
340807,-2.4787045,9.438098,-2.7688038,-1.288118,0.72409,-0.22865999,139.5,-146.1,-12.3,,x,,,,
340827,-3.1270914,9.44707,-3.3950596,-2.118916,0.792688,-0.22865999,141.90001,-131.70001,-12.900001,,x,,,,
340847,-3.7515528,9.139625,-4.066774,-2.141782,0.015244,0.17530599,144.3,-143.70001,-10.5,,x,,,,
340867,-3.8376853,9.533801,-4.308424,-1.8521459,-2.004586,1.3490939,165.90001,-146.1,-4.5,,x,,,,
340890,-2.7831593,10.340097,-3.4865754,-1.8750119,-4.580822,1.547266,153.90001,-141.3,-21.900002,,x,,,,
340911,-2.915947,9.28617,-3.8747702,-1.280496,-5.495462,0.80030996,144.3,-138.90001,-12.900001,,x,,,,
340932,-2.991313,8.203531,-3.9513326,0.541162,-8.11743,1.1280559,146.70001,-146.1,-15.900001,,x,,,,
340952,-2.9727705,7.0772276,-3.4632478,1.006104,-10.7241535,1.56251,161.1,-136.5,-19.5,,x,,,,
340974,-2.4649472,7.2136045,-3.0032759,1.570132,-12.721118,2.393308,146.70001,-134.1,-14.700001,,x,,,,
340994,-1.907478,6.9288883,-2.39317,1.3948259,-13.704355,1.798792,149.1,-146.1,-17.1,,x,,,,
341014,-1.2142302,6.663911,-2.727532,1.760682,-13.56716,2.500016,146.70001,-136.5,-20.7,,x,,,,
341034,0.2895012,7.082611,-2.4870784,2.560992,-13.711978,4.024416,149.1,-141.3,-27.300001,,x,,,,
341054,0.6663313,6.684846,-2.301654,2.301844,-13.277524,4.38265,137.1,-141.3,-20.1,,x,,,,
341074,1.7519608,6.5071974,-2.1054633,1.951232,-11.516842,5.480218,141.90001,-150.90001,-19.5,,x,,,,
341098,2.5241632,7.0556946,-3.188102,2.812518,-7.195168,6.1052217,141.90001,-143.70001,-28.500002,,x,,,,
341118,2.9422653,9.550549,-4.4962406,4.100636,-4.291186,6.36437,132.3,-146.1,-15.3,,x,,,,
341180,2.7137747,11.79837,-7.7585125,3.08691,3.064044,-0.602138,117.9,-155.70001,-14.1,,x,,,,
341200,2.4703305,11.404194,-8.439199,2.522882,2.865872,-1.3643379,122.700005,-153.3,-23.1,,x,,,,
341220,1.9278148,10.923885,-7.3069143,0.998482,3.96344,-1.8826339,117.9,-141.3,-15.900001,,x,,,,
341242,1.2220061,10.224656,-7.3063164,-0.655492,7.225656,-2.606724,129.90001,-150.90001,-14.700001,,x,,,,
341262,0.4342518,9.141419,-6.9241033,-1.547266,8.826276,-2.85825,141.90001,-158.1,-19.5,,x,,,,
341282,-0.09630102,8.325552,-6.5377026,-1.9054999,10.1372595,-2.378064,127.50001,-148.5,-11.1,,x,,,,
341302,-0.1752559,7.797392,-5.6632175,-2.157026,9.94671,-2.187514,129.90001,-150.90001,-16.5,,x,,,,
341322,-0.46535522,6.644172,-4.7677975,-2.149404,10.02293,-2.332332,129.90001,-148.5,-22.5,,x,,,,
341345,-0.22370547,6.547273,-3.983632,-1.699706,10.030552,-1.745438,132.3,-143.70001,-10.5,,x,,,,
341365,-0.33256748,6.5945263,-3.237748,-1.6006199,9.961954,-2.370442,129.90001,-143.70001,-9.900001,,x,,,,
341428,-0.6334334,5.9850187,-2.0869207,-0.57164997,7.58389,-5.129606,127.50001,-153.3,-8.1,,x,,,,
341448,-0.4204945,6.201546,-1.4762169,-0.091464,6.295772,-4.321674,141.90001,-148.5,-11.700001,,x,,,,
341470,-0.32897863,7.368523,-1.3559902,0.053354,6.265284,-3.6738038,146.70001,-158.1,-8.700001,,x,,,,
341490,-0.39836323,9.497912,-1.8817577,0.03811,5.94516,-3.460388,134.70001,-150.90001,-9.900001,,x,,,,
341510,-1.543807,9.16056,-2.334552,-0.358234,5.5945477,-5.137228,137.1,-136.5,-7.5000005,,x,,,,
341530,-1.6430987,9.685131,-3.0343792,-0.243904,4.718018,-3.894842,151.5,-141.3,-8.1,,x,,,,
341552,-1.8674023,11.503486,-3.6008208,-0.30488,3.932952,-2.93447,141.90001,-146.1,-7.5000005,,x,,,,
341594,-3.5170808,9.391443,-4.463941,0.518296,0.663114,-2.522882,153.90001,-131.70001,-5.1000004,,x,,,,
341614,-3.054118,10.529111,-4.120607,0.487808,-0.144818,-1.737816,158.70001,-131.70001,-14.700001,,x,,,,
341634,-3.0571086,10.478269,-4.5787845,-0.35061198,0.251526,-2.080806,168.3,-126.9,-9.900001,,x,,,,
341654,-3.1115398,9.331629,-4.5207644,-0.3811,-0.33536798,-1.745438,156.3,-134.1,-9.3,,x,,,,
341674,-2.8304126,8.749037,-4.2701426,-0.548784,-1.02897,-0.312502,163.5,-131.70001,-10.5,,x,,,,
341694,-2.4278624,8.39075,-3.911855,-0.67073596,-1.547266,0.92988396,153.90001,-138.90001,-4.5,,x,,,,
341714,-1.790242,8.64496,-3.6151762,-0.731712,-1.8369019,1.814036,151.5,-129.3,-14.700001,,x,,,,
341735,-1.0820407,8.696999,-3.23057,-0.830798,-1.966476,1.661596,156.3,-146.1,-13.500001,,x,,,,
341755,-0.7034161,8.482863,-3.0882123,-0.82317597,-1.94361,1.204276,149.1,-136.5,-12.3,,x,,,,
341775,-0.5867783,8.151492,-2.9775558,-0.67073596,-1.745438,1.013726,153.90001,-126.9,-11.700001,,x,,,,
341795,-0.6172835,8.371011,-3.0906048,-0.602138,-1.3948259,1.044214,161.1,-136.5,-15.900001,,x,,,,
341815,-0.41870007,8.859096,-3.1426432,-0.259148,-1.059458,0.82317597,149.1,-146.1,-8.700001,,,,,,
341835,-0.28710863,8.916517,-3.1534097,-0.07622,-0.64787,0.22865999,149.1,-143.70001,-10.5,,,,,,
341857,-0.28052905,8.680251,-3.2168128,0.060976,-0.213416,-0.20579399,156.3,-122.100006,-10.5,,,,,,
341877,-0.35350248,8.846535,-3.5314362,0.121952,0.396344,-0.243904,144.3,-143.70001,-13.500001,,,,,,
341897,-0.56703955,8.680251,-3.8334982,0.137196,0.769822,-0.503052,156.3,-141.3,-10.5,,,,,,
341917,-0.631639,8.75442,-3.987221,0.30488,0.518296,-0.320124,146.70001,-143.70001,-6.9,,,,,,
341940,-0.67590153,8.734084,-4.1074476,0.426832,0.373478,-0.221038,144.3,-134.1,-11.1,,,,,,
341960,-0.6968366,8.81902,-4.1026626,0.33536798,0.091464,-0.11432999,149.1,-131.70001,-12.3,,,,,,
341980,-0.68666816,9.125867,-4.2533946,0.358234,0.03811,-0.068598,161.1,-141.3,-17.1,,,,,,
342000,-0.64838696,8.929078,-4.128981,0.060976,-0.015244,-0.40396598,146.70001,-134.1,-9.3,,,,,,
342023,-0.573021,8.652737,-3.9088643,-0.213416,0.15244,-0.15244,170.70001,-136.5,-6.9,,,,,,
342043,-0.57421726,8.792702,-3.7294214,-0.35061198,0.487808,-0.15244,153.90001,-131.70001,-12.3,,,,,,
342063,-0.60232997,8.679652,-3.677383,-0.33536798,0.739334,-0.365856,149.1,-138.90001,-11.1,,,,,,
342083,-0.73033255,8.576174,-3.5571563,-0.243904,0.868908,-0.396344,156.3,-136.5,-8.700001,,,,,,
342103,-0.83859646,8.435611,-3.5858672,-0.373478,0.93750596,-0.41921,137.1,-138.90001,-12.3,,,,,,
342123,-0.8266336,8.445779,-3.6091948,-0.160062,0.777444,-0.16768399,156.3,-138.90001,-11.700001,,,,,,
342143,-0.75665087,8.6652975,-3.5798857,-0.007622,0.579272,-0.007622,149.1,-126.9,-12.900001,,,,,,
342163,-0.6029281,8.804665,-3.4787996,-0.060976,0.586894,-0.17530599,165.90001,-138.90001,-16.5,,,,,,
342183,-0.68547183,8.602492,-3.6079984,-0.198172,0.853664,-0.518296,158.70001,-126.9,-5.1000004,,,,,,
342206,-0.6382185,8.680251,-3.627737,0.091464,0.792688,-0.548784,141.90001,-134.1,-15.3,,,,,,
342226,-0.6513777,8.650942,-3.648074,0.106708,0.82317597,-0.655492,151.5,-129.3,-12.900001,,,,,,
342246,-0.70760316,8.877638,-3.7240381,0.121952,0.95274997,-0.70122397,158.70001,-136.5,-6.9,,,,,,
342287,-0.6286483,8.6868305,-3.4817903,0.0,1.1204339,-0.548784,156.3,-146.1,-6.9,,,,,,
342323,-0.93071043,8.705971,-3.6462796,-0.23628199,1.463424,-1.051836,149.1,-138.90001,-17.7,,,,,,
342343,-1.0317966,8.805263,-3.5529692,-0.19055,1.3490939,-0.785066,153.90001,-141.3,-9.900001,,,,,,
342385,-1.4337487,9.055286,-3.3358433,-0.69360197,0.998482,-0.396344,163.5,-143.70001,-10.5,,,,,,
342407,-2.0259101,9.095961,-3.4339387,-0.792688,0.716468,-0.182928,146.70001,-134.1,-13.500001,,,,,,
342427,-2.447601,9.374097,-3.28859,-0.92226195,0.022866,0.320124,149.1,-126.9,-5.7000003,,,,,,
342447,-2.8722825,9.492529,-3.0816326,-1.227142,-0.632626,0.625004,161.1,-122.100006,-14.1,,x,,,,
342469,-3.250907,10.243796,-3.1103435,-1.326228,-1.1128119,0.640248,163.5,-124.50001,-7.5000005,,x,,,,
342489,-3.8861349,10.396921,-4.002773,-1.272874,-1.44818,0.365856,146.70001,-138.90001,-11.1,,x,,,,
342509,-4.8006954,9.816723,-5.291771,-0.449698,-4.15399,1.699706,156.3,-134.1,-6.9,,x,,,,
342529,-4.8126583,9.489538,-5.145824,-0.64787,-7.225656,3.025934,153.90001,-143.70001,-9.900001,,x,,,,
342550,-4.1822157,8.780739,-5.0094476,-0.69360197,-9.626586,4.176856,168.3,-141.3,-9.3,,x,,,,
342570,-2.9297042,8.286075,-4.4753056,0.11432999,-12.2409315,5.10674,144.3,-136.5,-15.3,,x,,,,
342590,-1.4044397,7.8721595,-3.5709136,1.501534,-14.260761,5.9680257,141.90001,-138.90001,-8.700001,,x,,,,
342610,-0.83141875,7.6640058,-3.104362,2.621968,-14.649484,5.731744,149.1,-141.3,-15.900001,,x,,,,
