time,sensor_accX,sensor_accY,sensor_accZ,sensor_gyroX,sensor_gyroY,sensor_gyroZ,sensor_magX,sensor_magY,sensor_magZ,label_Boxing_slip_left,label_Boxing_slip_right,label_Boxing_pullback,label_Boxing_roll_left,label_Boxing_roll_right,label_Boxing_recording_cut
943613,2.3315613,10.775546,-3.0774455,0.7622,0.213416,0.518296,91.5,-162.90001,-9.900001,,,,,,
943633,1.8081862,10.38436,-3.017033,0.259148,0.015244,-0.03811,93.9,-172.5,-10.5,,,,,,
943653,0.5508897,8.596511,-2.7538502,0.35061198,-0.045732,-0.81555396,89.100006,-146.1,-20.1,,,,,,
943673,0.18303175,8.930275,-2.7550466,0.53354,0.068598,-0.106708,93.9,-160.5,-18.900002,,,,,,
943694,-0.13039517,10.678646,-2.9249191,-0.144818,0.487808,-0.221038,89.100006,-158.1,-14.1,,,,,,
943714,-0.31522134,10.496213,-2.9560225,-0.213416,0.625004,-0.998482,93.9,-158.1,-18.300001,,,,,,
943734,-1.1448456,9.148597,-3.2227943,-0.320124,0.541162,-2.599102,81.9,-162.90001,-20.7,,,,,,
943754,-1.786055,8.558229,-3.301151,-0.030488,-0.07622,-2.89636,101.100006,-153.3,-22.5,,,,,,
943774,-2.159296,8.443386,-3.4124057,0.251526,-0.510674,-2.522882,96.3,-143.70001,-18.900002,,,,,,
943834,-1.908076,8.239419,-2.8471606,-0.480186,-2.13416,-3.521364,110.700005,-160.5,-20.7,,,,,,
943854,-2.4206846,7.2817926,-2.81187,-0.434454,-1.326228,-2.469528,108.3,-162.90001,-16.5,,,,,,
943874,-1.9373851,9.016407,-3.1809244,-0.56402797,-0.769822,-0.49543,115.50001,-160.5,-17.7,,,,,,
943894,-1.8105788,9.182093,-3.0451458,-0.594516,-0.53354,-1.097568,108.3,-155.70001,-20.7,,,,,,
943918,-1.3410366,9.332825,-2.7682056,-0.53354,-0.007622,-0.708846,103.50001,-141.3,-15.900001,,,,,,
943981,-1.0539279,8.736476,-2.9009933,-0.739334,2.179892,-1.189032,125.100006,-150.90001,-14.700001,,,,,,
944011,-0.47791624,8.92848,-2.8232348,-0.129574,1.6082419,-0.121952,122.700005,-146.1,-17.7,,,,,,
944031,-0.35410064,8.804665,-2.8794603,0.23628199,1.417692,-0.221038,110.700005,-160.5,-19.5,,,,,,
944071,0.4761218,9.552343,-3.0906048,0.861286,0.373478,-0.33536798,122.700005,-153.3,-12.3,,,,,,
944091,0.69803286,9.545764,-3.2335608,0.68597996,0.091464,-0.853664,113.100006,-155.70001,-14.700001,,,,,,
944115,0.974973,9.534399,-3.5081086,0.541162,-0.518296,-1.25763,113.100006,-153.3,-10.5,,,,,,
944135,0.9348975,9.016407,-3.5200713,0.16768399,-0.716468,-1.196654,108.3,-162.90001,-8.700001,,,,,,
944155,0.86132586,9.250281,-3.6594386,0.0,-0.68597996,-0.60976,115.50001,-155.70001,-14.700001,,,,,,
944176,0.96420646,9.494324,-3.8041892,0.022866,-0.632626,-0.45731997,120.3,-150.90001,-12.900001,,,,,,
944196,0.76502484,9.1797,-3.686355,-0.007622,-0.830798,-0.754578,105.9,-146.1,-23.1,,,,,,
944236,0.7943339,8.524734,-3.4955475,0.312502,-0.45731997,-0.106708,120.3,-153.3,-9.900001,,,,,,
944256,0.81766146,8.507387,-3.3406284,0.358234,-0.03811,0.198172,117.9,-155.70001,-14.1,,,,,,
944320,0.65377027,8.421255,-2.9955,0.022866,0.45731997,-0.11432999,125.100006,-153.3,-17.1,,,,,,
944342,0.65496653,8.838758,-2.78615,0.243904,0.426832,-0.129574,115.50001,-150.90001,-14.700001,,,,,,
944362,0.4312611,8.710158,-2.736504,-0.068598,0.548784,-0.41158798,113.100006,-146.1,-13.500001,,,,,,
944382,0.28471604,8.890797,-2.7921314,-0.121952,0.45731997,-0.28201398,113.100006,-136.5,-12.900001,,,,,,
944402,0.33795077,9.059473,-2.7634206,-0.091464,0.320124,-0.19055,122.700005,-153.3,-16.5,,,,,,
944422,0.28830492,9.088782,-2.7921314,-0.129574,0.22865999,-0.053354,120.3,-150.90001,-12.3,,,,,,
944442,0.28232348,9.056482,-2.873479,-0.060976,0.07622,-0.015244,137.1,-155.70001,-10.5,,,,,,
944465,0.29428634,8.987697,-2.811272,0.358234,0.060976,-0.015244,122.700005,-146.1,-11.1,,,,,,
944485,0.18004103,8.762197,-3.087614,0.46494198,0.41158798,-0.068598,125.100006,-162.90001,-12.900001,,,,,,
944506,0.1363766,8.907545,-3.238346,0.602138,0.449698,0.045732,125.100006,-162.90001,-13.500001,,,,,,
944526,0.061010584,9.278992,-3.4668367,0.907018,0.45731997,-0.07622,125.100006,-148.5,-15.3,,,,,,
944547,-0.021533147,9.210804,-3.5553617,0.899396,0.365856,-0.510674,122.700005,-150.90001,-14.1,,,,,,
944567,-0.0765623,8.932667,-3.5110993,0.92226195,0.28201398,-0.67835796,120.3,-141.3,-11.1,,,,,,
944589,-0.07835673,8.919508,-3.4632478,0.663114,0.45731997,-0.480186,117.9,-162.90001,-11.1,,,,,,
944609,-0.12979703,9.081007,-3.5332305,0.221038,0.69360197,-0.297258,117.9,-153.3,-11.700001,,,,,,
944630,-0.15790975,9.132447,-3.6833644,-0.160062,0.510674,-0.198172,115.50001,-148.5,-12.3,,,,,,
944650,-0.037084863,8.808253,-3.4584627,-0.121952,0.20579399,-0.121952,122.700005,-153.3,-11.700001,,,,,,
944671,0.10886202,8.962574,-3.376517,-0.160062,0.182928,0.33536798,127.50001,-143.70001,-14.700001,,,,,,
944691,0.19499461,9.19286,-3.393265,-0.17530599,0.297258,0.396344,115.50001,-153.3,-6.9,,,,,,
944711,0.21353704,9.033753,-3.3789096,-0.213416,0.30488,0.083841994,108.3,-146.1,-4.5,,,,,,
944732,0.2129389,8.89618,-3.371732,-0.106708,0.358234,-0.060976,117.9,-150.90001,-13.500001,,,,,,
944753,0.19320019,8.971546,-3.3406284,-0.144818,0.426832,0.0,122.700005,-146.1,-17.1,,,,,,
944793,0.2727532,8.977528,-3.2299721,-0.45731997,0.579272,-0.022866,115.50001,-148.5,-12.900001,,,,,,
944813,0.27514577,8.933864,-3.1815224,-0.510674,0.60976,-0.15244,129.90001,-153.3,-17.7,,,,,,
944833,0.15133017,8.769972,-3.138456,-0.57164997,0.655492,-0.19055,108.3,-150.90001,-9.900001,,,,,,
944853,0.23088318,8.765187,-3.0026777,-0.518296,0.602138,-0.053354,117.9,-162.90001,-10.5,,,,,,
944875,0.23746276,9.058875,-2.9775558,-0.56402797,0.640248,0.0,113.100006,-153.3,-12.3,,,,,,
944895,0.17047074,9.017005,-3.0983806,-0.640248,0.60976,-0.099086,120.3,-153.3,-1.5,,,,,,
944915,0.1614986,9.11869,-3.1217082,-0.289636,0.35061198,0.022866,108.3,-148.5,-12.3,,,,,,
944935,0.20576118,9.0511,-2.928508,-0.23628199,0.007622,0.655492,108.3,-153.3,-17.1,,,,,,
944955,0.23566833,9.241309,-2.8890305,-0.19055,-0.068598,0.739334,108.3,-146.1,-14.1,,,,,,
944979,0.073571585,9.520043,-2.8860397,-0.327746,-0.22865999,0.53354,125.100006,-141.3,-21.900002,,,,,,
944999,-0.124413736,9.4375,-2.899199,-0.3811,-0.67835796,0.45731997,122.700005,-153.3,-14.700001,,,,,,
945019,-0.36008206,9.266431,-2.6037164,-0.358234,-1.455802,0.708846,122.700005,-158.1,-8.1,,,,,,
945042,-0.6543684,9.025977,-2.1305852,-0.716468,-2.522882,0.975616,108.3,-153.3,-14.700001,,,,,,
945062,-0.8655129,8.747243,-1.3727381,-1.234764,-3.7347798,1.3643379,115.50001,-153.3,-17.7,,,,,,
945082,-1.154416,8.135941,-1.1263032,-1.8369019,-4.390272,1.211898,110.700005,-150.90001,-17.7,,,,,x,
945167,-0.19499461,6.1770225,0.008972145,1.669218,-12.606788,3.6738038,117.9,-155.70001,-18.300001,,,,,x,
945207,0.84996116,4.841369,0.6495833,0.57164997,-12.72874,2.7515419,110.700005,-165.3,-15.900001,,,,,x,
945227,1.0413669,4.250404,0.39178365,0.091464,-11.570196,1.920744,115.50001,-167.70001,-14.700001,,,,,x,
945267,1.2734464,2.9267135,-1.0276096,0.121952,-9.497012,1.516778,110.700005,-155.70001,-18.900002,,,,,x,
945287,1.7047075,2.7717946,-1.5994343,0.259148,-8.300358,0.87653,115.50001,-158.1,-23.7,,,,,x,
945309,2.2274845,2.6641288,-2.5510798,1.044214,-5.9832697,0.442076,98.700005,-158.1,-20.7,,,,,x,
945330,2.912358,3.5751004,-3.4447055,1.9054999,-4.565578,1.074702,103.50001,-155.70001,-21.900002,,,,,x,
945351,3.2186074,4.3855844,-4.3162,2.461906,-1.760682,0.739334,115.50001,-167.70001,-12.3,,,,,x,
945371,3.4596589,5.221788,-5.4155865,2.500016,-0.068598,0.007622,110.700005,-167.70001,-25.500002,,,,,x,
945393,3.1910927,6.1722374,-6.2595663,1.958854,1.67684,-0.64787,89.100006,-162.90001,-21.300001,,,,,x,
945455,2.606109,10.291648,-9.400414,1.966476,6.36437,-2.964958,110.700005,-150.90001,-16.5,,,,,x,
945475,1.9666941,10.01411,-9.777245,1.318606,4.9619217,-7.20279,115.50001,-160.5,-20.1,,,,,x,
945497,1.0096654,8.843544,-9.947716,1.8369019,5.739366,-7.8125496,120.3,-141.3,-18.900002,,,,,x,
945517,0.9061866,10.1989355,-10.164842,0.3811,6.562542,-5.4116197,129.90001,-148.5,-12.3,,,,,x,
945537,0.8003153,11.271406,-9.677954,-1.303362,7.69822,-5.625036,122.700005,-143.70001,-12.900001,,,,,x,
945557,0.3953725,11.445466,-9.913023,0.068598,11.7455015,-7.0351057,127.50001,-138.90001,-19.5,,,,,x,
945580,-0.8780739,12.092058,-11.117085,0.060976,14.2531395,-6.768336,125.100006,-134.1,-11.700001,,,,,x,
945600,-2.3710387,11.072823,-11.221761,-1.021348,12.713495,-8.521396,134.70001,-141.3,-6.3,,,,,x,
945624,-3.1785316,12.889383,-11.242695,-2.065562,11.341536,-5.236314,146.70001,-114.9,-11.1,,,,,x,
945644,-3.4076204,13.744727,-10.886202,-2.416174,9.786648,-4.260698,139.5,-131.70001,-12.3,,,,,x,
945664,-3.962099,13.67295,-9.935753,-2.583858,7.896392,-4.862836,156.3,-122.100006,-12.3,,,,,x,
945685,-5.22119,12.880411,-9.710851,-1.21952,8.68908,-4.093014,146.70001,-126.9,-7.5000005,,,,,x,
945705,-3.9764545,15.575045,-9.034949,-2.431418,6.166198,-0.251526,146.70001,-146.1,-11.1,,,,,x,
945725,-3.8466575,18.81339,-5.5962257,-5.884184,3.2622159,-1.6234859,151.5,-124.50001,-9.3,,,,,x,
945748,-6.915729,14.983481,-6.3899612,-3.567096,15.282109,-7.4085836,137.1,-124.50001,-2.1000001,,,,,x,
945768,-6.1764245,15.203,-8.969153,-2.660078,12.743983,-2.6905658,146.70001,-134.1,-10.5,,,,,x,
945788,-6.5993114,16.65888,-3.1641762,-5.686012,5.731744,-2.126538,163.5,-136.5,-3.9,,,,,x,
945808,-6.476692,15.2311125,-5.850436,-5.266802,11.875075,-1.250008,146.70001,-122.100006,-8.1,,,,,x,
945829,-6.3989334,15.054661,-5.7738743,-5.785098,8.864386,-0.03811,153.90001,-129.3,-8.700001,,,,,x,
945849,-6.0424404,14.140698,-3.609793,-5.632658,5.213448,0.739334,146.70001,-136.5,-8.1,,,,,x,
945871,-5.3575664,14.347655,-3.5212677,-5.243936,5.312534,2.050318,144.3,-134.1,-16.5,,,,,x,
945891,-5.067467,13.242288,-2.7269337,-5.343022,3.109776,1.9054999,137.1,-136.5,-14.700001,,,,,x,
945913,-4.915539,10.947811,-0.9719823,-4.207344,2.2789779,2.7820299,139.5,-146.1,-3.9,,,,,x,
945933,-4.4579597,10.8790245,-1.2584928,-4.397894,2.43904,3.7576458,134.70001,-150.90001,-7.5000005,,,,,x,
945956,-4.1331677,10.121776,-1.3912805,-4.0167937,1.211898,4.443626,113.100006,-150.90001,-13.500001,,,,,x,
945977,-3.8992941,9.398023,-1.3984582,-3.6890478,-0.487808,4.519846,134.70001,-150.90001,-13.500001,,,,,x,
945997,-2.8680956,8.127566,-1.1891083,-2.888738,-2.7210538,3.8186219,120.3,-158.1,-11.700001,,,,,x,
946019,-2.204755,6.0645714,-0.16389118,-2.507638,-5.137228,3.2622159,132.3,-148.5,-12.900001,,,,,x,
946039,-1.8398877,4.585364,0.6095077,-2.500016,-5.0381417,5.5793037,122.700005,-153.3,-10.5,,,,,x,
946060,-1.527059,4.5578494,0.40374652,-3.094532,-2.93447,7.4848037,115.50001,-155.70001,-14.700001,,,,,x,
946080,-0.8571389,4.681067,-0.2631829,-1.958854,-3.064044,8.346089,103.50001,-162.90001,-19.5,,,,,x,
946101,-0.07117901,4.9281,0.10646945,-0.769822,-4.580822,7.644866,89.100006,-174.90001,-19.5,,,,,x,
946125,0.71358454,4.451978,-0.105871305,-0.95274997,-4.76375,6.646384,74.700005,-160.5,-16.5,,,,,x,
946145,1.627547,4.4459968,0.19738717,-0.625004,-5.60217,6.486322,81.9,-165.3,-16.5,,,,,x,
946165,1.9068798,4.455567,0.34752107,-0.480186,-5.25918,5.777476,72.3,-172.5,-20.7,,,,,x,
946185,2.6593437,4.8132563,-0.5305528,0.022866,-4.596066,5.327778,62.7,-165.3,-14.700001,,,,,x,
946205,3.455472,5.541795,-0.35709137,0.67073596,-6.0290017,5.22107,65.100006,-174.90001,-21.900002,,,,,x,
946228,2.9183395,4.5859623,-0.29847333,0.87653,-5.0991178,3.033556,60.300003,-167.70001,-20.1,,,,,x,
946248,3.6582425,5.2176013,-1.0904146,1.463424,-4.786616,3.62045,65.100006,-174.90001,-23.1,,,,,x,
946268,4.363453,6.711164,-0.96241206,1.478668,-5.167716,3.3155699,65.100006,-177.3,-11.1,,,,,x,
946332,4.4077153,5.9299893,-2.7682056,0.60976,-1.097568,0.137196,57.9,-162.90001,-24.300001,,,,,,
946407,4.1188126,7.4355154,-3.0445478,0.33536798,0.297258,-1.33385,45.9,-167.70001,-20.1,,,,,,
946470,3.2036538,8.540883,-3.342423,1.310984,-0.198172,-1.692084,67.5,-165.3,-13.500001,,,,,,
946530,2.2161198,8.186185,-3.3071325,0.60976,1.082324,-1.928366,77.100006,-174.90001,-17.7,,,,,,
946550,2.095893,8.437405,-3.3310583,0.769822,1.41007,-1.310984,84.3,-167.70001,-22.5,,,,,,
946593,1.7399979,8.999061,-3.3561802,0.160062,1.5929979,-1.3872039,72.3,-158.1,-15.900001,,,,,,
946633,1.3882898,8.804665,-3.2903845,0.3811,0.94512796,-1.417692,72.3,-155.70001,-14.700001,,,,,,
946653,1.2931851,8.91891,-3.0989788,0.045732,0.442076,-1.173788,69.9,-158.1,-14.700001,,,,,,
946674,1.401449,8.991883,-3.078642,0.129574,0.365856,-1.021348,74.700005,-165.3,-13.500001,,,,,,
946694,1.3924768,9.285571,-3.087614,0.221038,0.213416,-0.87653,74.700005,-160.5,-20.1,,,,,,
946714,1.6526691,9.649242,-3.1073527,0.320124,0.083841994,-1.1128119,72.3,-150.90001,-11.1,,,,,,
946776,1.4211878,8.953004,-2.895012,-0.11432999,-0.640248,-1.288118,72.3,-153.3,-12.3,,,,,,
946836,1.2226043,8.533108,-2.948845,-0.67835796,0.640248,-1.158544,84.3,-162.90001,-19.5,,,,,,
946856,1.1370698,8.171829,-2.8645067,-0.56402797,0.95274997,-0.769822,65.100006,-158.1,-12.900001,,,,,,
946880,1.3841028,8.924891,-2.840581,-0.449698,1.3490939,-0.632626,84.3,-158.1,-12.900001,,,,,,
946900,1.2830167,8.698793,-2.878264,-0.30488,1.432936,-0.785066,79.5,-162.90001,-10.5,,,,,,
946921,1.2459319,8.850123,-2.949443,0.030488,1.3719599,-0.640248,84.3,-162.90001,-9.3,,,,,,
946942,1.3111295,8.894386,-2.8986008,0.221038,1.18141,-0.46494198,81.9,-160.5,-12.900001,,,,,,
946962,1.3589808,8.889601,-2.8627121,0.35061198,0.99086,-0.3811,93.9,-155.70001,-9.900001,,,,,,
947002,1.3978602,9.232935,-3.070268,0.358234,0.243904,-0.320124,84.3,-160.5,-14.1,,,,,,
947022,1.3452235,9.35376,-3.008061,0.47256398,-0.480186,-0.33536798,81.9,-162.90001,-18.900002,,,,,,
947042,1.2459319,9.222767,-2.9021897,-0.251526,-1.25763,-0.28201398,89.100006,-160.5,-12.3,,,,,,
947062,0.82902616,9.298731,-2.6725028,-0.67073596,-2.103672,0.20579399,81.9,-155.70001,-15.900001,,,,,x,
947082,0.6029281,9.465014,-2.3411317,-1.3795819,-3.2774599,0.396344,91.5,-170.1,-14.700001,,,,,x,
947102,0.50363636,9.586437,-1.7836623,-2.088428,-4.908568,0.46494198,84.3,-167.70001,-10.5,,,,,x,
947122,0.1016843,8.717934,-1.2309783,-2.576236,-6.17382,0.053354,86.700005,-153.3,-16.5,,,,,x,
947142,-0.2936882,7.076031,-0.45757937,-2.36282,-9.245486,0.891774,84.3,-160.5,-19.5,,,,,x,
947162,-0.30565107,6.5867505,-0.30684733,-2.088428,-10.129638,1.455802,86.700005,-160.5,-23.7,,,,,x,
947182,0.05443101,6.133956,-0.0071777157,-1.166166,-12.164712,2.888738,81.9,-158.1,-20.1,,,,,x,
947204,0.4719348,5.769687,0.61429286,-0.297258,-14.070211,3.7805119,84.3,-167.70001,-20.1,,,,,x,
947224,1.2710538,6.2822957,0.94805664,-0.091464,-14.504665,4.138746,79.5,-160.5,-18.300001,,,,,x,
947244,1.4074304,5.860007,0.53892684,-1.265252,-11.707392,0.518296,86.700005,-165.3,-28.500002,,,,,x,
947265,1.1292939,4.363453,-0.5108141,-1.9054999,-10.640312,-1.669218,93.9,-160.5,-27.300001,,,,,x,
947285,1.4164026,3.9471455,-0.732127,-1.745438,-10.465006,-2.51526,79.5,-177.3,-26.7,,,,,x,
947305,1.7836623,3.5296416,-1.0605075,-2.195136,-9.1159115,-3.6585598,93.9,-162.90001,-21.300001,,,,,x,
947325,1.5025351,2.3160095,-1.6209675,-2.461906,-7.5762677,-4.893324,110.700005,-162.90001,-23.7,,,,,x,
947345,2.0612006,2.43504,-1.5497885,-1.082324,-7.461938,-3.612828,91.5,-167.70001,-23.1,,,,,x,
947366,2.694036,3.322086,-1.5545735,-0.70122397,-5.686012,-3.3155699,105.9,-158.1,-29.7,,,,,x,
947386,2.4021423,3.100773,-2.01634,-0.70122397,-3.2012398,-4.222588,105.9,-167.70001,-24.300001,,,,,x,
947406,2.493658,3.8329,-2.866301,0.92988396,-1.006104,-3.7805119,117.9,-160.5,-22.5,,,,,x,
947430,2.6198661,5.605198,-3.7258325,1.189032,1.25763,-3.1783738,120.3,-165.3,-25.500002,,,,,x,
947450,1.7621292,6.7255197,-4.7504516,0.861286,3.6814258,-3.902464,110.700005,-153.3,-23.7,,,,,x,
947470,1.3745326,7.203436,-5.9311857,1.02897,5.586926,-5.228692,115.50001,-167.70001,-27.900002,,,,,x,
947493,0.6447981,7.5659103,-6.8014836,2.469528,5.899428,-5.388754,122.700005,-155.70001,-24.300001,,,,,x,
947513,-0.12321745,9.600195,-7.2889705,2.05794,6.562542,-3.993928,117.9,-158.1,-20.1,,,,,x,
947537,-0.7805766,10.142711,-8.133548,1.440558,7.9954777,-7.233278,137.1,-153.3,-23.1,,,,,x,
947557,-2.1569035,9.49552,-8.800478,3.54423,9.984819,-5.4725957,137.1,-148.5,-21.300001,,,,,x,
947577,0.4677478,13.417543,-10.103831,2.530504,10.815618,-0.56402797,129.90001,-138.90001,-19.5,,,,,x,
947600,-0.6992291,14.693382,-9.503296,-0.602138,8.666214,-3.932952,127.50001,-146.1,-15.900001,,,,,x,
947620,-1.1891083,12.1644335,-9.441687,1.958854,12.439104,-7.789684,141.90001,-146.1,-12.900001,,,,,x,
947680,-1.7561477,14.906321,-10.61644,-1.432936,8.757678,-6.74547,144.3,-141.3,-16.5,,,,,x,
947728,-3.3627598,16.200703,-9.868761,-1.3795819,12.614409,-3.2469718,149.1,-114.9,-15.3,,,,,x,
947748,-4.4065194,16.485418,-8.240018,-4.0472817,7.50767,-5.67839,163.5,-119.700005,-8.1,,,,,x,
947789,-5.7038913,14.825572,-7.1854916,-1.554888,11.1890955,-1.326228,163.5,-122.100006,-5.7000003,,,,,x,
947809,-6.6710887,16.511139,-5.409007,-2.89636,8.795788,-2.507638,149.1,-119.700005,-8.700001,,,,,x,
947829,-6.5825634,16.497381,-4.874267,-2.500016,8.734812,-2.7134318,149.1,-129.3,-11.1,,,,,x,
947850,-6.304427,16.02425,-3.9004903,-4.260698,9.207376,-3.132642,151.5,-134.1,-9.3,,,,,x,
947871,-7.6454635,13.644239,-4.849145,-4.4055157,10.716532,-2.393308,153.90001,-124.50001,-14.700001,,,,,x,
947891,-6.442598,14.964341,-4.4615483,-4.1921,5.8765616,1.775926,156.3,-119.700005,-3.9,,,,,x,
947911,-5.6608253,14.555809,-3.2951696,-4.634176,3.910086,1.8826339,146.70001,-141.3,-5.7000003,,,,,x,
947935,-5.819931,10.977119,-3.2030556,-3.7424018,2.103672,1.1280559,149.1,-141.3,-11.700001,,,,,x,
947956,-3.80718,11.835455,-2.0289009,-1.821658,-0.93750596,4.375028,141.90001,-143.70001,-6.3,,,,,x,
947976,-2.9524338,12.052581,-0.660948,-3.147886,-1.250008,3.437522,146.70001,-155.70001,-5.7000003,,,,,x,
948038,-2.4153013,8.096463,-1.0928072,-2.195136,-2.004586,3.2088618,132.3,-141.3,-12.3,,,,,x,
948058,-1.4690391,8.00435,-0.5915634,-1.455802,-4.0320377,3.384168,127.50001,-146.1,-11.700001,,,,,x,
948078,-0.3881948,7.6544356,0.20516303,-1.989342,-5.358266,2.903982,122.700005,-141.3,-8.700001,,,,,x,
948098,0.20097604,6.890009,0.64838696,-3.079288,-5.0381417,2.141782,141.90001,-143.70001,-10.5,,,,,x,
948118,0.24583676,5.397044,0.6615461,-3.46801,-4.352162,0.80030996,127.50001,-143.70001,-14.700001,,,,,x,
948138,0.34333408,4.4370246,0.48928094,-2.47715,-3.871976,0.975616,117.9,-148.5,-20.7,,,,,x,
948158,0.6962384,4.6212525,0.099889874,-1.478668,-3.7576458,2.17227,122.700005,-150.90001,-16.5,,,,,x,
948179,0.73990285,4.5494757,-0.11304902,-0.49543,-3.910086,2.111294,132.3,-153.3,-18.300001,,,,,x,
948199,0.9313086,4.2139173,-0.4593738,0.769822,-4.34454,2.065562,120.3,-153.3,-18.900002,,,,,x,
948219,1.4361413,4.56084,-0.48509395,1.1432999,-5.0991178,3.399412,127.50001,-148.5,-13.500001,,,,,x,
948239,1.7364091,5.0052605,-0.72554743,0.785066,-5.121984,3.8033779,110.700005,-150.90001,-13.500001,,,,,x,
948279,2.0067697,5.2905746,-1.4104211,1.6387299,-6.1204658,3.978684,115.50001,-160.5,-13.500001,,,,,x,
948303,1.472628,5.287584,-1.6520709,0.60976,-5.289668,3.140264,96.3,-155.70001,-26.7,,,,,x,
948323,1.3655604,4.9819326,-2.388983,1.6006199,-5.4268637,2.560992,108.3,-158.1,-18.300001,,,,,,
948343,1.7136797,5.380296,-2.0761542,2.47715,-5.9527817,3.7195358,120.3,-162.90001,-20.1,,,,,,
948365,2.019929,6.5825634,-2.363861,1.585376,-4.367406,4.093014,105.9,-162.90001,-13.500001,,,,,,
948385,1.9882272,6.6543407,-3.0935955,1.089946,-2.97258,3.2241058,103.50001,-160.5,-17.7,,,,,,
948405,2.8645067,7.9475255,-3.071464,2.309466,-3.2774599,4.596066,98.700005,-158.1,-24.300001,,,,,,
948425,3.7072902,9.699487,-2.7179615,1.48629,-2.8048959,4.131124,108.3,-160.5,-15.900001,,,,,,
948445,3.4459016,9.408789,-2.7311208,0.251526,-1.44818,1.265252,96.3,-167.70001,-11.700001,,,,,,
948507,1.9146557,8.533706,-3.5553617,0.289636,0.106708,-1.509156,89.100006,-158.1,-10.5,,,,,,
948527,1.7065018,8.346487,-3.5703154,0.967994,-0.289636,-1.577754,89.100006,-165.3,-16.5,,,,,,
948547,1.6072102,8.846535,-3.806582,0.754578,0.297258,-1.303362,96.3,-162.90001,-11.1,,,,,,
948569,1.0617038,8.343496,-3.8466575,0.899396,0.907018,-1.8750119,101.100006,-162.90001,-15.900001,,,,,,
948589,0.7171734,8.447573,-4.301844,0.94512796,1.48629,-1.25763,105.9,-155.70001,-12.900001,,,,,,
948609,0.73451954,8.625221,-3.8669944,0.655492,1.250008,-0.426832,101.100006,-162.90001,-14.1,,,,,,
948629,0.64898515,8.510977,-3.7300196,0.19055,1.775926,-0.396344,105.9,-155.70001,-11.700001,,,,,,
948649,0.5126085,8.305813,-3.6719997,0.28201398,2.01983,0.0,89.100006,-160.5,-19.5,,,,,,
948669,0.8182596,9.551745,-3.5595489,0.251526,1.699706,0.777444,105.9,-148.5,-21.300001,,,,,,
948689,0.861924,9.531408,-3.3783114,0.0,1.501534,0.28201398,101.100006,-158.1,-21.300001,,,,,,
948709,1.0634983,9.963267,-3.1689615,0.091464,0.95274997,0.320124,103.50001,-150.90001,-18.300001,,,,,,
948749,0.782371,8.425442,-2.8166552,-0.503052,0.884152,-0.3811,98.700005,-153.3,-11.700001,,,,,,
948769,0.6286483,8.266934,-2.8674974,0.15244,0.846042,0.243904,103.50001,-155.70001,-14.700001,,,,,,
948789,1.03718,9.206018,-2.957817,0.213416,0.769822,1.1204339,108.3,-155.70001,-14.700001,,,,,,
948811,1.2172209,9.523632,-2.9649947,-0.26677,1.044214,0.55640596,103.50001,-158.1,-15.900001,,,,,,
948831,1.263278,9.303515,-3.0248091,-0.60976,1.318606,-0.03811,96.3,-155.70001,-17.1,,,,,,
948851,1.2812222,8.975135,-2.8926194,-0.746956,1.44818,-0.586894,89.100006,-170.1,-13.500001,,,,,,
948871,0.98215073,8.560622,-3.070268,-0.746956,1.471046,-0.632626,91.5,-170.1,-13.500001,,,,,,
948891,0.912168,8.805263,-2.9344895,-0.960372,1.303362,-0.16768399,103.50001,-153.3,-17.7,,,,,,
948911,0.92652345,8.868666,-2.9177413,-1.006104,1.1204339,-0.3811,91.5,-160.5,-18.900002,,,,,,
948931,0.6932477,8.6868305,-2.8585253,-0.487808,0.792688,-0.56402797,89.100006,-167.70001,-21.900002,,,,,,
948951,0.66034985,8.778346,-2.8088794,-0.480186,0.57164997,-0.30488,103.50001,-162.90001,-18.900002,,,,,,
948975,0.84697044,9.19585,-2.7670095,-0.198172,0.289636,-0.144818,105.9,-158.1,-9.3,,,,,,
948998,0.7895487,9.238916,-2.6922414,-0.160062,0.15244,-0.373478,110.700005,-148.5,-11.700001,,,,,,
949018,0.80689484,9.187476,-2.6491752,-0.15244,-0.053354,-0.53354,93.9,-158.1,-9.900001,,,,,,
949038,0.8463723,9.257459,-2.6677177,-0.03811,-0.144818,-0.320124,91.5,-172.5,-17.7,,,,,,
949058,0.9217383,9.718029,-2.705999,0.030488,-0.579272,-0.068598,84.3,-158.1,-11.700001,,,,,,
949078,0.95284176,9.601989,-2.4188902,0.144818,-1.158544,-0.251526,98.700005,-155.70001,-14.700001,,,,,x,
949098,0.9002052,9.692308,-2.1234076,0.160062,-1.75306,-0.160062,103.50001,-158.1,-12.3,,,,,x,
949118,0.5287584,9.3998165,-1.7334183,-0.373478,-2.675322,-0.129574,96.3,-167.70001,-20.7,,,,,x,
949138,0.2075556,8.614455,-1.2465299,-1.227142,-3.628072,-0.365856,93.9,-165.3,-18.300001,,,,,x,
949178,-0.74947315,7.354766,-1.7567459,-1.051836,-5.701256,-0.160062,103.50001,-155.70001,-13.500001,,,,,x,
949239,0.12860073,6.7835393,-0.21174261,-0.289636,-12.782094,2.964958,96.3,-162.90001,-15.900001,,,,,x,
949263,0.46714967,5.953317,0.52935654,-1.272874,-12.858314,3.018312,105.9,-153.3,-16.5,,,,,x,
949283,0.7482768,5.2193956,0.78177285,-1.3643379,-12.126602,3.117398,98.700005,-170.1,-17.1,,,,,x,
949304,0.6477888,4.009352,1.0437595,-0.998482,-11.448244,2.416174,103.50001,-160.5,-17.1,,,,,x,
949324,0.7853617,3.987221,0.84996116,0.312502,-11.112876,2.545748,110.700005,-153.3,-16.5,,,,,x,
949384,0.86371845,3.1910927,-0.61190027,1.3567159,-8.033587,-1.471046,77.100006,-167.70001,-21.900002,,,,,x,
949410,0.46475708,2.3489075,-1.9756663,2.7744079,-6.51681,-2.378064,93.9,-162.90001,-23.7,,,,,x,
949430,1.0527316,4.009352,-3.301151,3.6966698,-5.975648,-1.234764,91.5,-160.5,-21.300001,,,,,x,
949473,2.2035587,6.517964,-6.2739215,4.024416,-1.21952,-1.280496,98.700005,-158.1,-18.300001,,,,,x,
949493,2.2855043,7.2112117,-6.7494454,3.4299,-0.868908,-1.8445239,89.100006,-160.5,-21.300001,,,,,x,
949513,1.8458692,6.0280848,-6.8056707,1.966476,-1.974098,-5.160094,101.100006,-148.5,-16.5,,,,,x,
949533,1.9858347,6.9719543,-7.183697,1.3414719,0.160062,-4.9543,115.50001,-146.1,-24.900002,,,,,x,
949553,1.6969316,7.908048,-8.274112,2.2789779,3.92533,-5.266802,129.90001,-160.5,-17.1,,,,,x,
949573,1.987031,9.905846,-9.800572,3.612828,4.824726,-4.474114,122.700005,-162.90001,-18.300001,,,,,x,
949593,1.8680005,10.9837,-9.36333,0.388722,1.8978779,-7.0960817,115.50001,-160.5,-20.7,,,,,x,
949616,0.06878644,9.072035,-8.689821,0.739334,5.388754,-10.160126,127.50001,-150.90001,-18.300001,,,,,x,
949636,-0.03828115,10.783919,-9.890892,1.920744,9.939088,-5.853696,139.5,-143.70001,-14.1,,,,,x,
949656,-0.8792702,13.527601,-10.618833,-1.417692,12.5763,-5.129606,129.90001,-136.5,-20.1,,,,,x,
949676,-2.7454762,12.200322,-11.12845,-0.617382,13.506184,-8.887252,137.1,-141.3,-10.5,,,,,x,
949696,-2.8214405,10.7061615,-11.261238,-0.746956,11.234828,-8.368956,146.70001,-146.1,-12.3,,,,,x,
949716,-2.5133967,12.827176,-10.3287325,-2.583858,10.823239,-4.11588,141.90001,-131.70001,-8.1,,,,,x,
949776,-3.8400779,12.389336,-7.451067,-6.02138,9.29884,-7.911636,158.70001,-119.700005,-4.5,,,,,x,
949831,-4.410108,15.836433,-10.529111,-3.871976,12.164712,-4.5731997,151.5,-129.3,-3.3000002,,,,,x,
949851,-7.154388,14.564781,-5.308519,-4.26832,13.025998,-3.1859958,156.3,-119.700005,-6.9,,,,,x,
949891,-6.017916,14.68441,-5.355772,-3.064044,8.064075,-3.16313,161.1,-126.9,-11.700001,,,,,x,
949913,-8.247793,14.429601,-4.1780286,-2.606724,11.760746,-0.579272,163.5,-124.50001,-9.900001,,,,,x,
949933,-6.1979575,18.081264,-6.7805486,-4.4055157,12.012272,3.368924,149.1,-131.70001,-2.7,,,,,x,
949953,-6.362447,16.512335,-4.693628,-4.679908,4.83997,0.365856,149.1,-124.50001,-5.7000003,,,,,x,
949973,-5.9724574,14.507957,-4.485474,-4.291186,5.213448,0.99086,139.5,-138.90001,-1.5,,,,,x,
949996,-5.301341,13.303896,-4.9065666,-4.657042,3.460388,2.637212,137.1,-143.70001,-14.1,,,,,x,
950020,-3.438724,10.93824,-2.4332457,-4.169234,-2.7134318,3.460388,139.5,-126.9,-11.700001,,,,,x,
950040,-3.1898966,9.430322,-1.5844808,-4.519846,-2.637212,3.1783738,132.3,-138.90001,-7.5000005,,,,,x,
950060,-2.6210625,8.461928,-1.7722976,-4.298808,-0.82317597,6.471078,122.700005,-148.5,-6.9,,,,,x,
950080,-1.8093824,9.094166,-1.577303,-3.7957559,-1.966476,6.532054,117.9,-136.5,-12.3,,,,,x,
950103,-1.1197237,8.038444,-0.70760316,-3.978684,-2.881116,5.0533857,122.700005,-143.70001,-13.500001,,,,,x,
950123,-1.1765472,6.7500434,-0.4456165,-3.986306,-2.644834,4.5731997,115.50001,-153.3,-13.500001,,,,,x,
950143,-0.8876442,6.050216,-0.3271842,-2.949714,-3.407034,5.388754,105.9,-153.3,-10.5,,,,,x,
950166,-0.3911855,5.776865,0.09689916,-2.660078,-4.397894,6.0137577,120.3,-141.3,-17.1,,,,,x,
950186,0.26796806,5.2277694,-0.004187001,-2.59148,-4.618932,5.5793037,110.700005,-155.70001,-10.5,,,,,x,
950246,1.6580523,3.9525287,0.12321745,-1.577754,-5.746988,4.72564,79.5,-153.3,-14.1,,,,,x,
950266,2.233466,4.3407235,-0.07835673,-0.64787,-5.5183277,5.6097918,91.5,-150.90001,-12.3,,,,,x,
950286,2.0510323,4.8850336,-0.36785793,-0.72409,-4.1921,4.748506,77.100006,-155.70001,-18.900002,,,,,x,
950306,2.2328677,4.5291386,-1.0832369,-0.899396,-3.841488,3.018312,79.5,-165.3,-17.1,,,,,x,
950326,2.5911553,3.6755886,-1.1328828,-0.045732,-4.5884438,2.416174,74.700005,-155.70001,-11.1,,,,,x,
950350,3.107951,5.1308703,-1.1568085,0.373478,-5.175338,3.46801,79.5,-167.70001,-20.7,,,,,x,
950370,3.0738568,4.810864,-1.0270115,0.480186,-5.25918,2.035074,79.5,-165.3,-19.5,,,,,x,
950390,3.2389443,4.780359,-0.82902616,0.708846,-4.847592,0.72409,81.9,-167.70001,-12.3,,,,,x,
950430,3.572708,6.6830516,-2.0982854,1.8750119,-1.951232,1.204276,74.700005,-162.90001,-18.900002,,,,,x,
950453,3.8891256,8.402713,-2.6114922,2.01983,-1.1204339,2.103672,67.5,-165.3,-14.1,,,,,x,
950474,3.6426907,8.653335,-3.0403607,0.87653,-0.7622,0.94512796,60.300003,-174.90001,-19.5,,,,,x,
950494,3.0439496,7.462432,-2.9314988,1.06708,-0.548784,0.182928,72.3,-167.70001,-17.1,,,,,,
950515,2.8842454,8.183792,-3.3400304,1.532022,-0.907018,1.48629,55.500004,-170.1,-17.1,,,,,,
950535,2.9739668,9.063661,-3.5864654,0.983238,-0.46494198,0.777444,53.100002,-177.3,-12.900001,,,,,,
950559,2.8902268,8.62582,-3.9429584,1.547266,-0.221038,-0.777444,67.5,-155.70001,-14.1,,,,,,
950579,2.8357959,8.787318,-3.7964134,1.6234859,-0.487808,-1.1051899,69.9,-160.5,-18.900002,,,,,,
950601,2.8764696,8.887208,-3.7922266,1.280496,0.030488,-1.250008,65.100006,-160.5,-10.5,,,,,,
950621,2.5708184,8.878835,-3.6367092,0.861286,0.602138,-1.44818,77.100006,-177.3,-13.500001,,,,,,
950641,2.2825136,8.351273,-3.539212,0.40396598,1.211898,-1.67684,72.3,-165.3,-16.5,,,,,,
950661,2.2412417,8.662307,-3.4973419,0.449698,1.29574,-0.72409,57.9,-155.70001,-18.300001,,,,,,
950681,1.9631052,8.890797,-3.5057158,0.007622,1.417692,-0.87653,77.100006,-167.70001,-17.7,,,,,,
950701,1.4929649,8.558827,-3.3723302,0.07622,1.1432999,-1.082324,77.100006,-158.1,-12.3,,,,,,
950721,1.5133017,8.972743,-3.2939734,0.053354,0.7622,-0.868908,72.3,-172.5,-13.500001,,,,,,
950741,1.3751307,8.776552,-3.0989788,-0.41921,0.68597996,-1.211898,74.700005,-160.5,-14.1,,,,,,
950761,1.0808444,8.448172,-3.1193156,-0.68597996,0.53354,-1.1128119,79.5,-177.3,-13.500001,,,,,,
950781,1.0180393,8.984107,-3.2676551,-0.586894,0.274392,-0.525918,74.700005,-160.5,-11.700001,,,,,,
950801,0.98334706,8.991285,-3.4034336,-0.602138,-0.274392,-0.72409,69.9,-162.90001,-11.1,,,,,,
950824,0.878672,8.4278345,-3.0439496,-0.35061198,-1.265252,-0.487808,79.5,-155.70001,-11.1,,,,,,
950844,1.1663787,8.695803,-2.4188902,-0.91463995,-0.975616,0.60976,81.9,-158.1,-13.500001,,,,,,
950864,1.27225,8.964369,-2.5785944,-1.006104,-0.388722,0.67073596,69.9,-167.70001,-19.5,,,,,,
950884,1.8889354,9.927379,-2.9386764,-0.594516,-0.07622,0.129574,65.100006,-158.1,-10.5,,,,,,
950904,1.6849687,8.987697,-2.752056,-0.82317597,0.17530599,-1.150922,74.700005,-162.90001,-12.900001,,,,,,
950924,1.1669769,8.461928,-3.0732586,0.182928,0.41158798,-1.051836,79.5,-165.3,-20.7,,,,,,
950944,1.6927446,9.222168,-3.1223063,0.07622,0.72409,-0.07622,91.5,-162.90001,-9.900001,,,,,,
950964,1.5408163,9.022388,-3.0188277,-0.099086,1.1204339,-0.510674,69.9,-172.5,-17.7,,,,,,
950984,1.4540856,9.049903,-3.174943,0.099086,1.288118,-0.884152,74.700005,-165.3,-11.700001,,,,,,
951004,1.4158044,8.573183,-3.054716,0.30488,1.21952,-1.18141,84.3,-148.5,-15.900001,,,,,,
951024,1.3039516,8.372806,-2.982939,-0.198172,1.3795819,-0.67835796,79.5,-158.1,-11.700001,,,,,,
951044,1.4702355,8.868666,-2.9596114,-0.099086,1.417692,-0.46494198,79.5,-162.90001,-12.900001,,,,,,
951064,1.4116174,8.670082,-2.912358,-0.274392,1.532022,-0.716468,84.3,-160.5,-17.1,,,,,,
951084,1.3793176,8.741859,-2.9183395,-0.365856,1.6539739,-0.434454,81.9,-162.90001,-17.7,,,,,,
951104,1.1538178,8.698195,-2.9919112,-0.144818,1.577754,-0.221038,89.100006,-167.70001,-7.5000005,,,,,x,
951124,1.1095552,9.017604,-3.0684733,0.060976,1.44818,-0.060976,79.5,-153.3,-12.900001,,,,,x,
951144,1.1269014,9.911229,-3.209037,0.40396598,0.998482,0.129574,79.5,-160.5,-14.700001,,,,,x,
951187,0.6896588,9.585241,-2.6031182,-1.5244,0.137196,0.525918,77.100006,-165.3,-12.900001,,,,,x,
951207,0.4384388,9.412377,-2.53493,-2.40093,-0.251526,1.8369019,77.100006,-158.1,-17.1,,,,,x,
951227,0.51021594,9.31189,-2.329767,-2.881116,-1.67684,2.652456,72.3,-174.90001,-15.3,,,,,x,
951269,0.21054633,7.0257874,-1.3183072,-1.8597679,-6.9893737,4.146368,67.5,-174.90001,-15.3,,,,,x,
951289,0.9157569,7.1053405,-0.3062492,-1.920744,-9.817136,5.495462,67.5,-160.5,-16.5,,,,,x,
951329,1.3440273,5.4813824,0.10706759,-2.2180018,-12.583921,4.9009457,67.5,-158.1,-23.7,,,,,x,
951349,1.6969316,4.8090696,0.53414166,-1.3948259,-14.397958,5.0533857,60.300003,-160.5,-19.5,,,,,x,
951369,1.9242259,4.196571,0.9211402,-1.6006199,-15.175402,4.664664,60.300003,-170.1,-21.300001,,,,,x,
951389,1.9858347,3.4746125,0.8338113,-1.775926,-14.855278,3.902464,45.9,-172.5,-22.5,,,,,x,
951409,1.991218,2.6808767,1.0802462,-1.920744,-14.55802,2.7058098,43.5,-172.5,-27.300001,,,,,x,
951429,2.3818054,2.4499936,1.0126561,-1.989342,-12.774471,1.3567159,57.9,-177.3,-17.7,,,,,x,
951450,2.5588555,2.4930599,0.5215807,-0.998482,-10.640312,-0.137196,60.300003,-179.70001,-21.300001,,,,,x,
951470,3.6056058,3.8969014,-0.88226086,0.80793196,-6.791202,-2.042696,45.9,-162.90001,-21.900002,,,,,x,
951490,2.7054007,2.7347097,-2.0970893,1.166166,-3.8262439,-3.940574,57.9,-167.70001,-21.300001,,,,,x,
951510,2.966191,2.7837574,-2.7335134,1.79117,-2.926848,-3.536608,60.300003,-182.1,-17.7,,,,,x,
951530,2.9643965,3.93279,-3.7832544,2.042696,-0.47256398,-2.827762,60.300003,-182.1,-22.5,,,,,x,
951550,3.008061,6.485066,-6.1853967,3.7728899,3.986306,-3.414656,67.5,-158.1,-11.1,,,,,x,
951571,2.5839777,6.75124,-6.7847357,3.54423,4.024416,-4.489358,57.9,-160.5,-21.900002,,,,,x,
951592,2.087519,7.107135,-7.4097953,1.417692,2.675322,-6.242418,65.100006,-172.5,-15.3,,,,,x,
951612,2.7550466,8.122782,-7.3200736,1.455802,2.614346,-5.86894,69.9,-170.1,-23.1,,,,,x,
951632,1.8578321,8.997267,-8.094668,1.821658,4.30643,-6.0899777,86.700005,-153.3,-21.300001,,,,,x,
951652,1.866206,9.38606,-8.717336,1.8445239,3.6738038,-6.158576,77.100006,-158.1,-21.300001,,,,,x,
951692,2.037275,11.507672,-7.740568,0.487808,7.713464,-5.5945477,91.5,-153.3,-12.900001,,,,,x,
951712,1.1885101,12.023272,-9.052296,1.3872039,11.730258,-7.3780956,103.50001,-158.1,-18.900002,,,,,x,
951752,0.44202766,11.953887,-8.866872,0.320124,8.826276,-7.0351057,117.9,-143.70001,-21.300001,,,,,x,
951792,-0.7129864,14.00492,-10.666683,2.7134318,17.317184,-7.1418138,125.100006,-148.5,-13.500001,,,,,x,
951870,-2.6808767,15.651009,-9.367517,0.60976,12.698252,-7.85066,132.3,-143.70001,-8.700001,,,,,x,
951892,-4.502222,13.975013,-10.021287,1.463424,13.399476,-5.541194,139.5,-124.50001,-8.1,,,,,x,
951932,-4.639197,16.795855,-6.417476,-3.079288,8.224138,-5.823208,127.50001,-134.1,-4.5,,,,,x,
951952,-4.9041743,14.513341,-8.370413,-0.26677,13.2013035,-4.893324,137.1,-136.5,-4.5,,,,,x,
951972,-4.4986334,15.905818,-7.8201213,-2.454284,6.829312,-1.303362,134.70001,-129.3,-3.9,,,,,x,
951993,-4.131972,16.706133,-5.004064,-4.108258,3.833866,-1.074702,129.90001,-131.70001,0.90000004,,,,,x,
952013,-5.3701277,14.49121,-4.914941,-4.199722,7.911636,-2.378064,127.50001,-134.1,-6.9,,,,,x,
952033,-5.0471306,13.992957,-5.475401,-4.809482,5.990892,0.327746,127.50001,-136.5,-6.9,,,,,x,
952055,-4.703198,13.472572,-3.9932024,-4.718018,2.027452,1.234764,132.3,-129.3,-9.3,,,,,x,
952075,-4.1648693,12.640555,-2.8160572,-5.251558,0.358234,1.67684,127.50001,-129.3,-1.5,,,,,x,
952095,-4.136757,10.693002,-2.2238955,-5.5335717,0.198172,1.8750119,115.50001,-153.3,-6.3,,,,,x,
952115,-3.5960355,9.974034,-2.6880546,-5.045764,0.022866,3.567096,117.9,-146.1,-8.1,,,,,x,
952135,-2.7717946,9.636682,-2.698821,-3.879598,-2.416174,4.283564,110.700005,-148.5,-8.1,,,,,x,
952155,-2.0259101,8.696401,-1.6969316,-3.879598,-4.984788,4.26832,108.3,-150.90001,-20.1,,,,,x,
952175,-1.3924768,7.480974,-1.155014,-4.64942,-4.5274677,5.762232,108.3,-148.5,-10.5,,,,,x,
952195,-1.1980804,7.4528613,-1.2584928,-5.198204,-3.384168,7.3933396,98.700005,-160.5,-6.3,,,,,x,
952215,-0.8726906,6.7422676,-1.5515828,-4.80186,-3.7500238,6.5701637,96.3,-158.1,-12.900001,,,,,x,
952235,-0.5700303,5.874362,-1.1568085,-3.2850819,-5.44973,5.198204,96.3,-150.90001,-14.700001,,,,,x,
952275,0.22191104,4.1517105,0.24583676,-2.980202,-7.522914,2.964958,74.700005,-153.3,-19.5,,,,,x,
952295,0.3798208,3.3382359,0.5694321,-2.2713559,-6.4786997,2.7058098,93.9,-162.90001,-18.900002,,,,,x,
952315,0.5144029,3.2939734,0.24703304,-2.141782,-5.403998,3.864354,79.5,-162.90001,-19.5,,,,,x,
952335,1.0730685,2.6707084,0.6286483,-2.103672,-5.64028,4.161612,89.100006,-162.90001,-18.300001,,,,,x,
952358,2.1180243,2.5127985,0.3995595,0.03811,-4.489358,6.0899777,77.100006,-155.70001,-27.900002,,,,,x,
952378,3.0200238,4.313209,-0.032897864,1.8673899,-3.917708,7.3933396,67.5,-167.70001,-14.1,,,,,x,
952398,3.785647,5.1990585,-0.43784064,2.812518,-2.89636,6.379614,67.5,-172.5,-15.900001,,,,,x,
952418,3.7294214,5.1751328,-0.7668193,3.597584,-1.814036,4.245454,57.9,-170.1,-14.700001,,,,,x,
952438,3.9220235,5.4484844,-1.6209675,3.7652678,-1.158544,3.323192,55.500004,-162.90001,-12.900001,,,,,x,
952458,4.1355605,6.2099204,-2.1323798,3.399412,-1.6539739,3.079288,57.9,-158.1,-19.5,,,,,x,
952478,4.6661134,7.3625417,-2.2813172,2.2180018,-2.13416,2.89636,62.7,-177.3,-17.7,,,,,x,
952498,5.1559925,8.283084,-2.6312308,0.53354,-1.8902559,1.547266,50.7,-172.5,-20.1,,,,,x,
952518,4.8312006,8.36802,-3.0068648,-0.510674,-1.417692,-0.655492,41.100002,-158.1,-14.1,,,,,x,
952541,4.3359385,7.433721,-3.3890781,-0.28201398,-1.3643379,-2.385686,55.500004,-167.70001,-20.1,,,,,x,
952581,3.7216456,8.153287,-3.3962557,-0.03811,-1.730194,-1.1432999,69.9,-165.3,-12.900001,,,,,x,
952603,3.8544333,8.386562,-3.2066445,0.221038,-1.3719599,-1.158544,60.300003,-177.3,-17.1,,,,,,
952624,3.5942411,8.164652,-3.1055584,0.243904,-0.41921,-1.021348,53.100002,-165.3,-17.7,,,,,,
952645,3.4668367,8.354263,-3.154008,0.144818,0.518296,-0.998482,45.9,-158.1,-8.1,,,,,,
952667,3.0906048,8.586343,-3.0445478,0.289636,1.3414719,-1.3414719,53.100002,-170.1,-15.3,,,,,,
952687,2.5403132,8.713747,-3.3735263,0.297258,2.027452,-1.768304,67.5,-160.5,-13.500001,,,,,,
952707,2.2442324,8.6551285,-3.4106112,0.045732,1.669218,-1.8673899,45.9,-162.90001,-6.9,,,,,,
952729,1.940974,8.626418,-3.23057,0.274392,1.440558,-1.8826339,74.700005,-160.5,-18.900002,,,,,,
952811,1.5874715,8.722719,-3.1390543,-0.23628199,0.137196,-0.33536798,77.100006,-153.3,-11.1,,,,,,
952831,1.6436969,8.625221,-3.0463421,-0.388722,0.221038,-0.64787,55.500004,-158.1,-15.3,,,,,,
952851,1.6975298,8.393142,-3.0379682,-0.579272,0.30488,-0.868908,65.100006,-158.1,-17.7,,,,,,
952891,1.866206,8.964369,-2.9506392,-0.55640596,0.548784,-1.059458,79.5,-167.70001,-11.1,,,,,,
952933,1.5420126,8.694008,-2.8627121,-0.68597996,0.80793196,-1.1280559,67.5,-165.3,-15.900001,,,,,,
952953,1.5306479,8.87704,-2.8184497,-0.64787,0.82317597,-0.95274997,69.9,-170.1,-18.300001,,,,,,
952973,1.401449,9.071436,-2.740093,-0.503052,0.586894,-1.006104,74.700005,-170.1,-11.700001,,,,,,
953015,1.4696373,8.914722,-2.5750055,-0.182928,-0.274392,-0.640248,62.7,-162.90001,-18.900002,,,,,,
953036,1.8028029,9.296936,-2.5666316,-0.297258,-0.213416,-0.11432999,69.9,-160.5,-18.300001,,,,,,
953056,1.8135695,9.093568,-2.631829,-0.548784,0.259148,-0.106708,72.3,-179.70001,-12.3,,,,,,
953076,1.8045974,9.025977,-2.807683,-0.34298998,0.46494198,-0.129574,67.5,-160.5,-13.500001,,,,,,
953099,1.8422804,8.793898,-2.8017018,0.007622,0.510674,-0.259148,86.700005,-165.3,-19.5,,,,,,
953119,1.8883374,8.882423,-2.8716843,0.137196,0.586894,-0.07622,77.100006,-167.70001,-8.700001,,,,,,
953140,1.9003003,8.9894905,-2.8184497,0.19055,0.594516,-0.099086,65.100006,-167.70001,-15.900001,,,,,,
953160,1.8494581,8.872254,-2.8513474,0.03811,0.60976,-0.3811,69.9,-160.5,-15.900001,,,,,,
953180,1.9475535,8.811842,-2.7161672,0.0,0.586894,-0.55640596,74.700005,-153.3,-8.700001,,,,,,
953200,1.9906198,8.820814,-2.6240532,-0.144818,0.777444,-0.68597996,77.100006,-165.3,-17.1,,,,,,
953220,1.8961133,8.576772,-2.5169857,-0.35061198,0.868908,-0.830798,69.9,-160.5,-11.1,,,,,,
953244,1.5031333,8.23284,-2.4117124,-0.091464,1.013726,-0.55640596,79.5,-167.70001,-11.700001,,,,,,
953264,1.4044397,9.418958,-2.431451,0.26677,0.907018,0.655492,74.700005,-158.1,-14.700001,,,,,x,
953284,1.0563204,10.65472,-2.2579896,-0.480186,0.23628199,0.46494198,77.100006,-165.3,-11.700001,,,,,x,
953304,0.5419175,9.808947,-2.4093199,-1.532022,0.121952,-0.769822,62.7,-167.70001,-14.700001,,,,,x,
953324,0.028710863,9.348376,-2.2861025,-1.745438,-1.6463519,-0.68597996,74.700005,-165.3,-15.3,,,,,x,
953364,-0.21054633,8.78373,-1.7842605,-2.2865999,-5.86894,0.899396,77.100006,-162.90001,-11.1,,,,,x,
953386,-0.049645867,8.728103,-1.4295617,-2.355198,-8.208894,1.71495,77.100006,-162.90001,-20.1,,,,,x,
953406,0.07476787,8.000162,-1.1651825,-2.576236,-10.602201,1.75306,86.700005,-162.90001,-17.1,,,,,x,
953427,0.6974347,6.656135,-0.5054308,-1.8750119,-12.782094,2.09605,77.100006,-177.3,-20.1,,,,,x,
953448,0.8936256,5.5657206,0.01794429,-1.3643379,-13.87204,2.995446,69.9,-170.1,-20.1,,,,,x,
953489,1.2878019,4.4071174,0.50842154,-0.960372,-14.085456,3.094532,67.5,-174.90001,-25.500002,,,,,x,
953509,1.5210776,3.9274068,0.45040166,-0.663114,-13.391853,2.385686,69.9,-172.5,-15.900001,,,,,x,
953529,1.7334183,3.3190954,0.18721876,-0.602138,-12.515324,1.150922,62.7,-172.5,-14.1,,,,,x,
953549,1.9613107,2.9249191,-0.12202117,0.26677,-11.211962,0.586894,62.7,-162.90001,-23.1,,,,,x,
953569,3.05352,3.5673246,-0.5801987,0.70122397,-9.397925,0.41158798,79.5,-165.3,-20.7,,,,,x,
953611,3.6432889,5.492747,-3.0906048,3.940574,-3.6890478,-0.45731997,69.9,-165.3,-24.900002,,,,,x,
953631,2.7723927,5.2265735,-3.49794,2.317088,-2.2408679,-3.2622159,72.3,-165.3,-24.900002,,,,,x,
953651,2.2603822,4.2839,-4.070961,1.3948259,-0.34298998,-4.672286,79.5,-172.5,-18.900002,,,,,x,
953671,2.8884325,5.1398425,-4.4453983,1.8978779,0.144818,-4.26832,77.100006,-165.3,-26.7,,,,,x,
953691,3.0595014,6.471907,-5.0812244,1.71495,2.179892,-4.283564,79.5,-153.3,-24.900002,,,,,x,
953711,1.8470654,6.0920863,-5.9670744,1.3948259,4.11588,-5.3811316,98.700005,-155.70001,-17.1,,,,,x,
953731,1.3733363,6.4402056,-6.8337836,1.3643379,4.9009457,-4.984788,89.100006,-158.1,-18.900002,,,,,x,
953751,1.4175988,7.106537,-7.283587,1.6006199,4.641798,-4.657042,93.9,-158.1,-18.300001,,,,,x,
953771,0.6896588,7.985807,-7.613762,2.2713559,5.205826,-4.253076,103.50001,-162.90001,-18.300001,,,,,x,
953791,0.9881322,10.447763,-8.080912,1.577754,5.708878,-2.317088,89.100006,-153.3,-20.7,,,,,x,
953858,0.4288685,11.147591,-8.140128,-0.030488,8.003099,-6.0290017,113.100006,-131.70001,-22.5,,,,,x,
953923,-0.58378756,11.995757,-8.217288,0.07622,13.590026,-6.143332,117.9,-141.3,-8.700001,,,,,x,
953971,-1.5121055,15.454818,-7.8554115,-1.98172,8.071698,-6.0442457,127.50001,-141.3,-14.700001,,,,,x,
954011,-3.3920689,14.411058,-10.38137,2.042696,18.59768,-4.070148,125.100006,-138.90001,-17.1,,,,,x,
954031,-1.4959556,17.908401,-10.585935,-0.998482,8.841519,-1.204276,151.5,-131.70001,-10.5,,,,,x,
954053,-3.844265,16.798246,-5.986813,-3.833866,4.718018,-6.219552,151.5,-136.5,-6.3,,,,,x,
954073,-4.1636734,14.733458,-7.792607,0.92226195,14.489422,-5.419242,144.3,-141.3,-8.700001,,,,,x,
954096,-3.773684,16.57813,-8.78672,-0.769822,10.807996,-1.6158639,141.90001,-138.90001,0.3,,,,,x,
954117,-3.5410063,17.534561,-6.3253617,-2.583858,5.4421077,-1.669218,137.1,-124.50001,0.3,,,,,x,
954137,-4.594336,14.823179,-5.6040015,-1.814036,8.376577,-2.62959,149.1,-134.1,-6.9,,,,,x,
954157,-4.04225,15.259225,-5.550767,-3.376546,7.690598,0.045732,149.1,-129.3,-2.1000001,,,,,x,
954177,-3.8753684,15.489511,-4.8515377,-3.589962,6.562542,-0.144818,129.90001,-138.90001,-8.1,,,,,x,
954217,-3.752749,12.848709,-3.481192,-4.756128,2.393308,1.02897,137.1,-134.1,-8.700001,,,,,x,
954240,-2.8381884,12.206304,-2.580987,-5.076252,2.446662,2.843006,115.50001,-136.5,-4.5,,,,,x,
954260,-2.9374802,12.412065,-2.8310106,-5.0838737,1.432936,2.919226,115.50001,-138.90001,-14.1,,,,,x,
954280,-2.86989,10.984298,-2.6168754,-4.672286,-0.72409,2.507638,103.50001,-126.9,-12.900001,,,,,x,
954300,-2.6384087,9.476977,-1.9834421,-3.986306,-3.1783738,2.614346,125.100006,-143.70001,-15.3,,,,,x,
954363,-1.9062816,6.932477,-1.2943814,-4.161612,-6.0442457,4.34454,108.3,-160.5,-7.5000005,,,,,x,
954389,-1.7890456,5.199657,-1.1005831,-4.15399,-6.775958,5.0381417,110.700005,-150.90001,-13.500001,,,,,x,
954409,-1.5079185,4.635608,-1.1454438,-4.291186,-7.309498,5.8918056,105.9,-165.3,-18.900002,,,,,x,
954449,-0.4300648,3.7210474,-0.5664414,-2.827762,-9.367437,7.3323636,91.5,-162.90001,-21.300001,,,,,x,
954469,0.3576895,4.2019544,-0.10886202,-3.35368,-9.580853,8.147918,96.3,-170.1,-16.5,,,,,x,
954489,1.0664889,4.5739994,-0.2254999,-3.01069,-9.336949,7.538158,84.3,-165.3,-23.7,,,,,x,
954511,0.45279422,3.1241007,-0.34871736,-2.332332,-9.71805,4.397894,74.700005,-155.70001,-16.5,,,,,x,
954531,0.79792273,1.6102009,-0.26138848,-0.083841994,-10.617446,4.87808,67.5,-167.70001,-23.7,,,,,x,
954552,2.7083914,3.4560702,0.5078234,-0.022866,-10.51836,8.544262,79.5,-162.90001,-23.1,,,,,x,
954572,3.3430212,4.3455086,0.4743274,0.121952,-7.5915117,7.0351057,55.500004,-160.5,-20.7,,,,,x,
954632,4.8174434,6.4156814,-1.1783416,2.2027578,-1.661596,4.634176,43.5,-179.70001,-18.300001,,,,,x,
954652,5.192479,7.0939755,-1.8099806,2.393308,-0.83842,3.147886,50.7,-170.1,-23.7,,,,,x,
954676,5.664414,7.527031,-2.0612006,2.065562,-0.213416,0.785066,45.9,-170.1,-23.7,,,,,x,
954696,5.103356,7.4905443,-2.8477588,1.8369019,1.56251,-1.440558,43.5,-179.70001,-21.900002,,,,,x,
954716,4.974157,7.7333903,-3.5667264,3.071666,1.493912,-1.585376,41.100002,-170.1,-19.5,,,,,,
954738,4.3987436,8.983509,-3.459061,2.507638,1.288118,-1.150922,29.1,-165.3,-23.1,,,,,,
954800,3.405826,9.53739,-3.3513951,1.661596,2.2865999,-1.6234859,60.300003,-162.90001,-21.300001,,,,,,
954822,2.9984908,9.130054,-3.426163,0.754578,3.064044,-3.033556,43.5,-172.5,-13.500001,,,,,,
954884,2.0923042,8.699989,-2.9990888,0.091464,2.461906,-1.8521459,57.9,-158.1,-23.7,,,,,,
954934,2.1102483,8.548659,-2.5815852,0.23628199,0.617382,-0.449698,53.100002,-167.70001,-9.3,,,,,,
954954,1.9936105,8.788515,-2.5133967,-0.160062,0.83842,-0.17530599,67.5,-162.90001,-13.500001,,,,,,
954996,1.8022047,8.498415,-2.865105,0.221038,0.785066,-0.30488,53.100002,-160.5,-20.1,,,,,,
955020,1.9924142,9.445874,-3.0965862,0.35061198,0.41158798,0.137196,55.500004,-158.1,-15.900001,,,,,,
955041,2.1060615,9.5984,-3.061894,-0.19055,-0.030488,-0.68597996,72.3,-170.1,-15.900001,,,,,,
955063,2.0486398,8.741859,-2.924321,-0.45731997,-0.396344,-0.80030996,62.7,-177.3,-8.1,,,,,,
955103,2.0689766,9.140223,-2.7460744,-0.434454,-0.144818,-1.021348,62.7,-162.90001,-15.900001,,,,,,
955126,2.0576117,9.33103,-2.7095876,-0.60976,0.07622,-1.074702,57.9,-170.1,-19.5,,,,,,
955146,1.8207473,8.908143,-2.7143729,-1.036592,0.480186,-1.3643379,57.9,-179.70001,-18.900002,,,,,,
955166,1.6598468,8.538491,-2.64439,-0.82317597,0.55640596,-1.211898,60.300003,-162.90001,-20.7,,,,,,
955186,1.6999223,8.728103,-2.513995,-0.655492,0.55640596,-0.640248,48.300003,-182.1,-18.300001,,,,,,
955210,1.9529368,9.039735,-2.4655454,-0.434454,0.67073596,-0.632626,62.7,-174.90001,-18.900002,,,,,,
955230,1.8757764,8.750234,-2.4745176,-0.373478,1.051836,-0.81555396,65.100006,-162.90001,-14.1,,,,,,
955313,1.7896438,8.8381605,-2.7837574,0.617382,1.097568,-0.967994,57.9,-167.70001,-21.900002,,,,,,
955411,1.3081387,9.700683,-2.8920212,0.182928,-0.030488,-0.243904,77.100006,-162.90001,-17.1,,,,,,
955452,0.68547183,8.93506,-2.6994193,-1.036592,-1.814036,0.213416,57.9,-172.5,-8.700001,,,,,x,
955472,0.71657526,9.072633,-2.4045348,-1.204276,-3.368924,1.1128119,60.300003,-167.70001,-17.1,,,,,x,
955533,1.2447355,7.4373097,-0.6172835,-2.301844,-7.3476076,1.730194,57.9,-174.90001,-21.900002,,,,,x,
955576,1.2291838,6.312801,-0.15551718,-0.92988396,-10.06104,2.576236,60.300003,-170.1,-15.3,,,,,x,
955596,1.3613734,5.8958955,0.1280026,-0.80030996,-11.257693,2.850628,60.300003,-165.3,-21.300001,,,,,x,
955616,1.6006306,5.493943,0.28591233,-0.884152,-12.23331,2.7210538,55.500004,-162.90001,-17.1,,,,,x,
955659,1.6167804,4.35807,0.2685662,-1.577754,-12.934534,0.60976,45.9,-172.5,-20.1,,,,,x,
955679,1.4516929,3.301151,0.1961909,-1.821658,-13.254658,-0.95274997,50.7,-162.90001,-18.300001,,,,,x,
955699,1.589864,2.6802785,-0.1363766,-2.408552,-12.622032,-1.097568,60.300003,-174.90001,-23.1,,,,,x,
955719,1.7896438,2.5636408,-0.10228245,-2.538126,-12.294286,-0.861286,74.700005,-160.5,-22.5,,,,,x,
955739,2.3961608,2.994902,0.019140575,-2.545748,-10.876594,-1.204276,62.7,-172.5,-25.500002,,,,,x,
955759,2.1927922,2.4793026,-0.9103736,-2.317088,-7.896392,-2.378064,65.100006,-179.70001,-24.300001,,,,,x,
955779,1.8135695,3.145634,-2.1622868,0.198172,-5.358266,-2.2865999,79.5,-160.5,-26.7,,,,,x,
955801,1.1239107,4.631421,-4.0685687,1.8445239,-1.250008,-2.652456,79.5,-172.5,-19.5,,,,,x,
955822,1.3248867,5.54,-5.1559925,2.027452,-0.33536798,-2.492394,89.100006,-172.5,-26.1,,,,,x,
955843,1.9176464,6.714753,-5.593235,2.36282,-0.053354,-1.75306,77.100006,-174.90001,-25.500002,,,,,x,
955884,1.9188427,9.9399395,-7.0861998,2.431418,2.2180018,-4.519846,79.5,-170.1,-27.300001,,,,,x,
955904,1.2112396,7.927189,-6.9970765,2.393308,3.033556,-8.285114,98.700005,-165.3,-30.300001,,,,,x,
955924,0.36008206,7.6957073,-7.604192,3.079288,4.672286,-7.667732,86.700005,-165.3,-23.1,,,,,x,
955944,1.2692593,11.508271,-8.650942,4.0015497,6.9283977,-2.301844,93.9,-160.5,-22.5,,,,,x,
956007,-1.0018895,9.447668,-8.64197,0.70122397,10.236346,-8.87963,113.100006,-150.90001,-16.5,,,,,x,
956027,-0.23985533,14.122155,-7.978031,-0.22865999,11.455866,-2.949714,120.3,-141.3,-25.500002,,,,,x,
956067,-1.3105313,14.330908,-9.304712,1.33385,16.417788,-7.149436,122.700005,-143.70001,-14.700001,,,,,x,
956090,-1.3697474,14.771739,-9.3130865,0.34298998,13.178437,-6.196686,137.1,-131.70001,-17.7,,,,,x,
956110,-1.7429886,16.988457,-9.486547,0.099086,14.542776,-5.929916,120.3,-146.1,-10.5,,,,,x,
956130,-2.8166552,15.969819,-9.831078,0.251526,14.436068,-8.033587,134.70001,-134.1,-21.300001,,,,,x,
956190,-4.368238,15.878304,-9.017604,-1.074702,15.076316,-5.83083,134.70001,-129.3,-8.1,,,,,x,
956210,-4.2013564,14.101819,-8.533706,-2.2332458,9.75616,-4.222588,141.90001,-138.90001,-5.1000004,,,,,x,
956230,-5.0130363,14.567772,-4.6834593,-5.266802,6.349126,-1.478668,144.3,-122.100006,-8.700001,,,,,x,
956250,-5.43054,14.557006,-5.2762194,-5.4268637,12.507702,-1.25763,129.90001,-136.5,-8.1,,,,,x,
956270,-4.9017816,13.788392,-5.2032456,-4.474114,8.0945635,-0.884152,132.3,-150.90001,-10.5,,,,,x,
956314,-3.6869533,13.451039,-2.5283504,-4.054904,6.59303,2.378064,132.3,-136.5,-11.1,,,,,x,
956334,-3.4082186,14.393712,-2.8597217,-4.15399,5.25918,2.942092,129.90001,-136.5,-12.3,,,,,x,
956354,-3.3741245,13.340981,-2.4864802,-4.618932,4.4207597,2.2408679,139.5,-148.5,-6.9,,,,,x,
956378,-3.2335608,11.8833065,-2.4858823,-5.5640597,2.560992,3.025934,127.50001,-143.70001,-12.3,,,,,x,
956398,-2.568426,11.867157,-2.0635931,-5.03052,-0.022866,3.7805119,115.50001,-148.5,-8.700001,,,,,x,
956418,-2.4045348,10.910128,-1.7035112,-4.80186,-1.440558,3.170752,120.3,-155.70001,-8.1,,,,,x,
956438,-2.4260678,9.133045,-1.4439172,-4.72564,-2.7591639,2.964958,120.3,-150.90001,-7.5000005,,,,,x,
956458,-1.8536451,8.769972,-1.393075,-3.452766,-4.0777698,4.283564,113.100006,-155.70001,-16.5,,,,,x,
956478,-1.4899741,7.961881,-1.0593112,-2.942092,-5.251558,4.070148,98.700005,-150.90001,-14.700001,,,,,x,
956498,-0.954038,7.0485168,-0.744688,-2.088428,-6.181442,3.628072,110.700005,-162.90001,-22.5,,,,,x,
956522,-0.7626323,5.7995944,-0.69384587,-1.8521459,-6.303394,3.2393498,110.700005,-153.3,-11.700001,,,,,x,
956542,-0.022729432,5.308519,-0.80809116,-1.6539739,-6.4786997,4.26832,98.700005,-155.70001,-15.900001,,,,,x,
956562,0.67410713,5.388072,-0.7082013,-1.455802,-6.844556,5.3658876,96.3,-162.90001,-18.900002,,,,,x,
956582,1.0766573,4.7337036,-0.30923992,-2.2713559,-6.59303,6.0594897,91.5,-170.1,-19.5,,,,,x,
956602,0.9157569,4.0859146,-0.11005831,-3.01069,-5.86894,6.753092,79.5,-167.70001,-25.500002,,,,,x,
956663,2.1694646,5.6955175,-0.3660635,-0.46494198,-7.9649897,6.280528,60.300003,-162.90001,-27.900002,,,,,x,
956683,1.2578946,4.584766,-0.31223062,-0.099086,-7.9497457,2.545748,72.3,-160.5,-24.900002,,,,,x,
956703,1.8889354,3.3926668,-0.71597713,0.586894,-7.8735256,2.118916,57.9,-167.70001,-23.7,,,,,x,
956725,3.6187649,4.7725825,-0.28172535,1.417692,-6.798824,2.6829438,69.9,-165.3,-27.900002,,,,,x,
956746,3.6408963,4.820434,-0.7410991,1.577754,-4.176856,1.8369019,67.5,-167.70001,-20.1,,,,,x,
956766,3.5930448,5.2654524,-1.45588,2.545748,-2.82014,2.050318,57.9,-174.90001,-17.1,,,,,x,
956829,4.045241,7.6669965,-1.8590283,2.2561119,-0.198172,0.55640596,53.100002,-162.90001,-22.5,,,,,x,
956869,3.9315937,9.020595,-2.5744073,2.141782,1.280496,-1.3567159,41.100002,-167.70001,-23.7,,,,,x,
956909,3.2036538,7.7423625,-3.12111,2.339954,1.760682,-2.309466,69.9,-160.5,-16.5,,,,,x,
956929,2.9715743,8.925489,-3.9016867,1.71495,2.7972739,-0.541162,55.500004,-160.5,-24.300001,,,,,,
956972,2.811272,8.726308,-4.0147357,2.103672,1.501534,-0.17530599,48.300003,-167.70001,-16.5,,,,,,
956993,3.071464,8.830983,-3.814956,1.6006199,2.637212,-0.396344,62.7,-172.5,-13.500001,,,,,,
957035,2.4864802,8.437405,-3.9166403,0.64787,3.140264,-1.3719599,74.700005,-160.5,-15.3,,,,,,
957055,2.3333557,7.9463296,-3.701907,0.3811,2.568614,-1.3872039,62.7,-160.5,-18.900002,,,,,,
957075,2.262775,8.597707,-3.3783114,0.221038,1.554888,-1.013726,55.500004,-172.5,-11.700001,,,,,,
957095,2.108454,9.285571,-3.410013,-0.16768399,1.21952,-1.1204339,55.500004,-165.3,-17.1,,,,,,
957157,1.1059663,8.434414,-2.8884325,-0.579272,-0.28201398,-1.455802,79.5,-158.1,-17.7,,,,,,
957177,1.233969,8.866872,-2.819048,-0.67835796,-0.716468,-0.907018,74.700005,-153.3,-12.3,,,,,,
957197,1.2148284,8.855507,-2.8722825,-1.02897,-0.785066,-1.059458,69.9,-167.70001,-14.700001,,,,,,
957220,1.4277673,8.880031,-2.7377005,-1.051836,-1.051836,-0.82317597,72.3,-160.5,-13.500001,,,,,,
957240,1.5324423,8.657521,-2.6240532,-1.1051899,-0.967994,-0.70122397,69.9,-165.3,-11.1,,,,,,
957260,1.7663162,8.985304,-2.6073053,-0.777444,-0.632626,-0.297258,77.100006,-165.3,-15.3,,,,,,
957280,1.7441849,8.932667,-2.5175838,-0.746956,-0.144818,-0.67073596,65.100006,-177.3,-15.3,,,,,,
957303,1.7986159,8.84474,-2.4870784,-0.320124,0.60976,-1.089946,72.3,-162.90001,-15.900001,,,,,,
957323,1.6682208,8.762197,-2.6162775,-0.20579399,0.891774,-0.868908,67.5,-162.90001,-15.900001,,,,,,
957383,1.4732262,9.063661,-2.7807667,-0.442076,1.310984,-0.861286,77.100006,-158.1,-15.900001,,,,,,
957443,1.5617512,8.799281,-2.9530318,0.129574,0.967994,-0.388722,79.5,-158.1,-12.900001,,,,,,
957465,1.6664263,9.017604,-2.91176,0.060976,0.80030996,-0.221038,62.7,-167.70001,-17.7,,,,,,
957486,1.7082963,8.776552,-3.0134442,-0.34298998,0.663114,-0.20579399,77.100006,-150.90001,-15.900001,,,,,,
957506,1.7160722,8.634792,-2.8812547,-0.41158798,0.251526,-0.16768399,62.7,-162.90001,-11.1,,,,,,
957526,1.7842605,8.70298,-2.8537402,-0.373478,0.20579399,-0.129574,67.5,-172.5,-12.3,,,,,,
957546,1.6945391,8.64197,-2.970378,-0.388722,0.15244,-0.243904,74.700005,-153.3,-20.1,,,,,,
957568,1.6341265,8.637184,-2.9823408,-0.030488,0.053354,-0.259148,86.700005,-167.70001,-16.5,,,,,,
957588,1.6921464,9.267627,-2.899199,0.121952,0.182928,0.083841994,79.5,-155.70001,-14.1,,,,,,
957612,1.1574067,8.97693,-2.9972944,-0.617382,0.602138,-0.137196,65.100006,-165.3,-20.7,,,,,,
957632,0.8972145,9.275403,-2.9237227,-0.487808,0.297258,0.297258,77.100006,-165.3,-12.900001,,,,,,
957652,0.83799833,9.762292,-2.7933276,-0.92226195,-0.320124,0.586894,74.700005,-165.3,-11.700001,,,,,x,
957672,0.5120104,9.88192,-2.5199764,-1.554888,-1.204276,0.487808,74.700005,-167.70001,-17.7,,,,,x,
957692,0.31641763,9.031959,-2.2837098,-2.05794,-2.538126,0.518296,77.100006,-162.90001,-12.900001,,,,,x,
957754,0.3618765,8.283682,-1.0497409,-1.48629,-8.925362,2.393308,60.300003,-162.90001,-25.500002,,,,,x,
957774,0.53653425,7.7447553,-0.6914533,-1.669218,-10.647934,2.51526,62.7,-162.90001,-11.700001,,,,,x,
957794,0.75844526,7.2046323,-0.2769402,-1.509156,-11.966539,2.7972739,62.7,-170.1,-18.300001,,,,,x,
957814,0.7524639,6.422261,-0.19320019,-2.004586,-12.88118,2.385686,72.3,-172.5,-18.900002,,,,,x,
957834,0.75605273,4.794714,-0.008972145,-2.317088,-13.91015,1.935988,65.100006,-165.3,-24.900002,,,,,x,
957876,1.5832845,3.5433989,0.9791601,-1.326228,-15.038206,2.7210538,60.300003,-167.70001,-24.900002,,,,,x,
957896,1.9367869,3.5751004,1.0904146,-1.432936,-13.483317,2.2027578,65.100006,-160.5,-24.900002,,,,,x,
957916,2.0827339,2.8878343,0.48090696,-1.013726,-10.983302,0.426832,57.9,-170.1,-23.7,,,,,x,
957939,2.9823408,3.3753207,-0.2906975,1.3719599,-8.178406,-0.56402797,79.5,-174.90001,-29.7,,,,,x,
957959,3.0696697,3.987221,-1.338644,1.570132,-5.205826,-1.814036,60.300003,-165.3,-17.7,,,,,x,
957979,2.8208423,4.0392594,-2.3913755,1.806414,-3.338436,-2.873494,57.9,-162.90001,-26.1,,,,,x,
958000,2.8680956,4.509998,-3.1773355,2.080806,-1.67684,-3.521364,65.100006,-170.1,-27.900002,,,,,x,
958020,2.6312308,5.0184197,-4.874865,2.080806,1.6158639,-4.260698,72.3,-162.90001,-19.5,,,,,x,
958040,1.9631052,5.108739,-6.2057333,3.2393498,1.074702,-5.198204,79.5,-162.90001,-23.1,,,,,x,
958062,1.8811597,4.417286,-5.647068,2.583858,-1.692084,-6.112844,74.700005,-162.90001,-27.900002,,,,,x,
958082,3.0529218,6.982721,-6.086105,3.2622159,0.830798,-2.82014,84.3,-165.3,-15.3,,,,,x,
958102,2.9679854,10.193553,-7.799784,3.399412,2.7286758,-3.993928,91.5,-165.3,-21.900002,,,,,x,
958123,0.96001947,6.953412,-8.354263,4.15399,1.760682,-9.596098,84.3,-148.5,-21.900002,,,,,x,
958143,2.0384712,9.491931,-8.496621,3.3079479,0.274392,-5.739366,108.3,-148.5,-25.500002,,,,,x,
958163,2.243036,12.217071,-7.9965734,0.449698,2.157026,-5.9527817,103.50001,-153.3,-20.7,,,,,x,
958183,0.31761393,10.385556,-8.914722,2.2942219,7.446694,-9.443658,125.100006,-150.90001,-14.1,,,,,x,
958203,0.73990285,10.80007,-9.65642,1.455802,5.815586,-6.753092,115.50001,-153.3,-18.900002,,,,,x,
958223,-0.25181818,11.593805,-7.007245,-1.996964,4.641798,-7.301876,125.100006,-143.70001,-18.900002,,,,,x,
958243,-1.4588706,11.583637,-7.7094646,-0.40396598,11.326292,-8.864386,122.700005,-138.90001,-17.1,,,,,x,
958263,-2.217316,11.599189,-9.438696,-0.07622,13.978747,-8.391822,137.1,-143.70001,-15.900001,,,,,x,
958285,-2.7837574,10.762386,-9.445874,-0.129574,10.868972,-7.972612,149.1,-136.5,-13.500001,,,,,x,
958305,-2.4206846,12.572966,-8.069547,-0.70122397,7.8430376,-5.251558,137.1,-138.90001,-15.3,,,,,x,
958329,-3.2084389,14.830357,-7.932572,-1.455802,14.344604,-7.20279,139.5,-119.700005,-11.1,,,,,x,
958349,-4.4741096,12.910916,-9.854405,0.70122397,18.292799,-7.713464,149.1,-124.50001,-10.5,,,,,x,
958370,-3.9692767,13.28954,-10.979512,0.632626,13.07173,-5.160094,149.1,-129.3,-6.9,,,,,x,
958390,-2.1299872,15.923762,-8.86089,-0.68597996,5.617414,-2.55337,144.3,-126.9,-11.1,,,,,x,
958410,-3.6749904,18.0053,-7.1436214,-0.663114,10.769886,-4.550334,175.5,-129.3,-12.900001,,,,,x,
958430,-5.103356,15.2849455,-10.261143,0.960372,18.391886,-6.4329677,153.90001,-129.3,-8.700001,,,,,x,
958514,-5.1021595,13.862561,-6.2141075,-5.44973,6.410102,-2.36282,149.1,-138.90001,-6.9,,,,,x,
958534,-6.236837,11.821099,-5.8253145,-5.076252,7.896392,-0.891774,144.3,-124.50001,-3.3000002,,,,,x,
958554,-4.3742194,13.986377,-5.974252,-3.4299,4.76375,2.995446,141.90001,-131.70001,-3.9,,,,,x,
958594,-5.0351677,11.136226,-2.8938158,-5.5030837,6.0747337,2.652456,146.70001,-126.9,-1.5,,,,,x,
958634,-4.291676,10.187572,-2.375824,-6.0137577,2.47715,4.375028,146.70001,-141.3,-6.9,,,,,x,
958654,-3.4626496,8.963172,-1.4439172,-5.403998,-0.060976,4.5579557,132.3,-146.1,-15.3,,,,,x,
958674,-3.222196,7.8877115,-0.8206521,-5.091496,-0.754578,5.152472,120.3,-141.3,-9.3,,,,,x,
958714,-1.9146557,6.5329175,-0.9725805,-3.948196,-3.2545938,5.480218,120.3,-158.1,-13.500001,,,,,x,
958737,-1.1418549,6.1064415,-0.61309654,-3.7728899,-4.870458,5.18296,125.100006,-150.90001,-12.900001,,,,,x,
958757,-0.63462967,5.251097,-0.4815051,-3.894842,-5.769854,4.38265,122.700005,-146.1,-14.1,,,,,x,
958777,-0.12022674,4.297657,-0.46834594,-3.422278,-6.562542,4.603688,98.700005,-141.3,-10.5,,,,,x,
958797,0.8948219,4.7648067,-0.31223062,-3.39179,-7.301876,6.875044,122.700005,-170.1,-11.1,,,,,x,
958817,1.4038415,5.9437466,-0.36127836,-4.169234,-6.66925,7.538158,103.50001,-158.1,-22.5,,,,,x,
958838,1.1783416,5.4574566,-1.0114597,-5.282046,-5.343022,5.137228,93.9,-165.3,-18.300001,,,,,x,
958858,1.3966638,4.169655,-1.4343468,-4.222588,-5.5945477,3.361302,101.100006,-172.5,-25.500002,,,,,x,
958880,1.5001426,3.7336085,-1.1855193,-2.47715,-7.0198617,2.980202,93.9,-162.90001,-23.7,,,,,x,
958903,2.1299872,3.5380156,-0.8152689,-1.6234859,-7.3933396,2.500016,86.700005,-167.70001,-20.7,,,,,x,
958923,2.569024,3.852639,-0.59933925,-0.746956,-7.6372437,2.82014,93.9,-158.1,-20.7,,,,,x,
958943,2.8244312,3.9250143,-0.59694666,-0.34298998,-6.8369336,2.538126,77.100006,-172.5,-22.5,,,,,x,
958965,3.598428,4.7713866,-0.5120104,0.754578,-6.920776,2.93447,86.700005,-165.3,-23.7,,,,,x,
958986,4.108644,5.5968237,-0.15192832,0.960372,-6.181442,2.89636,65.100006,-165.3,-17.7,,,,,x,
959006,4.631421,6.5729933,-0.5161974,0.861286,-4.0320377,2.576236,57.9,-170.1,-27.900002,,,,,x,
959027,4.8329954,7.7656903,-0.6214706,1.6387299,-2.652456,2.2332458,65.100006,-167.70001,-18.300001,,,,,x,
959047,4.2492075,8.397927,-0.99471176,1.280496,-0.60976,0.518296,69.9,-170.1,-22.5,,,,,x,
959067,3.664224,8.3847685,-1.8345045,1.158544,1.051836,-0.480186,57.9,-177.3,-24.300001,,,,,x,
959151,2.4834895,9.145606,-2.6031182,1.516778,1.1280559,-0.67073596,67.5,-170.1,-20.7,,,,,x,
959254,1.7178667,8.933864,-2.7640188,0.891774,1.089946,-0.41921,72.3,-162.90001,-29.7,,,,,,
959275,1.5150962,8.894984,-2.9434617,0.26677,1.547266,-0.3811,69.9,-172.5,-23.1,,,,,,
959316,1.4493004,9.153382,-2.9560225,0.541162,1.1280559,-0.053354,62.7,-167.70001,-22.5,,,,,,
959356,1.464254,9.255066,-2.7765796,0.34298998,0.830798,0.15244,69.9,-165.3,-20.1,,,,,,
959376,1.5790974,9.492529,-2.765215,0.213416,0.92988396,-0.007622,77.100006,-165.3,-21.300001,,,,,,
959419,1.4762169,9.135438,-2.7406912,0.327746,0.60976,0.11432999,62.7,-165.3,-18.300001,,,,,,
959439,1.3781214,8.760402,-2.7664113,-0.15244,0.510674,-0.160062,79.5,-158.1,-18.900002,,,,,,
959459,1.631136,8.813637,-2.573211,0.373478,0.320124,0.007622,77.100006,-162.90001,-11.1,,,,,,
959483,1.7740921,9.231739,-2.6808767,0.16768399,0.625004,-0.34298998,72.3,-165.3,-14.1,,,,,,
959504,1.6084064,8.734084,-2.705999,0.068598,0.80030996,-0.632626,53.100002,-165.3,-14.700001,,,,,,
959544,1.6036214,9.088184,-2.8052905,0.40396598,0.87653,-0.099086,67.5,-170.1,-18.300001,,,,,,
959564,1.5497885,9.210804,-2.9895186,0.22865999,0.95274997,-0.243904,67.5,-155.70001,-17.1,,,,,,
959584,1.49775,9.036744,-3.0816326,0.137196,0.708846,-0.22865999,65.100006,-170.1,-15.3,,,,,,
959604,1.6532671,8.93506,-2.996098,0.03811,0.449698,0.22865999,60.300003,-165.3,-18.300001,,,,,,
959624,1.7776809,9.055884,-2.823833,-0.426832,0.518296,0.449698,74.700005,-179.70001,-11.1,,,,,,
959648,1.8632153,9.114503,-3.0224164,-0.80030996,1.036592,-0.144818,72.3,-170.1,-12.3,,,,,,
959668,1.6263508,8.710756,-3.3244786,-0.449698,1.417692,-0.792688,60.300003,-155.70001,-10.5,,,,,,
959688,1.8488599,8.722719,-3.1408486,-0.121952,0.320124,0.57164997,62.7,-160.5,-20.1,,,,,,
959728,2.0043771,9.267627,-2.890825,-0.754578,0.846042,0.0,67.5,-172.5,-18.300001,,,,,,
959750,1.7453812,8.750234,-2.7604299,-0.87653,0.975616,-0.960372,74.700005,-167.70001,-20.7,,,,,,
959771,1.8189528,8.591127,-2.6617362,-0.846042,0.754578,-1.044214,81.9,-150.90001,-17.1,,,,,,
959792,1.8422804,8.602492,-2.5959406,-0.312502,0.868908,-0.80793196,57.9,-160.5,-17.1,,,,,,
959854,1.8638135,8.965565,-2.3776183,0.20579399,1.227142,-0.594516,81.9,-162.90001,-17.7,,,,,,
959875,1.719661,8.64496,-2.447003,-0.26677,1.577754,-0.792688,53.100002,-165.3,-17.7,,,,,,
959895,1.7232499,8.707168,-2.5331354,0.03811,1.585376,-0.617382,79.5,-158.1,-14.700001,,,,,,
959915,1.7453812,9.086988,-2.589361,0.274392,1.463424,-0.548784,79.5,-172.5,-17.1,,,,,,
959935,1.7328202,9.25387,-2.4912655,0.19055,1.29574,-0.56402797,60.300003,-172.5,-18.300001,,,,,,
959955,1.6903521,8.981715,-2.3243835,-0.221038,1.303362,-0.68597996,67.5,-165.3,-11.1,,,,,,
959975,1.6688188,9.293347,-2.4380307,-0.33536798,1.425314,-0.69360197,67.5,-160.5,-18.300001,,,,,,
959996,1.6155841,9.244898,-2.731719,-0.57164997,1.3643379,-0.731712,65.100006,-150.90001,-14.700001,,,,,,
960016,1.7830642,9.957286,-2.9135544,-0.30488,1.1432999,-0.259148,72.3,-160.5,-14.700001,,,,,,
960036,1.4038415,9.632494,-3.1109416,-0.69360197,0.68597996,-0.274392,77.100006,-153.3,-19.5,,,,,x,
960059,1.3458217,9.938146,-2.6605399,-0.30488,-0.92226195,0.33536798,65.100006,-165.3,-14.1,,,,,x,
960079,1.154416,9.6372795,-2.24184,-1.29574,-1.509156,0.30488,65.100006,-155.70001,-18.900002,,,,,x,
960100,0.7620341,9.31488,-1.7041093,-2.01983,-2.32471,0.617382,72.3,-162.90001,-15.900001,,,,,x,
960120,0.5371324,9.222767,-1.3326626,-2.47715,-3.109776,1.044214,72.3,-162.90001,-17.7,,,,,x,
960140,0.2003779,8.915919,-1.2154266,-2.538126,-4.30643,1.242386,74.700005,-165.3,-21.900002,,,,,x,
960160,0.01016843,8.230447,-1.0365818,-2.621968,-6.295772,1.41007,67.5,-165.3,-17.1,,,,,x,
960202,0.55507666,6.781147,-0.059216153,-1.6006199,-9.885734,3.346058,74.700005,-174.90001,-18.900002,,,,,x,
960223,0.96241206,6.652546,0.07177716,-1.417692,-10.731775,3.993928,67.5,-167.70001,-17.1,,,,,x,
960244,1.1149385,6.183602,0.24464047,-1.1280559,-11.89032,3.96344,53.100002,-170.1,-24.300001,,,,,x,
960264,1.4516929,5.6249366,0.4928698,-1.33385,-12.7058735,3.612828,62.7,-177.3,-20.1,,,,,x,
960284,1.5288534,4.832397,0.6196761,-1.722572,-13.155572,2.942092,65.100006,-177.3,-16.5,,,,,x,
960304,1.3392421,3.73959,0.849363,-2.080806,-13.826307,1.8978779,55.500004,-177.3,-23.7,,,,,x,
960324,1.1490326,2.601922,0.68666816,-2.370442,-13.41472,0.967994,55.500004,-174.90001,-18.900002,,,,,x,
960344,1.443319,2.3447204,0.4509998,-2.118916,-12.91929,1.051836,60.300003,-172.5,-16.5,,,,,x,
960364,2.3339539,2.2274845,0.0807493,-1.3643379,-11.24245,-0.33536798,62.7,-184.5,-18.900002,,,,,x,
960384,2.9099655,2.8310106,-0.22430362,-0.56402797,-10.312566,-0.449698,57.9,-170.1,-33.300003,,,,,x,
960404,4.0015764,4.6188602,-1.3494105,0.64787,-7.743952,-1.044214,57.9,-174.90001,-21.900002,,,,,x,
960427,3.2957678,4.20016,-2.865105,-0.182928,-4.321674,-4.72564,60.300003,-162.90001,-28.500002,,,,,x,
960447,3.07924,3.664822,-3.459061,0.60976,-2.522882,-5.5793037,65.100006,-160.5,-25.500002,,,,,x,
960467,3.2371497,4.2773204,-4.475904,1.532022,0.243904,-5.853696,72.3,-172.5,-22.5,,,,,x,
960487,3.045744,5.5160747,-6.2434163,3.399412,4.5122237,-5.160094,81.9,-162.90001,-30.900002,,,,,x,
960507,3.1276896,7.759709,-7.6167526,4.070148,3.879598,-4.969544,86.700005,-170.1,-25.500002,,,,,x,
960527,3.3149083,7.976835,-6.56761,2.6981878,1.1280559,-7.042728,81.9,-160.5,-26.1,,,,,x,
960547,2.7867482,8.102445,-6.6334057,2.7439198,4.695152,-7.6372437,86.700005,-162.90001,-22.5,,,,,x,
960567,1.5862751,8.459536,-7.844047,3.6661818,8.628104,-7.789684,91.5,-158.1,-21.900002,,,,,x,
960587,2.1150336,11.033943,-9.208411,4.375028,9.245486,-5.274424,89.100006,-153.3,-20.1,,,,,x,
960607,1.2249968,10.456138,-7.961881,0.792688,7.4085836,-9.649452,105.9,-150.90001,-19.5,,,,,x,
960627,-0.15970418,9.961473,-8.225064,2.7439198,11.92843,-9.878112,110.700005,-150.90001,-21.300001,,,,,x,
960647,-1.3918787,11.831866,-9.846031,3.84911,18.36902,-6.4482117,122.700005,-153.3,-14.700001,,,,,x,
960667,0.02213129,15.649215,-12.203313,4.222588,19.154085,-3.6738038,132.3,-148.5,-13.500001,,,,,x,
960687,-0.81766146,15.10311,-11.6673765,1.044214,11.196718,-9.382682,129.90001,-141.3,-6.9,,,,,x,
960708,-2.8997972,11.826483,-9.89508,1.48629,9.253108,-10.21348,139.5,-146.1,-12.900001,,,,,x,
960728,-1.5802938,14.701158,-9.834667,0.640248,12.91929,-3.521364,141.90001,-134.1,-12.900001,,,,,x,
960748,-2.116828,17.333586,-10.247984,-0.259148,15.686075,-4.184478,132.3,-134.1,-14.700001,,,,,x,
960809,-4.3640513,14.417638,-8.322561,-1.059458,12.987887,-4.138746,137.1,-124.50001,-5.7000003,,,,,x,
960829,-4.1277847,17.136198,-8.984107,-0.72409,14.199785,-2.675322,141.90001,-126.9,-10.5,,,,,x,
960851,-4.594336,16.152851,-7.6155562,-3.437522,11.097631,-5.0381417,141.90001,-119.700005,-3.3000002,,,,,x,
960871,-6.2691364,14.238195,-6.8606997,-4.207344,12.84307,-4.34454,139.5,-117.3,-5.1000004,,,,,x,
960891,-5.7583222,15.390817,-8.222074,-3.628072,12.629654,-0.503052,134.70001,-126.9,-3.3000002,,,,,x,
960913,-4.527942,15.691085,-5.4538674,-5.52595,5.67839,0.777444,132.3,-136.5,-6.3,,,,,x,
960933,-4.502222,14.48164,-5.120104,-5.121984,7.3171196,1.71495,134.70001,-143.70001,-5.1000004,,,,,x,
960955,-4.139149,13.961255,-5.8348846,-4.283564,6.59303,3.2088618,120.3,-134.1,-6.9,,,,,x,
960975,-3.99081,14.003125,-4.707385,-3.7195358,2.51526,3.2088618,110.700005,-141.3,-5.7000003,,,,,x,
961015,-3.2694495,12.080693,-3.547586,-5.9222937,0.92226195,4.68753,110.700005,-138.90001,-5.1000004,,,,,x,
961111,-1.0898165,5.547178,-0.44501838,-4.809482,-9.199754,0.57164997,84.3,-148.5,-17.1,,,,,x,
961131,-0.70939755,4.4280524,0.6447981,-3.628072,-9.1463995,2.85825,108.3,-155.70001,-12.900001,,,,,x,
961175,0.111254595,4.6613283,0.4761218,-2.7744079,-6.8674216,3.650938,84.3,-160.5,-24.300001,,,,,x,
961195,0.1961909,4.3365364,0.34752107,-1.150922,-7.3780956,3.7424018,86.700005,-165.3,-14.1,,,,,x,
961217,0.5801987,4.3526864,0.5658432,-0.480186,-8.018344,4.11588,91.5,-160.5,-17.7,,,,,x,
961237,0.9133643,4.254591,0.54072124,-0.07622,-7.644866,3.58234,86.700005,-165.3,-20.1,,,,,x,
961259,0.77040815,3.4530795,0.20994818,0.960372,-7.218034,2.2027578,79.5,-174.90001,-17.7,,,,,x,
961280,1.200473,2.9219284,-0.2075556,2.560992,-6.8521776,2.7210538,79.5,-162.90001,-17.7,,,,,x,
961300,2.3614686,3.8550315,-0.27933276,2.7591639,-6.8369336,4.03966,81.9,-177.3,-17.7,,,,,x,
961320,2.752056,4.0691667,-0.55328226,2.431418,-5.762232,3.589962,81.9,-167.70001,-8.1,,,,,x,
961340,2.6635306,3.8891256,-1.2064544,2.850628,-4.634176,2.7820299,74.700005,-162.90001,-17.7,,,,,x,
961360,3.5499785,5.3587627,-1.8189528,3.368924,-4.756128,4.61131,72.3,-162.90001,-17.1,,,,,x,
961380,4.5506716,7.216595,-1.8709912,1.8597679,-3.978684,4.61131,55.500004,-174.90001,-15.3,,,,,x,
961444,4.0817275,6.626228,-2.8645067,0.121952,-2.2865999,1.097568,65.100006,-174.90001,-15.900001,,,,,x,
961471,4.484876,8.46133,-2.9392745,-0.182928,-1.928366,0.95274997,57.9,-165.3,-17.7,,,,,,
961491,4.4944463,8.823805,-2.8052905,-0.358234,-1.798792,0.221038,43.5,-162.90001,-17.7,,,,,,
961531,3.619363,8.475686,-2.9297042,-0.083841994,-0.137196,-1.02897,67.5,-174.90001,-15.3,,,,,,
961555,3.2024574,8.820814,-2.8938158,0.868908,0.19055,-0.92226195,55.500004,-172.5,-21.300001,,,,,,
961575,2.7729907,9.098951,-3.0433514,0.49543,0.92226195,-1.059458,67.5,-160.5,-8.1,,,,,,
961595,2.6246514,8.876442,-3.0044723,0.358234,1.3490939,-1.539644,77.100006,-165.3,-12.900001,,,,,,
961637,1.7794753,8.92848,-3.2993567,0.19055,2.2713559,-0.967994,53.100002,-167.70001,-19.5,,,,,,
961657,1.5127035,8.568996,-3.242533,0.045732,1.8902559,-1.013726,53.100002,-162.90001,-12.900001,,,,,,
961677,1.6915483,8.670082,-2.878264,0.144818,1.310984,-0.480186,60.300003,-167.70001,-14.700001,,,,,,
961700,1.631734,8.240018,-2.8310106,-0.80030996,1.036592,-0.708846,65.100006,-162.90001,-19.5,,,,,,
961720,1.5121055,8.294449,-2.7574391,-0.015244,0.55640596,-0.17530599,74.700005,-172.5,-18.300001,,,,,,
961740,1.6855669,8.844142,-2.7975147,0.106708,0.434454,0.0,60.300003,-165.3,-13.500001,,,,,,
961760,1.4110193,8.877638,-2.9602096,-0.068598,0.67073596,-0.739334,79.5,-165.3,-15.900001,,,,,,
961780,1.535433,9.3729,-2.9841354,0.41158798,0.55640596,-0.93750596,60.300003,-160.5,-9.3,,,,,,
961800,1.2447355,9.693505,-3.0218184,-0.007622,0.777444,-1.3490939,72.3,-160.5,-19.5,,,,,,
961824,0.96001947,9.169532,-3.0230145,-0.426832,0.99086,-1.8597679,74.700005,-165.3,-11.700001,,,,,,
961844,0.78595984,8.856105,-2.9566207,-0.41921,0.891774,-1.821658,62.7,-165.3,-15.3,,,,,,
961866,0.8571389,8.57079,-3.12111,-0.480186,0.975616,-1.06708,67.5,-153.3,-17.1,,,,,,
961886,2.0546212,10.088878,-3.1593912,0.11432999,0.007622,0.92226195,67.5,-167.70001,-12.900001,,,,,,
961908,1.1442475,7.8261027,-2.3835998,-0.830798,-0.99086,-0.91463995,74.700005,-150.90001,-8.700001,,,,,,
961928,1.7214555,7.38886,-2.4535825,0.594516,-1.6234859,0.46494198,81.9,-158.1,-13.500001,,,,,,
961952,2.2328677,9.014014,-1.9619089,0.785066,-1.775926,0.960372,79.5,-162.90001,-14.1,,,,,,
961972,1.8638135,9.664196,-2.9261155,-0.213416,-0.41158798,-0.792688,79.5,-158.1,-21.300001,,,,,,
961993,1.7417923,9.3130865,-2.9380782,0.068598,-0.579272,-1.166166,67.5,-174.90001,-13.500001,,,,,,
962013,1.6281452,9.29574,-2.9261155,0.30488,-0.47256398,-1.189032,91.5,-162.90001,-11.1,,,,,,
962033,1.4205896,9.158167,-3.1013713,0.053354,0.137196,-1.493912,84.3,-155.70001,-9.900001,,,,,,
962057,1.1143403,8.521145,-3.2054482,-0.068598,0.777444,-1.265252,84.3,-162.90001,-15.900001,,,,,,
962077,1.1580048,8.516359,-3.3316565,-0.07622,0.80030996,-0.67073596,81.9,-165.3,-15.900001,,,,,,
962097,1.439132,9.203626,-3.258683,0.55640596,0.55640596,0.091464,77.100006,-167.70001,-15.900001,,,,,,
962117,1.7280351,9.341199,-3.075053,0.503052,0.640248,-0.144818,81.9,-160.5,-14.700001,,,,,,
962137,1.1340791,8.488247,-2.966191,-0.213416,1.082324,-0.64787,65.100006,-170.1,-11.700001,,,,,,
962157,1.568929,9.011622,-2.8387866,0.45731997,1.150922,-0.579272,72.3,-162.90001,-17.1,,,,,,
962197,1.2070525,8.823207,-3.0816326,-0.17530599,2.05794,-1.501534,81.9,-167.70001,-11.1,,,,,,
962218,1.1861175,8.607277,-2.8172534,0.40396598,1.760682,-1.204276,79.5,-165.3,-12.3,,,,,,
962238,1.276437,8.683242,-2.7125783,0.182928,1.94361,-0.92226195,79.5,-153.3,-11.1,,,,,,
962258,1.1861175,8.696999,-2.77,0.129574,1.98172,-0.81555396,81.9,-155.70001,-15.3,,,,,,
962278,1.0551242,8.714345,-2.8938158,0.182928,1.699706,-0.67835796,77.100006,-158.1,-20.1,,,,,,
962318,1.025217,9.016407,-2.4793026,0.106708,0.731712,0.091464,74.700005,-160.5,-14.700001,,,,,,
962358,1.0700778,11.014205,-2.007966,-1.8292799,0.57164997,-0.853664,74.700005,-158.1,-20.1,,,,,x,
962422,-0.7620341,8.3201685,-2.2681582,-2.050318,-5.312534,1.318606,81.9,-165.3,-12.3,,,,,x,
962442,-0.17226517,8.906349,-1.5820881,-1.41007,-9.138778,2.576236,89.100006,-155.70001,-14.700001,,,,,x,
962462,0.22849062,8.23284,-0.8631203,-1.8597679,-11.92843,2.2942219,77.100006,-174.90001,-14.700001,,,,,x,
962485,0.6705183,6.7075753,-0.12261931,-1.6082419,-14.077834,2.042696,79.5,-172.5,-15.3,,,,,x,
962505,0.5778061,5.4030256,-0.039477438,-1.67684,-14.954364,1.745438,67.5,-160.5,-23.1,,,,,x,
962525,0.42767224,4.2157116,0.33854893,-1.463424,-15.884248,2.339954,81.9,-160.5,-19.5,,,,,x,
962548,0.91994387,4.3987436,0.57601166,-2.012208,-15.762296,3.117398,77.100006,-160.5,-22.5,,,,,x,
962608,1.1274995,2.5779963,-0.694444,-1.310984,-12.7363615,-0.23628199,81.9,-182.1,-20.1,,,,,x,
962632,1.748372,2.5421076,-1.9714792,0.358234,-11.455866,-0.625004,86.700005,-150.90001,-26.1,,,,,x,
962652,2.3913755,3.719253,-2.941667,2.47715,-10.945191,0.23628199,86.700005,-162.90001,-24.300001,,,,,x,
962672,2.6952322,3.903481,-3.4237704,1.265252,-9.6418295,-0.602138,89.100006,-167.70001,-20.7,,,,,x,
962692,3.2592812,3.7647119,-3.7120752,0.060976,-7.6219997,-0.861286,79.5,-172.5,-23.1,,,,,x,
962712,3.8047874,5.007055,-4.304835,0.045732,-4.580822,-1.051836,74.700005,-160.5,-27.900002,,,,,x,
962732,3.819741,6.4037185,-5.45626,1.455802,-0.083841994,-3.35368,77.100006,-167.70001,-29.7,,,,,x,
962752,3.3394322,6.170443,-6.4192705,1.516778,1.471046,-6.0976,84.3,-153.3,-29.7,,,,,x,
962772,2.1192205,5.2600694,-6.9121404,2.55337,3.521364,-7.263766,89.100006,-155.70001,-27.900002,,,,,x,
962792,2.313617,7.861393,-7.9235997,2.469528,5.0228977,-4.085392,91.5,-155.70001,-22.5,,,,,x,
962812,2.7711964,10.5225315,-7.785429,0.426832,5.274424,-4.23021,98.700005,-155.70001,-20.1,,,,,x,
962832,2.0277047,10.476474,-7.425347,0.92226195,6.806446,-8.30798,120.3,-162.90001,-24.300001,,,,,x,
962856,-0.2464349,8.8166275,-7.7579145,1.021348,10.17537,-9.748538,110.700005,-153.3,-21.900002,,,,,x,
962877,-1.0066746,10.273704,-8.256167,0.47256398,12.149467,-6.5396757,132.3,-160.5,-15.900001,,,,,x,
962897,-0.6053207,12.727884,-8.090482,0.586894,13.163194,-4.603688,134.70001,-158.1,-18.300001,,,,,x,
962917,-1.8034011,13.427114,-8.08151,0.106708,15.503148,-6.5549197,132.3,-150.90001,-11.1,,,,,x,
962939,-3.506314,11.560309,-9.320264,1.775926,19.276037,-7.6219997,129.90001,-138.90001,-14.700001,,,,,x,
962959,-1.6173786,14.341674,-10.9191,2.454284,16.410166,-3.407034,141.90001,-141.3,-21.300001,,,,,x,
962980,-2.0486398,14.918882,-10.562009,1.493912,14.458934,-3.7119138,141.90001,-138.90001,-10.5,,,,,x,
963000,-2.5169857,15.735347,-9.665991,0.87653,14.207408,-3.96344,149.1,-131.70001,-6.3,,,,,x,
963020,-2.887236,15.920174,-9.738964,0.625004,15.343085,-4.504602,141.90001,-136.5,-8.1,,,,,x,
963044,-3.2096353,16.255133,-9.731188,0.99086,15.259244,-5.243936,151.5,-129.3,-5.1000004,,,,,x,
963064,-3.7270288,16.727068,-9.689917,0.82317597,14.40558,-4.260698,132.3,-126.9,-6.9,,,,,x,
963084,-3.982436,17.292313,-8.907545,-0.95274997,13.368988,-3.7042918,144.3,-134.1,-4.5,,,,,x,
963145,-5.093786,15.786189,-9.253272,-1.989342,14.618996,-1.585376,122.700005,-129.3,-5.1000004,,,,,x,
963165,-4.2605724,15.383041,-7.0975647,-3.6661818,7.3323636,-1.478668,129.90001,-124.50001,-3.9,,,,,x,
963185,-4.965783,14.222046,-4.9083614,-3.841488,5.975648,-1.440558,120.3,-129.3,-8.1,,,,,x,
963205,-4.7253294,13.7842045,-4.9083614,-5.29729,8.323224,0.487808,122.700005,-124.50001,-0.3,,,,,x,
963225,-4.490259,12.341484,-4.6158695,-6.303394,5.75461,1.554888,117.9,-134.1,-5.7000003,,,,,x,
963246,-4.434632,11.825885,-4.20016,-6.189064,4.214966,1.806414,122.700005,-136.5,-8.1,,,,,x,
963266,-3.6349149,11.200826,-3.3358433,-6.0594897,1.722572,3.117398,101.100006,-124.50001,1.5,,,,,x,
963286,-3.5188751,10.300022,-2.3566833,-6.280528,-0.625004,3.4299,113.100006,-143.70001,-8.1,,,,,x,
963306,-3.1707559,8.827394,-1.8470654,-5.990892,-1.669218,3.7957559,103.50001,-150.90001,-11.1,,,,,x,
963329,-2.7000175,7.970255,-1.4295617,-5.556438,-3.2012398,5.076252,113.100006,-148.5,-6.3,,,,,x,
963349,-2.1850162,7.036554,-1.2130339,-5.60217,-4.634176,5.4116197,105.9,-153.3,-14.700001,,,,,x,
963369,-1.9643015,6.1201987,-0.76801556,-5.213448,-5.5945477,7.987856,105.9,-148.5,-17.1,,,,,x,
963389,-1.6885576,6.083114,-1.0652926,-6.219552,-5.617414,9.984819,108.3,-158.1,-10.5,,,,,x,
963449,0.8529519,4.466932,-0.22191104,-4.87808,-9.786648,12.294286,60.300003,-155.70001,-8.1,,,,,x,
963469,1.6963334,4.4866705,-0.07177716,-4.161612,-9.489389,10.21348,50.7,-165.3,-21.300001,,,,,x,
963490,1.9744699,3.920229,-0.18901318,-3.2241058,-9.138778,7.50767,62.7,-167.70001,-16.5,,,,,x,
963510,1.7651199,3.2694495,-0.37204492,-2.13416,-9.192132,5.4725957,48.300003,-162.90001,-24.300001,,,,,x,
963530,2.0982854,2.736504,-0.5012438,-0.99086,-9.611341,4.375028,43.5,-179.70001,-16.5,,,,,x,
963550,3.4823885,3.9926043,-0.15790975,0.07622,-10.304944,5.358266,36.300003,-172.5,-17.1,,,,,x,
963570,3.9800434,4.588953,0.036486723,-0.396344,-9.199754,4.070148,33.9,-179.70001,-24.900002,,,,,x,
963591,4.2300673,4.49983,-0.5233751,-0.327746,-7.522914,2.644834,21.900002,-167.70001,-22.5,,,,,x,
963611,4.598523,4.612879,-0.97616935,0.41921,-6.3567476,1.692084,26.7,-174.90001,-21.900002,,,,,x,
963632,5.489158,5.9126434,-1.3398403,1.227142,-5.586926,1.8750119,24.300001,-174.90001,-20.7,,,,,x,
963652,5.8115573,7.1908746,-1.3117275,-0.129574,-4.123502,-1.25763,17.1,-174.90001,-26.1,,,,,x,
963672,5.6117773,6.7853336,-1.5348349,-0.3811,-3.079288,-2.888738,31.500002,-174.90001,-17.1,,,,,x,
963692,5.547776,5.9048676,-2.1281927,0.541162,-1.6387299,-4.26832,43.5,-172.5,-28.500002,,,,,x,
963756,3.493155,8.150894,-3.0864177,1.280496,-0.289636,-3.39179,38.7,-172.5,-18.300001,,,,,,
963796,2.8812547,9.211402,-3.656448,1.48629,-0.22865999,-1.798792,43.5,-172.5,-20.7,,,,,,
963816,2.6467826,8.939845,-3.238346,1.044214,-0.655492,-2.035074,48.300003,-167.70001,-14.1,,,,,,
963836,2.8429735,8.78672,-3.0595014,0.69360197,0.3811,-2.035074,48.300003,-165.3,-20.7,,,,,,
963856,2.7382984,8.586941,-3.175541,0.640248,1.089946,-1.79117,50.7,-167.70001,-18.900002,,,,,,
963880,2.5462947,8.543276,-3.200065,0.853664,1.29574,-1.25763,55.500004,-177.3,-17.7,,,,,,
963900,2.4960506,8.729299,-3.0720623,0.663114,1.493912,-0.983238,48.300003,-172.5,-12.900001,,,,,,
963920,2.4547787,9.300525,-3.0020795,0.396344,1.577754,-1.021348,43.5,-172.5,-15.3,,,,,,
963940,2.1258001,8.598904,-3.0008833,-0.541162,1.669218,-1.6158639,50.7,-172.5,-20.7,,,,,,
963964,2.0552192,8.564809,-2.7933276,-0.663114,1.326228,-0.983238,60.300003,-162.90001,-17.7,,,,,,
963984,2.0336862,8.822011,-2.7077932,-1.051836,1.051836,-0.68597996,57.9,-174.90001,-20.1,,,,,,
964004,2.217316,9.316675,-2.5415094,-0.487808,0.72409,-0.739334,53.100002,-167.70001,-17.7,,,,,,
964044,1.8691968,8.630605,-2.5026302,-0.3811,1.059458,-1.3795819,55.500004,-167.70001,-14.700001,,,,,,
964064,1.8339063,8.398525,-2.3919737,-0.007622,0.95274997,-0.907018,57.9,-170.1,-28.500002,,,,,,
964087,1.9654979,8.971546,-2.7101858,0.22865999,1.455802,-0.541162,62.7,-160.5,-17.7,,,,,,
964107,2.008564,9.207813,-2.8968065,0.503052,1.417692,-0.907018,57.9,-167.70001,-17.1,,,,,,
964187,1.8105788,9.439893,-3.0349774,-0.53354,0.91463995,-0.388722,60.300003,-170.1,-14.700001,,,,,,
964235,1.7872512,8.938648,-2.6677177,-0.33536798,0.746956,-0.55640596,57.9,-170.1,-15.900001,,,,,,
964255,1.6975298,9.069642,-2.7831593,-0.251526,0.754578,-0.594516,79.5,-160.5,-15.900001,,,,,,
964296,1.8045974,8.847133,-2.6090996,-0.40396598,0.312502,-0.45731997,74.700005,-162.90001,-15.3,,,,,,
964336,1.9481517,9.0433235,-2.539715,-0.41921,0.746956,-0.19055,72.3,-160.5,-14.1,,,,,,
964376,1.9726756,8.529519,-2.3919737,-0.068598,0.80793196,-0.49543,62.7,-177.3,-20.7,,,,,,
964470,1.7603347,8.542678,-2.477508,0.41158798,1.509156,-0.67073596,67.5,-158.1,-12.900001,,,,,,
964492,1.7896438,8.980518,-2.5672297,0.617382,1.455802,-0.426832,55.500004,-170.1,-17.1,,,,,,
964532,0.85355,9.284375,-3.0738568,0.625004,1.1432999,-0.57164997,62.7,-160.5,-10.5,,,,,x,
964552,1.1059663,9.765881,-2.8878343,0.82317597,0.053354,0.030488,67.5,-165.3,-14.1,,,,,x,
964592,1.6149861,10.780929,-0.9755712,-1.1432999,-2.7134318,0.907018,77.100006,-162.90001,-18.900002,,,,,x,
964614,1.0066746,8.623427,-0.48090696,-1.730194,-2.32471,-1.1432999,57.9,-174.90001,-19.5,,,,,x,
964634,0.76981,6.8212223,0.1016843,0.129574,-4.390272,0.11432999,67.5,-172.5,-15.900001,,,,,x,
964654,0.870298,7.4737964,0.88943857,1.417692,-6.143332,3.6738038,53.100002,-170.1,-11.700001,,,,,x,
964676,0.64360183,7.3655324,-0.118432306,0.91463995,-6.70736,2.7439198,62.7,-167.70001,-16.5,,,,,x,
964696,0.6053207,6.3540726,-0.093908444,1.6539739,-9.893355,2.370442,60.300003,-158.1,-17.7,,,,,x,
964716,0.861924,5.968271,-0.029907148,1.265252,-11.966539,2.317088,50.7,-174.90001,-17.1,,,,,x,
964736,1.1980804,5.1422353,0.0,0.67835796,-13.239413,1.94361,53.100002,-162.90001,-15.900001,,,,,x,
964756,1.3147182,4.1828136,0.20516303,0.739334,-14.184542,1.775926,60.300003,-167.70001,-17.1,,,,,x,
964776,1.8985058,3.8227317,0.27095875,-0.632626,-13.772954,1.775926,57.9,-165.3,-19.5,,,,,x,
964800,1.8303175,2.8800583,0.02033686,-1.532022,-12.637276,0.068598,72.3,-172.5,-17.7,,,,,x,
964821,2.2908876,2.2442324,-0.84039086,-0.60976,-9.771403,-0.785066,69.9,-158.1,-16.5,,,,,x,
964841,2.0510323,2.062397,-1.9290111,-0.442076,-7.1265697,-2.2789779,65.100006,-167.70001,-15.3,,,,,x,
964865,2.7867482,3.0571086,-3.1982706,1.79117,-6.0899777,-1.554888,81.9,-155.70001,-17.7,,,,,x,
964885,2.589361,3.1605875,-3.47222,1.684462,-4.53509,-3.064044,69.9,-172.5,-21.300001,,,,,x,
964905,2.9596114,3.2909827,-4.373023,1.920744,-1.692084,-3.8109999,74.700005,-158.1,-17.1,,,,,x,
964925,3.0116498,3.9585102,-5.496934,2.545748,0.312502,-3.96344,79.5,-155.70001,-19.5,,,,,x,
964948,2.6055107,4.3867807,-6.522749,2.461906,1.8902559,-4.428382,74.700005,-158.1,-14.1,,,,,x,
964968,4.17444,6.241622,-8.03306,2.850628,3.071666,-2.423796,77.100006,-160.5,-22.5,,,,,x,
964988,4.3712287,7.9212074,-8.315384,0.95274997,0.586894,-4.0167937,67.5,-158.1,-14.700001,,,,,x,
965008,2.8017018,6.810456,-7.622734,1.25763,0.602138,-7.77444,84.3,-155.70001,-17.1,,,,,x,
965028,2.397357,6.705781,-8.046818,1.1280559,3.155508,-8.247004,91.5,-158.1,-14.1,,,,,x,
965050,2.4242735,10.476474,-8.780141,0.861286,6.227174,-4.733262,98.700005,-146.1,-14.1,,,,,x,
965070,1.3189052,10.385556,-9.095362,0.34298998,8.277492,-8.216516,105.9,-143.70001,-16.5,,,,,x,
965091,0.6214706,9.818517,-9.048109,0.69360197,8.391822,-8.902495,110.700005,-143.70001,-17.1,,,,,x,
965111,-0.14774132,11.886895,-8.6652975,-0.80793196,10.182992,-6.4024796,117.9,-136.5,-18.300001,,,,,x,
965131,-0.9229346,13.049088,-9.604382,-0.22865999,15.381196,-6.646384,110.700005,-138.90001,-11.1,,,,,x,
965153,-0.7710063,12.675846,-10.917306,1.021348,14.641862,-7.492426,129.90001,-138.90001,-12.900001,,,,,x,
965173,-2.5666316,12.61962,-10.234824,-0.731712,10.541225,-7.027484,127.50001,-141.3,-12.900001,,,,,x,
965193,-1.799214,15.684505,-9.42135,-1.044214,11.303426,-3.932952,132.3,-143.70001,-5.1000004,,,,,x,
965253,-1.991218,17.22233,-11.283967,-0.739334,12.111358,-3.567096,137.1,-131.70001,-5.1000004,,,,,x,
965275,-3.1677651,18.83313,-7.55634,-3.948196,8.567128,-5.655524,139.5,-119.700005,0.3,,,,,x,
965296,-5.6554418,16.926847,-8.895582,0.274392,19.59616,-8.5899935,120.3,-131.70001,-7.5000005,,,,,x,
965316,-5.3121076,15.305881,-11.832464,1.021348,17.256208,-5.541194,144.3,-122.100006,-6.3,,,,,x,
965336,-4.639197,17.130816,-9.197644,-5.670768,3.589962,-1.974098,146.70001,-129.3,-3.9,,,,,x,
965356,-6.275716,16.96453,-5.2385364,-4.64942,5.289668,-3.170752,141.90001,-129.3,-5.1000004,,,,,x,
965376,-5.7098727,15.992549,-8.09108,-3.2622159,10.045795,-2.576236,139.5,-126.9,-1.5,,,,,x,
965399,-4.523755,14.068921,-5.3330426,-4.695152,1.71495,-0.487808,129.90001,-124.50001,-5.7000003,,,,,x,
965419,-4.1481214,13.786597,-3.949538,-4.100636,2.964958,1.29574,141.90001,-126.9,0.3,,,,,x,
965439,-4.4567633,13.08677,-4.0099506,-5.343022,4.161612,1.6311079,137.1,-126.9,-7.5000005,,,,,x,
965459,-4.732507,11.127254,-3.4291537,-4.969544,2.157026,1.25763,134.70001,-134.1,-0.3,,,,,x,
965479,-4.129579,10.746835,-2.0348823,-4.4664917,-0.33536798,2.6677,125.100006,-138.90001,-2.1000001,,,,,x,
965540,-3.7790673,7.6125655,-1.702913,-5.5030837,-1.56251,2.423796,120.3,-138.90001,-9.900001,,,,,x,
965562,-3.2993567,6.286483,-1.715474,-3.96344,-4.314052,3.39179,122.700005,-148.5,-5.1000004,,,,,x,
965582,-2.3620665,6.239229,-1.6227618,-4.03966,-6.814068,5.777476,115.50001,-148.5,-11.700001,,,,,x,
965602,-1.0353855,6.6088815,-1.3087368,-4.847592,-8.5899935,7.271388,108.3,-150.90001,-11.1,,,,,x,
965626,-0.4258778,5.840866,-1.0270115,-6.547298,-9.001582,6.44059,103.50001,-153.3,-14.1,,,,,x,
965646,-0.25122005,4.137355,-0.8834572,-6.768336,-9.268352,4.862836,115.50001,-167.70001,-18.300001,,,,,x,
965666,0.23507018,3.4106112,-0.42228892,-5.8613176,-10.160126,5.769854,98.700005,-160.5,-23.1,,,,,x,
965729,2.171857,2.753252,0.556273,-0.617382,-9.45128,6.0594897,96.3,-162.90001,-27.300001,,,,,x,
965792,3.112736,3.045744,-0.22490175,2.7591639,-6.265284,4.024416,69.9,-167.70001,-18.900002,,,,,x,
965812,4.154103,4.9275017,-0.08254373,3.117398,-5.541194,4.748506,77.100006,-158.1,-20.1,,,,,x,
965852,5.0058584,6.748249,-1.0545261,2.461906,-1.554888,2.355198,50.7,-160.5,-19.5,,,,,x,
965872,4.7713866,8.099454,-1.7639236,2.530504,-0.17530599,1.692084,57.9,-177.3,-19.5,,,,,x,
965912,3.55596,7.6951094,-3.1306803,1.5929979,1.532022,-0.548784,57.9,-170.1,-16.5,,,,,x,
965974,3.3364415,9.123475,-3.6319242,0.998482,0.274392,-0.33536798,62.7,-172.5,-22.5,,,,,x,
965994,3.2287757,8.597707,-3.1952798,0.95274997,-0.091464,-0.46494198,72.3,-170.1,-21.300001,,,,,x,
966018,2.9889205,8.638381,-2.970378,1.326228,0.891774,-0.975616,53.100002,-160.5,-20.1,,,,,,
966038,2.5367243,8.759804,-3.1282878,1.3719599,1.532022,-1.3643379,65.100006,-160.5,-17.1,,,,,,
966058,2.037873,8.356057,-3.192289,1.158544,1.577754,-1.699706,67.5,-172.5,-19.5,,,,,,
966078,1.878169,8.262747,-3.0511272,1.204276,1.1432999,-1.013726,62.7,-162.90001,-18.900002,,,,,,
966098,1.7627274,8.829786,-3.128886,0.80793196,1.036592,-0.17530599,84.3,-162.90001,-20.7,,,,,,
966118,1.8548414,9.608569,-3.179728,0.449698,0.640248,0.213416,79.5,-167.70001,-14.1,,,,,,
966138,1.7728958,9.146802,-2.912358,-0.15244,0.426832,-0.56402797,65.100006,-170.1,-15.900001,,,,,,
966158,1.62336,8.63539,-2.7933276,-0.312502,0.35061198,-0.68597996,74.700005,-160.5,-17.7,,,,,,
966198,1.527059,8.999061,-2.7209523,0.106708,-0.121952,-0.221038,60.300003,-170.1,-12.900001,,,,,,
966220,1.790242,9.268824,-2.6192682,0.007622,-0.251526,-0.182928,74.700005,-170.1,-17.1,,,,,,
966303,1.8877392,8.927882,-2.3602722,-0.20579399,-0.251526,0.15244,67.5,-165.3,-17.7,,,,,,
966332,1.9726756,9.0002575,-2.2777283,-0.060976,-0.045732,0.121952,69.9,-162.90001,-21.300001,,,,,,
966352,1.9966012,9.110913,-2.3195984,0.007622,0.426832,-0.34298998,74.700005,-160.5,-21.300001,,,,,,
966394,1.4259728,8.9242935,-2.8441699,0.28201398,0.60976,-0.33536798,69.9,-160.5,-9.900001,,,,,,
966414,1.5127035,9.045716,-2.8902268,0.198172,0.510674,-0.015244,72.3,-162.90001,-15.3,,,,,,
966434,1.5779011,9.143811,-3.0092573,0.03811,0.396344,0.022866,72.3,-165.3,-15.3,,,,,,
966454,1.7591385,9.2269535,-2.8962083,0.045732,0.106708,-0.030488,72.3,-167.70001,-21.900002,,,,,,
966474,1.7417923,8.861488,-2.710784,-0.365856,0.35061198,-0.28201398,57.9,-160.5,-12.900001,,,,,,
966494,1.7794753,8.969752,-2.8340013,-0.3811,0.777444,-0.34298998,72.3,-172.5,-16.5,,,,,,
966534,1.3087368,8.761,-3.1318767,-0.198172,0.861286,-0.518296,72.3,-165.3,-14.700001,,,,,,
966569,1.5055258,8.9141245,-2.9470503,-0.068598,0.297258,-0.030488,77.100006,-172.5,-21.900002,,,,,,
966589,1.5892658,8.960181,-2.9632003,-0.33536798,0.41158798,-0.137196,50.7,-167.70001,-21.900002,,,,,,
966629,1.5366293,8.793898,-2.9955,-0.846042,0.259148,-0.274392,72.3,-155.70001,-9.3,,,,,,
966692,1.7226517,9.095362,-2.6671195,-0.35061198,0.792688,-0.297258,74.700005,-160.5,-14.700001,,,,,,
966715,1.8440747,8.975135,-2.4840877,-0.259148,0.868908,-0.548784,79.5,-160.5,-17.1,,,,,,
966735,1.8004104,9.085194,-2.3321595,-0.068598,1.006104,-0.49543,79.5,-170.1,-18.300001,,,,,x,
966758,1.514498,9.0540905,-2.1467352,-0.045732,0.907018,-0.60976,69.9,-162.90001,-18.900002,,,,,x,
966778,1.4379357,9.276599,-1.8028029,0.053354,0.548784,-0.861286,60.300003,-165.3,-15.900001,,,,,x,
966798,1.3015591,8.878236,-1.589864,-0.23628199,0.792688,-1.21952,67.5,-162.90001,-17.1,,,,,x,
966818,1.1298921,9.041529,-1.5324423,-0.20579399,0.70122397,-0.541162,74.700005,-160.5,-20.1,,,,,x,
966838,0.86910176,9.4859495,-1.6921464,-0.297258,0.365856,0.022866,79.5,-158.1,-9.900001,,,,,x,
966858,0.59036714,9.648644,-1.83271,-0.434454,-0.480186,0.243904,65.100006,-170.1,-16.5,,,,,x,
966879,0.2631829,8.998463,-1.823738,-0.861286,-1.669218,0.41158798,81.9,-153.3,-15.900001,,,,,x,
966920,0.4970568,7.667595,-1.4786094,-1.18141,-6.714982,2.461906,69.9,-165.3,-23.7,,,,,x,
966940,0.5490953,6.919916,-1.0658908,-1.3490939,-8.6814575,2.888738,62.7,-170.1,-15.900001,,,,,x,
966960,0.80689484,6.4695144,-0.52277696,-1.3948259,-10.6936655,3.12502,72.3,-167.70001,-18.900002,,,,,x,
966981,0.8780739,5.9054656,0.06340315,-1.5244,-11.867454,3.3079479,57.9,-170.1,-18.900002,,,,,x,
967001,1.234567,6.037057,0.14714317,-1.9054999,-12.50008,3.376546,57.9,-179.70001,-24.300001,,,,,x,
967021,1.1119478,4.8640985,0.37683007,-2.035074,-13.437586,1.814036,69.9,-174.90001,-15.900001,,,,,x,
967041,1.0323948,3.609793,0.46415895,-1.3948259,-13.772954,0.41921,57.9,-160.5,-26.7,,,,,x,
967062,0.9301123,2.9632003,0.21353704,-0.967994,-13.208925,0.11432999,62.7,-167.70001,-23.1,,,,,x,
967082,1.4146081,3.2275794,-0.078954875,-0.80030996,-12.965022,0.03811,74.700005,-170.1,-18.900002,,,,,x,
967102,1.711287,3.16298,-0.2853142,-1.326228,-12.164712,-0.983238,55.500004,-167.70001,-20.7,,,,,x,
967122,2.217316,3.1869059,-1.0640963,-0.983238,-10.274456,-2.118916,69.9,-165.3,-21.900002,,,,,x,
967146,2.259186,3.1575968,-2.2567935,0.320124,-8.551884,-2.911604,81.9,-172.5,-24.300001,,,,,x,
967166,2.3351502,3.593643,-3.1408486,2.47715,-8.140296,-2.7667859,65.100006,-162.90001,-23.7,,,,,x,
967189,2.9003952,5.2403307,-3.7742822,2.431418,-5.75461,-2.179892,77.100006,-174.90001,-26.7,,,,,x,
967210,3.2521033,6.3606524,-4.778564,2.2408679,-3.12502,-3.833866,79.5,-160.5,-25.500002,,,,,x,
967230,2.4027402,5.4084086,-5.7337985,3.3079479,-1.3490939,-6.25004,79.5,-160.5,-23.1,,,,,x,
967250,2.4296567,6.713557,-6.456355,3.6890478,-0.015244,-4.367406,81.9,-158.1,-25.500002,,,,,x,
967270,2.392572,8.334524,-7.092779,2.7744079,2.2484899,-4.38265,84.3,-162.90001,-18.900002,,,,,x,
967290,2.08393,8.772963,-7.554546,2.7362978,3.7042918,-6.166198,91.5,-155.70001,-24.300001,,,,,x,
967313,2.2872987,9.915416,-7.9720497,2.423796,5.152472,-6.219552,89.100006,-155.70001,-24.900002,,,,,x,
967333,1.6209675,9.463819,-8.326748,2.2180018,7.370474,-7.9497457,110.700005,-158.1,-21.300001,,,,,x,
967353,0.9845433,9.168336,-8.966762,2.949714,7.9345016,-7.324742,113.100006,-153.3,-12.900001,,,,,x,
967376,0.7787821,9.7916,-8.321365,1.051836,8.048832,-6.189064,125.100006,-141.3,-14.1,,,,,x,
967416,-0.19918162,10.987886,-9.331629,2.012208,15.038206,-7.187546,127.50001,-153.3,-12.900001,,,,,x,
967438,-0.05801987,13.704054,-10.218675,-0.068598,12.99551,-4.8857017,137.1,-143.70001,-9.900001,,,,,x,
967458,-2.2597842,12.766166,-9.165345,-1.074702,12.431481,-8.559505,134.70001,-136.5,-13.500001,,,,,x,
967478,-2.414105,13.838635,-10.228245,1.318606,14.702838,-6.112844,132.3,-134.1,1.5,,,,,x,
967520,-3.142045,13.939124,-9.559521,1.3948259,12.545812,-6.17382,144.3,-126.9,-6.9,,,,,x,
967540,-3.598428,17.066216,-9.7916,1.821658,13.742466,-3.4299,129.90001,-124.50001,-2.1000001,,,,,x,
967560,-2.8328052,18.81399,-9.018202,-0.144818,14.108322,-6.4939437,134.70001,-136.5,-2.7,,,,,x,
967625,-4.6750855,17.335379,-8.815431,-1.173788,16.84462,-3.2469718,132.3,-124.50001,-1.5,,,,,x,
967671,-4.8670893,15.039108,-9.781432,-1.493912,10.838484,-0.091464,122.700005,-119.700005,2.1000001,,,,,x,
967727,-3.6127834,12.418644,-7.7662883,-4.474114,5.75461,1.1051899,120.3,-124.50001,5.1000004,,,,,x,
967772,-2.6635306,10.357444,-4.7175536,-5.731744,-1.196654,2.2256238,110.700005,-126.9,-0.90000004,,,,,x,
967792,-2.0468452,9.706066,-4.3784065,-4.984788,-0.967994,4.070148,115.50001,-136.5,-3.3000002,,,,,x,
967835,-1.2166228,8.963172,-1.9768625,-6.265284,-3.910086,2.7515419,113.100006,-134.1,3.3000002,,,,,x,
967856,-1.3739344,7.8296914,-1.6568561,-6.6006517,-3.643316,1.6387299,110.700005,-148.5,0.90000004,,,,,x,
967876,-1.4690391,6.601704,-1.3613734,-6.379614,-4.778994,1.234764,122.700005,-143.70001,-10.5,,,,,x,
967896,-1.7513626,5.4179792,-0.7016217,-5.777476,-6.4939437,1.6082419,122.700005,-155.70001,-11.700001,,,,,x,
967920,-1.9469553,5.2732286,-0.71896785,-4.733262,-6.661628,3.498498,115.50001,-155.70001,-14.700001,,,,,x,
967940,-1.2662686,5.333641,-0.8511574,-3.628072,-8.429932,3.437522,105.9,-155.70001,-13.500001,,,,,x,
967960,-0.86910176,4.183412,-0.35709137,-1.6158639,-11.143364,2.2713559,105.9,-153.3,-11.700001,,,,,x,
967982,-0.76323044,3.0445478,0.3714468,-0.099086,-11.859832,2.179892,103.50001,-162.90001,-14.700001,,,,,x,
968003,0.47073853,3.7497582,0.631639,-0.28201398,-10.846106,4.0625257,101.100006,-148.5,-21.300001,,,,,x,
968024,0.85235375,2.8471606,0.20635933,-1.516778,-8.19365,3.2317278,101.100006,-153.3,-12.900001,,,,,x,
968044,0.82603544,2.0785468,-0.26258478,-0.769822,-7.3628516,4.054904,103.50001,-153.3,-11.700001,,,,,x,
968066,1.8135695,2.6748953,-0.53115094,0.045732,-7.263766,6.006136,103.50001,-153.3,-17.7,,,,,x,
968086,2.6228569,4.4537725,-0.52516955,1.242386,-6.981752,7.3171196,103.50001,-160.5,-17.1,,,,,x,
968106,3.0816326,5.041149,-0.7309307,0.94512796,-6.02138,5.94516,84.3,-165.3,-14.700001,,,,,x,
968126,3.397452,5.096178,-0.68427557,1.196654,-5.4116197,5.129606,81.9,-162.90001,-19.5,,,,,x,
968208,3.2891881,7.7632976,-3.7371974,1.211898,-1.455802,2.560992,86.700005,-160.5,-15.3,,,,,,
968248,3.493155,8.813039,-3.2891881,-0.82317597,-1.75306,1.554888,72.3,-165.3,-17.7,,,,,,
968271,3.3747227,9.184485,-3.4728181,-0.525918,-1.242386,0.792688,57.9,-170.1,-19.5,,,,,,
968353,2.4966488,8.971546,-3.534427,0.47256398,1.059458,-0.30488,72.3,-160.5,-23.7,,,,,,
968375,2.1359684,8.904554,-3.7431786,0.274392,1.532022,-0.49543,62.7,-162.90001,-18.300001,,,,,,
968395,2.01634,8.824403,-3.7389917,0.33536798,1.6234859,-0.41158798,74.700005,-167.70001,-18.300001,,,,,,
968415,1.8093824,9.187476,-3.6684108,0.251526,1.44818,-0.365856,69.9,-170.1,-17.7,,,,,,
968435,1.644295,9.142615,-3.5762968,-0.091464,1.227142,-0.68597996,81.9,-167.70001,-17.7,,,,,,
968455,1.510311,8.766981,-3.4046297,-0.49543,1.097568,-0.746956,72.3,-172.5,-21.900002,,,,,,
968477,1.4170007,8.658119,-3.3101232,-0.769822,1.150922,-0.594516,62.7,-172.5,-17.7,,,,,,
968497,1.3942713,8.722121,-3.1444376,-0.617382,1.013726,-0.49543,69.9,-160.5,-18.900002,,,,,,
968519,1.2967739,8.609072,-3.1480265,-0.81555396,1.02897,-0.434454,79.5,-158.1,-17.7,,,,,,
968539,1.2118376,8.145511,-3.0146406,-1.044214,0.92226195,-0.182928,77.100006,-160.5,-23.1,,,,,,
968559,1.5162925,8.9894905,-2.940471,-0.35061198,0.861286,0.792688,62.7,-162.90001,-23.1,,,,,,
968581,1.5168905,8.6647,-2.8716843,-0.94512796,1.265252,0.327746,57.9,-165.3,-15.3,,,,,,
968601,1.6436969,8.927284,-2.8034961,-0.70122397,1.3719599,0.625004,60.300003,-160.5,-17.1,,,,,,
968622,1.661043,9.098352,-2.8471606,-0.99086,1.669218,0.594516,57.9,-170.1,-17.7,,,,,,
968642,1.6084064,9.083399,-2.8519456,-0.853664,1.6311079,0.221038,72.3,-150.90001,-15.900001,,,,,,
968664,1.5719197,8.890797,-2.765813,-0.67073596,1.288118,-0.121952,53.100002,-162.90001,-18.300001,,,,,,
968684,1.6371173,8.905152,-2.714971,-0.434454,1.044214,-0.19055,69.9,-167.70001,-17.7,,,,,,
968704,1.6562579,8.939247,-2.5540705,-0.41921,0.739334,-0.312502,72.3,-167.70001,-18.900002,,,,,,
968726,1.7699051,8.985304,-2.443414,-0.487808,0.602138,-0.17530599,67.5,-148.5,-23.1,,,,,,
968786,1.710689,8.719728,-2.5133967,-0.030488,0.625004,-0.525918,62.7,-162.90001,-20.1,,,,,,
968806,1.8416822,8.885414,-2.5797906,-0.144818,0.830798,-0.099086,79.5,-160.5,-17.7,,,,,,
968826,1.836299,8.966163,-2.659942,-0.198172,0.907018,-0.068598,72.3,-158.1,-11.1,,,,,,
968848,1.7059038,8.879433,-2.7634206,-0.045732,0.82317597,-0.16768399,69.9,-167.70001,-17.1,,,,,,
968868,1.8045974,8.920704,-2.8555346,0.23628199,0.586894,-0.30488,55.500004,-165.3,-11.700001,,,,,,
968888,1.9625071,9.081605,-2.7550466,0.213416,0.41158798,-0.083841994,62.7,-167.70001,-17.1,,,,,,
968909,2.0881171,8.836366,-2.740093,-0.015244,0.503052,-0.373478,69.9,-165.3,-13.500001,,,,,,
968930,2.1927922,9.158167,-2.661138,0.198172,0.525918,-0.541162,57.9,-167.70001,-14.1,,,,,,
968951,2.1832218,8.772365,-2.4404233,-0.045732,0.769822,-0.94512796,67.5,-160.5,-12.3,,,,,,
968972,2.1407537,8.86089,-2.460162,0.045732,1.196654,-0.82317597,67.5,-162.90001,-15.3,,,,,,
969054,1.6281452,8.839955,-2.4870784,0.091464,0.93750596,-0.640248,62.7,-160.5,-9.900001,,,,,x,
969090,1.3212978,8.865077,-2.8130665,0.053354,0.754578,-0.34298998,72.3,-167.70001,-15.900001,,,,,x,
969110,1.3841028,9.014014,-2.8381884,0.182928,0.35061198,-0.068598,84.3,-165.3,-21.900002,,,,,x,
969152,1.2626798,9.351367,-3.0098555,0.091464,-0.221038,0.160062,69.9,-165.3,-15.900001,,,,,x,
969172,1.1615937,9.2706175,-3.0146406,0.03811,-0.541162,0.17530599,67.5,-162.90001,-15.3,,,,,x,
969192,1.2656705,9.719225,-3.0475385,0.07622,-0.830798,0.46494198,67.5,-165.3,-14.1,,,,,x,
969212,1.0485446,10.108616,-3.1438394,-0.259148,-1.189032,0.388722,77.100006,-167.70001,-6.9,,,,,x,
969232,0.8296243,9.667187,-3.0451458,-0.792688,-1.760682,0.26677,62.7,-158.1,-17.1,,,,,x,
969256,0.799119,9.418359,-2.589361,-1.204276,-2.7744079,0.94512796,62.7,-160.5,-11.1,,,,,x,
969279,0.7476787,8.5360985,-1.5055258,-2.812518,-5.0381417,1.71495,67.5,-158.1,-18.300001,,,,,x,
969300,0.40255022,7.7967935,-0.840989,-2.7286758,-6.638762,1.920744,67.5,-165.3,-16.5,,,,,x,
969320,0.39178365,7.9469275,-0.21832219,-2.035074,-9.016826,3.018312,67.5,-174.90001,-20.1,,,,,x,
969341,0.2715569,8.012723,0.013757288,-1.9054999,-11.227205,2.62959,57.9,-174.90001,-11.1,,,,,x,
969362,0.37383935,6.6034985,0.12979703,-1.8826339,-13.887283,1.539644,57.9,-165.3,-21.900002,,,,,x,
969383,0.8188577,5.402427,0.7016217,-1.33385,-16.242481,1.5929979,67.5,-170.1,-23.7,,,,,x,
969404,1.4989463,4.7211423,1.1430513,-1.669218,-16.981815,2.332332,60.300003,-167.70001,-25.500002,,,,,x,
969487,2.7550466,2.986528,-0.1016843,-0.137196,-11.791234,-1.5929979,62.7,-167.70001,-33.9,,,,,x,
969512,2.7705982,2.301056,-1.0880221,0.47256398,-9.37506,-3.92533,65.100006,-179.70001,-26.7,,,,,x,
969532,2.9356856,2.5534723,-1.8775707,2.149404,-7.911636,-4.184478,72.3,-179.70001,-23.1,,,,,x,
969572,3.2251868,3.8095727,-3.9106588,2.583858,-2.835384,-4.80186,81.9,-170.1,-22.5,,,,,x,
969592,3.2263832,4.688843,-5.3473983,2.568614,0.785066,-4.794238,84.3,-158.1,-23.1,,,,,x,
969612,3.2694495,5.1524034,-7.33084,4.30643,3.8109999,-4.4512477,96.3,-160.5,-27.900002,,,,,x,
969632,2.3788147,5.6751804,-9.294543,3.6661818,2.522882,-4.76375,103.50001,-162.90001,-16.5,,,,,x,
969652,2.3800108,6.305623,-9.285571,2.347576,1.3719599,-4.260698,96.3,-153.3,-18.900002,,,,,x,
969672,2.5391169,7.9212074,-8.366824,0.060976,0.777444,-4.291186,93.9,-158.1,-14.700001,,,,,x,
969692,1.8159621,8.691615,-8.435012,0.198172,6.17382,-6.5854077,110.700005,-146.1,-23.7,,,,,x,
969712,1.405636,11.363521,-10.543467,-0.015244,9.420792,-5.4725957,113.100006,-155.70001,-17.7,,,,,x,
969733,0.5538804,10.594907,-9.968651,-1.707328,6.730226,-8.353712,120.3,-158.1,-23.1,,,,,x,
969753,-0.8852516,7.894291,-7.80756,-0.20579399,5.137228,-10.701288,127.50001,-153.3,-12.900001,,,,,x,
969773,-1.3063443,10.044615,-8.104837,-0.426832,10.564092,-6.0594897,120.3,-148.5,-17.7,,,,,x,
969795,-1.7047075,12.680033,-9.525427,0.137196,14.123566,-5.228692,129.90001,-148.5,-17.7,,,,,x,
969815,-1.7076982,13.293129,-8.366824,-0.129574,10.853727,-7.103704,129.90001,-138.90001,-23.7,,,,,x,
969835,-3.8478537,14.28844,-8.563015,0.17530599,16.524496,-6.471078,144.3,-143.70001,-23.7,,,,,x,
969856,-4.623047,14.838133,-10.344883,0.830798,18.224201,-6.471078,132.3,-141.3,-15.900001,,,,,x,
969876,-4.120009,14.244775,-9.04751,-0.586894,11.77599,-7.0655937,149.1,-131.70001,-4.5,,,,,x,
969936,-5.0381584,13.982788,-10.408884,0.891774,12.980266,-7.599134,149.1,-107.700005,-8.1,,,,,x,
969960,-5.287584,15.683907,-7.552153,-3.2393498,9.420792,-1.806414,161.1,-112.50001,-15.900001,,,,,x,
969980,-4.1152234,19.501854,-8.382974,-1.6082419,17.065659,-0.81555396,141.90001,-114.9,-5.1000004,,,,,x,
970000,-3.6319242,18.32052,-10.438791,-0.274392,14.375092,-4.199722,151.5,-131.70001,-8.1,,,,,x,
970023,-5.183507,15.4362755,-7.112518,-3.536608,7.5915117,-2.522882,149.1,-136.5,-2.1000001,,,,,x,
970043,-4.18401,17.472355,-7.6741743,-3.2164838,11.58544,-0.11432999,141.90001,-141.3,-6.9,,,,,x,
970066,-4.5315313,16.100813,-6.9845157,-4.504602,7.50767,-2.6829438,132.3,-124.50001,-5.1000004,,,,,x,
970086,-6.069955,12.65192,-5.1607776,-5.388754,4.390272,-2.7439198,134.70001,-126.9,-9.900001,,,,,x,
970106,-5.3575664,12.618424,-4.4908576,-5.4116197,5.4421077,2.09605,129.90001,-131.70001,-8.1,,,,,x,
970126,-4.7205443,13.056863,-4.280909,-6.0290017,4.100636,2.621968,139.5,-131.70001,-0.90000004,,,,,x,
970146,-4.1229997,11.194245,-3.4614534,-5.0228977,1.150922,1.425314,139.5,-150.90001,-0.90000004,,,,,x,
970209,-3.100773,8.02349,-1.1813323,-6.6311398,1.051836,6.844556,113.100006,-136.5,-12.900001,,,,,x,
970249,-1.1454438,6.920514,-0.9941136,-5.403998,-4.4969797,4.222588,115.50001,-158.1,-15.3,,,,,x,
970353,0.9085792,3.0935955,-0.34213778,-5.5335717,-8.1555395,6.501566,113.100006,-150.90001,-17.1,,,,,x,
970393,1.5282553,3.4417148,-0.16568561,-3.35368,-10.015307,5.884184,79.5,-170.1,-24.300001,,,,,x,
970413,2.0773506,3.6492703,0.20277047,-2.080806,-10.89946,4.733262,69.9,-153.3,-30.300001,,,,,x,
970433,2.949443,3.9926043,0.5526841,-1.554888,-10.350676,3.7195358,77.100006,-162.90001,-23.7,,,,,x,
970477,2.242438,3.5751004,-0.105871305,1.097568,-7.16468,1.539644,69.9,-174.90001,-29.1,,,,,x,
970497,3.2521033,5.0854115,0.01016843,1.577754,-6.4024796,2.881116,77.100006,-172.5,-21.900002,,,,,x,
970517,2.271747,6.0101404,-0.41271865,1.5244,-4.283564,2.461906,74.700005,-160.5,-26.1,,,,,x,
970537,2.6491752,6.894794,-1.3003628,1.707328,-3.422278,2.32471,67.5,-165.3,-24.300001,,,,,x,
970557,3.30474,8.512771,-1.7842605,2.7820299,-3.071666,2.827762,72.3,-167.70001,-16.5,,,,,x,
970577,3.1426432,9.686926,-2.2448306,2.7058098,-2.461906,1.425314,57.9,-165.3,-28.500002,,,,,,
970617,3.4734163,8.811244,-2.1030707,2.7591639,-2.17227,-0.022866,57.9,-167.70001,-25.500002,,,,,,
970673,2.5911553,8.6329975,-3.4817903,2.7820299,-0.07622,-2.050318,55.500004,-155.70001,-18.300001,,,,,,
970789,2.112043,8.823207,-2.7203543,0.663114,0.396344,0.487808,74.700005,-167.70001,-20.7,,,,,,
970829,1.619173,8.587539,-3.0104535,-0.87653,0.830798,-0.33536798,60.300003,-162.90001,-19.5,,,,,,
970849,1.761531,8.897377,-2.7227468,-0.16768399,0.297258,0.312502,67.5,-170.1,-23.1,,,,,,
970892,1.761531,9.143213,-2.6390069,-0.434454,0.3811,0.030488,65.100006,-167.70001,-11.1,,,,,,
970913,1.7818679,9.174915,-2.5373225,-0.358234,0.19055,-0.518296,81.9,-165.3,-20.1,,,,,,
970953,1.8159621,8.688026,-2.1246037,-0.259148,0.365856,-0.72409,77.100006,-170.1,-18.300001,,,,,,
970973,1.9014965,8.916517,-2.1281927,-0.182928,0.739334,-0.41158798,69.9,-167.70001,-17.1,,,,,,
970995,1.832112,9.040931,-2.3662536,-0.060976,1.166166,-0.49543,79.5,-182.1,-18.900002,,,,,,
971015,1.673604,8.89618,-2.5169857,0.121952,1.18141,-0.45731997,81.9,-165.3,-20.7,,,,,,
971035,1.5587605,8.645558,-2.505621,0.26677,0.93750596,-0.34298998,69.9,-170.1,-17.1,,,,,,
971055,1.6520709,8.565408,-2.5498836,0.45731997,0.884152,-0.060976,72.3,-165.3,-19.5,,,,,,
971075,1.9098705,9.192261,-2.6138847,0.525918,0.983238,0.03811,55.500004,-167.70001,-20.1,,,,,,
971139,1.6137897,9.042128,-2.89561,0.426832,1.196654,-0.34298998,79.5,-167.70001,-17.1,,,,,,
971159,1.4498986,9.217981,-3.1677651,0.106708,1.440558,-0.594516,67.5,-158.1,-14.1,,,,,,
971179,1.4301598,9.27959,-3.1121378,0.17530599,1.1204339,-0.967994,86.700005,-160.5,-19.5,,,,,,
971199,1.4588706,9.012818,-2.932097,-0.274392,0.81555396,-0.830798,74.700005,-167.70001,-8.700001,,,,,,
971223,1.6221638,9.2807865,-2.794524,0.007622,0.861286,-0.754578,79.5,-155.70001,-13.500001,,,,,,
971243,1.4887779,9.090577,-2.9087694,0.045732,0.960372,-1.234764,67.5,-162.90001,-17.1,,,,,,
971303,1.522872,8.97035,-2.6701102,-0.106708,0.830798,-1.44818,81.9,-158.1,-14.700001,,,,,,
971325,1.393075,8.653933,-2.64439,-0.007622,0.72409,-1.082324,67.5,-167.70001,-14.1,,,,,,
971345,1.3368496,8.795692,-2.643792,-0.327746,0.655492,-0.70122397,74.700005,-165.3,-11.1,,,,,,
971365,1.3924768,8.376394,-2.4709287,0.022866,0.510674,-0.777444,77.100006,-162.90001,-12.900001,,,,,,
971385,1.5174887,8.669484,-2.423077,0.03811,0.594516,-0.160062,72.3,-165.3,-14.1,,,,,x,
971405,1.3781214,8.933266,-2.6533623,0.053354,0.83842,-0.106708,81.9,-160.5,-12.3,,,,,x,
971425,1.4672447,9.506287,-2.8890305,0.365856,0.731712,-0.16768399,74.700005,-165.3,-14.700001,,,,,x,
971449,1.276437,9.039137,-2.8674974,0.274392,0.3811,-0.274392,69.9,-158.1,-12.900001,,,,,x,
971469,1.0066746,9.293347,-2.8800583,0.19055,0.160062,0.068598,86.700005,-155.70001,-11.700001,,,,,x,
971491,0.85953146,9.80476,-2.8704882,-0.35061198,-0.41921,0.251526,74.700005,-170.1,-12.900001,,,,,x,
971511,0.61369467,9.769469,-2.7574391,-1.051836,-0.998482,-0.045732,77.100006,-155.70001,-16.5,,,,,x,
971531,0.43664438,9.507483,-2.5624444,-1.509156,-2.118916,0.144818,91.5,-167.70001,-20.7,,,,,x,
971551,0.13159145,9.017005,-2.292682,-1.661596,-3.62045,0.68597996,84.3,-155.70001,-12.900001,,,,,x,
971571,0.07835673,8.194559,-1.6335285,-1.775926,-7.195168,1.8597679,77.100006,-160.5,-22.5,,,,,x,
971592,0.16030231,7.7375774,-1.1759491,-1.539644,-8.399444,2.2103798,69.9,-165.3,-15.900001,,,,,x,
971612,0.5401231,7.8960853,-0.64419997,-1.1128119,-10.472628,3.58234,81.9,-165.3,-15.900001,,,,,x,
971652,0.90558845,6.8965883,-0.001196286,-1.417692,-12.309529,2.7896519,67.5,-174.90001,-21.900002,,,,,x,
971672,1.16279,6.1776204,0.3295768,-1.6311079,-13.2622795,2.964958,77.100006,-160.5,-18.300001,,,,,x,
971692,1.5910603,5.8492403,0.6083114,-1.9131219,-13.803442,2.957336,65.100006,-162.90001,-21.300001,,,,,x,
971732,1.5611532,3.9345844,0.83740014,-1.798792,-13.445208,1.196654,84.3,-179.70001,-26.7,,,,,x,
971752,1.3960657,2.9883223,0.732127,-1.204276,-13.003132,0.358234,65.100006,-170.1,-23.7,,,,,x,
971773,1.4899741,2.7012136,0.39597064,-0.243904,-12.286664,0.34298998,65.100006,-177.3,-19.5,,,,,x,
971793,1.468441,1.9421703,0.09749731,0.49543,-11.654037,-0.907018,57.9,-174.90001,-21.300001,,,,,x,
971813,1.263278,1.1269014,-0.16090046,2.118916,-10.655556,-1.684462,62.7,-170.1,-18.300001,,,,,x,
971833,2.7927296,2.4924617,-0.67470527,2.942092,-8.23176,-0.80030996,65.100006,-160.5,-26.1,,,,,x,
971853,3.367545,4.3413215,-3.0044723,3.7576458,-3.12502,-1.417692,67.5,-170.1,-25.500002,,,,,x,
971875,2.7077932,4.5578494,-4.6092896,4.832348,0.449698,-3.3155699,69.9,-162.90001,-23.7,,,,,x,
971918,2.8441699,7.433721,-6.9342713,5.282046,2.93447,-3.35368,91.5,-162.90001,-24.300001,,,,,x,
971938,2.5086117,8.55165,-7.433721,3.940574,4.283564,-5.571682,77.100006,-162.90001,-22.5,,,,,x,
971978,1.7166703,8.086295,-9.795788,5.79272,7.8430376,-6.661628,101.100006,-158.1,-17.7,,,,,x,
971999,0.8021097,9.216785,-10.205515,2.995446,3.643316,-6.791202,96.3,-155.70001,-18.300001,,,,,x,
972020,1.640108,9.463819,-8.342898,0.746956,2.111294,-6.684494,108.3,-155.70001,-17.7,,,,,x,
972044,0.75784713,10.83536,-8.339908,0.373478,11.112876,-7.5152917,115.50001,-148.5,-14.700001,,,,,x,
972086,0.38460594,11.558515,-10.587131,0.297258,9.154022,-5.312534,134.70001,-150.90001,-14.700001,,,,,x,
972106,-1.0425632,13.0389185,-7.427141,-4.009172,7.8277936,-6.227174,115.50001,-134.1,-10.5,,,,,x,
972126,-1.8602246,12.5962925,-8.827394,1.775926,17.934566,-7.9040136,127.50001,-148.5,-6.9,,,,,x,
972146,-1.8584303,13.084377,-11.851604,4.199722,20.899523,-5.739366,125.100006,-131.70001,-15.3,,,,,x,
972167,-2.7167654,14.3344965,-12.715921,1.6158639,14.260761,-3.559474,125.100006,-136.5,-5.7000003,,,,,x,
972187,-1.2351652,17.365286,-7.9421425,-5.708878,4.786616,-4.923812,132.3,-122.100006,-2.7,,,,,x,
972207,-2.2932801,15.8567705,-6.8750553,-3.7881339,11.036655,-7.766818,132.3,-138.90001,-6.3,,,,,x,
972227,-3.116325,12.754203,-10.954391,4.5427117,24.992537,-7.538158,134.70001,-129.3,-3.9,,,,,x,
972251,-0.14295617,17.842606,-12.276286,-3.567096,6.5091877,-0.22865999,122.700005,-129.3,-9.3,,,,,x,
972272,-3.2269814,16.611626,-5.1440296,-8.010722,4.15399,-7.339986,127.50001,-124.50001,-9.900001,,,,,x,
972292,-4.434632,12.843924,-8.823207,1.3795819,23.186123,-8.353712,120.3,-122.100006,-0.90000004,,,,,x,
972334,-3.1737466,15.697066,-8.287271,-8.780544,0.11432999,-2.13416,120.3,-131.70001,-6.3,,,,,x,
972354,-4.4543705,14.740037,-3.4620516,-5.83083,4.15399,-2.614346,122.700005,-126.9,-3.3000002,,,,,x,
972374,-4.267152,13.780018,-6.0825157,-6.1204658,10.228724,-2.339954,132.3,-131.70001,-3.9,,,,,x,
972394,-5.008251,12.9312525,-5.2229843,-6.4482117,5.03052,-1.272874,127.50001,-129.3,-8.1,,,,,x,
972414,-3.9668841,13.017983,-3.6785793,-5.10674,1.059458,0.92988396,127.50001,-134.1,-2.1000001,,,,,x,
972434,-4.2611704,12.337895,-2.2561953,-7.1418138,0.396344,2.042696,129.90001,-134.1,-11.700001,,,,,x,
972454,-3.7264307,11.172712,-2.53493,-8.0945635,1.67684,2.576236,122.700005,-141.3,-0.3,,,,,x,
972474,-3.6833644,10.10742,-2.1927922,-6.577786,-0.83842,2.6905658,101.100006,-138.90001,-8.700001,,,,,x,
972494,-2.8483567,9.1797,-1.8943188,-5.853696,-2.2942219,3.056422,110.700005,-143.70001,-10.5,,,,,x,
972514,-2.137763,8.933266,-1.4881797,-4.778994,-3.932952,3.6738038,117.9,-146.1,-7.5000005,,,,,x,
972534,-1.7681106,8.470901,-1.1352754,-4.618932,-5.0838737,3.414656,115.50001,-150.90001,-15.3,,,,,x,
972554,-1.878169,6.611872,-0.4426258,-4.664664,-5.914672,2.454284,108.3,-148.5,-11.1,,,,,x,
972578,-1.4534874,6.2452106,-0.04246815,-3.871976,-5.8613176,4.596066,115.50001,-162.90001,-15.3,,,,,x,
972599,-1.0048802,5.5968237,-0.47133666,-3.1859958,-5.198204,4.580822,113.100006,-162.90001,-16.5,,,,,x,
972619,-0.5263658,5.2343493,-0.5706284,-1.684462,-6.714982,4.5884438,103.50001,-153.3,-17.1,,,,,x,
972640,0.22191104,4.3813972,-0.1961909,-1.1356779,-7.77444,3.628072,98.700005,-153.3,-15.3,,,,,x,
972660,0.67171454,3.6977198,-0.18542433,-0.82317597,-8.170784,4.443626,103.50001,-160.5,-15.900001,,,,,x,
972680,0.86790544,3.4315462,-0.44023323,-1.1432999,-7.385718,4.862836,98.700005,-170.1,-17.1,,,,,x,
972703,1.2578946,4.4029303,-0.7835673,-0.243904,-7.9040136,5.6097918,81.9,-158.1,-19.5,,,,,x,
972723,1.7549515,4.008156,-0.7710063,-0.640248,-8.26987,4.5731997,81.9,-165.3,-17.7,,,,,x,
972743,1.7818679,3.4913604,-0.6029281,0.70122397,-8.757678,4.4207597,72.3,-165.3,-18.300001,,,,,x,
972763,2.5379207,3.987221,-0.5700303,0.960372,-8.399444,4.9009457,74.700005,-162.90001,-15.3,,,,,x,
972783,3.4153965,4.4920535,-0.36905423,1.318606,-7.6524878,4.245454,74.700005,-162.90001,-15.3,,,,,x,
972806,3.6582425,4.3167977,-0.18721876,1.288118,-6.28815,3.62045,67.5,-177.3,-16.5,,,,,x,
972868,3.2604773,7.5162644,-2.8890305,1.21952,0.868908,1.684462,62.7,-170.1,-15.900001,,,,,x,
972891,3.1121378,7.446282,-3.6953273,1.455802,0.975616,0.663114,60.300003,-172.5,-20.1,,,,,,
972911,2.8633103,8.324356,-4.393958,1.036592,0.49543,1.021348,60.300003,-160.5,-15.3,,,,,,
972931,3.1827188,9.173718,-4.673889,1.1051899,-0.92226195,1.1204339,65.100006,-160.5,-17.7,,,,,,
972951,3.2592812,9.106129,-3.995595,1.006104,-1.3872039,-0.15244,62.7,-160.5,-16.5,,,,,,
972973,3.5505767,9.7670765,-4.17444,1.3567159,-0.731712,-0.510674,45.9,-162.90001,-20.1,,,,,,
972993,2.9590132,9.088184,-4.195973,1.166166,-0.106708,-1.6082419,65.100006,-167.70001,-18.300001,,,,,,
973058,2.3357482,8.548061,-3.154606,0.15244,1.5929979,-0.891774,60.300003,-167.70001,-18.300001,,,,,,
973078,2.4200864,9.031361,-3.204252,0.022866,1.8597679,-1.089946,62.7,-174.90001,-10.5,,,,,,
973098,2.125202,8.275308,-3.1390543,-0.53354,1.745438,-1.775926,55.500004,-158.1,-15.3,,,,,,
973120,1.7202592,8.077921,-2.9841354,0.26677,1.280496,-0.998482,77.100006,-170.1,-5.7000003,,,,,,
973161,2.1664739,9.174915,-2.7113822,0.160062,1.006104,-0.640248,60.300003,-160.5,-12.3,,,,,,
973181,2.024714,9.243103,-2.8088794,0.16768399,1.41007,-1.33385,74.700005,-160.5,-18.900002,,,,,,
973201,1.7633255,9.0654545,-2.9931073,0.045732,1.5929979,-1.44818,62.7,-165.3,-10.5,,,,,,
973224,1.6048176,8.851319,-3.0900066,-0.045732,1.516778,-1.4024479,72.3,-162.90001,-20.7,,,,,,
973245,1.4911704,8.6006975,-3.0152388,0.015244,1.303362,-1.1128119,72.3,-158.1,-8.1,,,,,,
973266,1.4929649,8.801076,-3.0355756,0.068598,1.1356779,-0.70122397,72.3,-158.1,-9.900001,,,,,,
973286,1.6502764,9.377686,-3.070268,0.16768399,1.02897,-0.769822,77.100006,-158.1,-16.5,,,,,,
973310,1.6526691,8.914722,-3.0481365,-0.40396598,1.082324,-1.227142,74.700005,-160.5,-17.1,,,,,,
973330,1.5539755,8.614455,-2.9470503,-0.365856,1.044214,-1.044214,69.9,-167.70001,-6.3,,,,,,
973352,1.62336,8.921901,-3.1187174,-0.28201398,1.082324,-0.541162,62.7,-172.5,-7.5000005,,,,,,
973373,1.2913907,8.875245,-3.20485,-0.33536798,0.87653,-0.69360197,74.700005,-170.1,-18.900002,,,,,,
973393,1.3613734,8.953004,-3.1348674,0.03811,0.548784,-0.548784,77.100006,-153.3,-10.5,,,,,,
973413,1.4283655,8.7933,-3.1061563,-0.198172,0.480186,-0.579272,77.100006,-167.70001,-18.900002,,,,,,
973435,1.4421227,8.970948,-3.0295942,-0.221038,0.503052,-0.49543,74.700005,-162.90001,-15.3,,,,,,
973456,1.4343468,8.8489275,-3.058305,-0.541162,0.434454,-0.525918,74.700005,-160.5,-11.1,,,,,,
973479,1.4756187,8.856703,-2.957817,-0.289636,0.46494198,-0.030488,72.3,-165.3,-18.900002,,,,,,
973499,1.4821982,8.982313,-2.9799483,-0.251526,0.510674,-0.030488,86.700005,-160.5,-11.1,,,,,,
973519,1.5240682,8.692812,-2.873479,-0.160062,0.41921,0.007622,57.9,-162.90001,-11.700001,,,,,,
973539,1.5240682,8.701784,-2.8375902,-0.099086,0.487808,0.045732,72.3,-170.1,-14.700001,,,,,,
973562,1.4534874,9.506287,-3.3250768,0.121952,0.60976,-0.426832,67.5,-158.1,-12.900001,,,,,,
973582,1.4690391,8.4816675,-2.9757612,0.274392,0.083841994,-1.089946,72.3,-172.5,-17.1,,,,,,
973602,1.7328202,8.995472,-2.9608078,0.480186,-0.03811,-0.137196,72.3,-153.3,-11.700001,,,,,,
973622,1.6544634,8.749037,-2.9823408,-0.625004,0.46494198,-0.274392,67.5,-162.90001,-15.3,,,,,,
973642,1.677791,9.030165,-3.1450357,-0.518296,0.60976,-0.144818,72.3,-162.90001,-14.1,,,,,,
973662,1.6753985,8.975734,-3.1863077,-0.510674,0.617382,-0.487808,72.3,-153.3,-14.700001,,,,,,
973686,1.9230297,8.753224,-2.8926194,-0.243904,0.388722,-0.541162,62.7,-160.5,-10.5,,,,,x,
973706,2.0265083,8.847731,-2.6689138,-0.518296,0.739334,-0.045732,72.3,-170.1,-18.900002,,,,,x,
973726,2.019929,8.889601,-2.89561,-0.655492,1.318606,-0.182928,84.3,-158.1,-15.900001,,,,,x,
973748,1.4457116,8.28428,-2.8310106,-0.57164997,1.3567159,-0.487808,72.3,-158.1,-15.900001,,,,,x,
973768,1.7088945,8.664101,-2.932695,0.007622,0.998482,-0.19055,74.700005,-155.70001,-9.900001,,,,,x,
973788,1.6353229,8.639577,-2.7083914,0.160062,0.92226195,-0.3811,84.3,-162.90001,-15.900001,,,,,x,
973808,1.4588706,9.103138,-2.9141526,0.11432999,0.93750596,-0.47256398,81.9,-165.3,-14.700001,,,,,x,
973829,1.2124358,9.055884,-2.9141526,-0.15244,0.56402797,-0.64787,69.9,-172.5,-14.1,,,,,x,
973849,0.9468603,9.09297,-2.8968065,-0.320124,0.365856,-0.243904,81.9,-165.3,-14.1,,,,,x,
973869,1.1203218,9.75631,-2.9739668,-0.56402797,-0.121952,0.3811,74.700005,-160.5,-17.1,,,,,x,
973889,1.112546,10.066148,-2.8262255,-0.7622,-0.92226195,0.503052,72.3,-158.1,-12.3,,,,,x,
973909,1.0413669,10.1774025,-2.263971,-1.661596,-1.928366,0.640248,84.3,-167.70001,-17.7,,,,,x,
973929,0.26796806,10.010521,-1.9206371,-3.3003259,-2.416174,0.26677,79.5,-160.5,-15.3,,,,,x,
973949,-0.019140575,8.289065,-2.0970893,-4.329296,-3.8109999,-0.121952,74.700005,-160.5,-16.5,,,,,x,
973969,-0.14654502,7.0401425,-1.5360311,-3.346058,-6.9283977,1.684462,81.9,-153.3,-13.500001,,,,,x,
973989,0.29309005,6.5706005,-0.8481667,-3.102154,-9.725672,3.917708,79.5,-160.5,-17.7,,,,,x,
974009,1.1239107,6.5945263,-0.12022674,-2.7362978,-12.202822,5.213448,69.9,-170.1,-20.7,,,,,x,
974029,1.5641439,6.1519003,0.38041893,-2.97258,-13.468074,4.756128,62.7,-174.90001,-23.7,,,,,x,
974049,2.363861,5.7810516,0.7482768,-2.850628,-14.298872,4.45887,57.9,-158.1,-27.300001,,,,,x,
974069,2.522369,4.8515377,1.1436493,-2.835384,-13.7881975,2.675322,57.9,-162.90001,-20.7,,,,,x,
974089,2.397357,4.4465947,1.0443577,-2.6677,-13.673867,1.966476,65.100006,-177.3,-26.7,,,,,x,
974111,1.9266185,3.2096353,1.075461,-1.6463519,-13.368988,-0.030488,67.5,-182.1,-24.300001,,,,,x,
974131,2.0450509,2.9398727,0.82842803,-1.509156,-11.936051,-0.80030996,50.7,-170.1,-26.1,,,,,x,
974151,3.0044723,4.5094,0.24105161,-1.18141,-10.083906,-1.082324,69.9,-167.70001,-24.300001,,,,,x,
974173,2.819048,4.353883,-0.61070395,-1.6311079,-7.4238276,-3.955818,55.500004,-167.70001,-29.7,,,,,x,
974235,1.7071,5.602207,-3.4321444,3.422278,-2.865872,-6.112844,89.100006,-160.5,-24.900002,,,,,x,
974255,1.0030857,8.286075,-5.049523,2.7515419,1.692084,-6.9588857,81.9,-167.70001,-24.300001,,,,,x,
974275,0.13996546,6.3540726,-7.2046323,4.740884,5.236314,-10.89946,84.3,-170.1,-18.900002,,,,,x,
974316,1.1316864,7.533611,-6.4198685,2.987824,-2.7667859,-1.211898,103.50001,-146.1,-19.5,,,,,x,
974338,2.3459167,9.671373,-6.1267786,2.301844,2.461906,-2.141782,110.700005,-150.90001,-21.900002,,,,,x,
974358,1.8195509,9.314282,-7.116107,2.660078,5.8765616,-5.79272,105.9,-158.1,-23.7,,,,,x,
974378,1.0736667,9.066053,-6.911542,2.073184,6.890288,-7.118948,117.9,-155.70001,-21.300001,,,,,x,
974398,-0.0059814295,9.819714,-7.4690113,0.846042,10.411652,-8.033587,120.3,-148.5,-20.7,,,,,x,
974418,-0.4151112,9.886107,-7.8805337,1.006104,11.654037,-7.987856,122.700005,-141.3,-21.300001,,,,,x,
974439,-0.45638308,10.785116,-8.663503,0.891774,11.1586075,-6.4482117,125.100006,-134.1,-19.5,,,,,x,
974501,-3.3908725,11.536384,-9.945323,1.98172,13.391853,-4.100636,132.3,-129.3,-12.900001,,,,,x,
974549,-0.78835243,16.167206,-7.860795,-4.9543,-2.111294,-0.579272,137.1,-138.90001,-15.3,,,,,x,
974609,-1.9792551,15.743721,-9.808947,-0.69360197,11.882698,-0.57164997,144.3,-131.70001,-9.900001,,,,,x,
974632,-3.0923991,16.926847,-5.812753,-3.437522,4.9619217,-2.89636,129.90001,-134.1,-11.700001,,,,,x,
974652,-4.471119,15.742525,-7.632304,-0.640248,15.602234,-4.64942,127.50001,-146.1,-4.5,,,,,x,
974674,-2.5672297,16.855669,-9.034949,-0.26677,9.390304,-1.8750119,125.100006,-143.70001,-7.5000005,,,,,x,
974695,-3.7659082,17.00999,-4.094887,-4.321674,4.428382,-3.0488,132.3,-126.9,-8.1,,,,,x,
974715,-5.1769276,16.423212,-6.4976273,-1.8902559,15.785162,-2.888738,127.50001,-131.70001,-9.3,,,,,x,
974735,-4.789929,16.29521,-7.4074025,-3.422278,10.602201,-1.3719599,134.70001,-138.90001,-0.3,,,,,x,
974798,-4.007558,13.178286,-2.9291062,-5.899428,1.189032,1.3872039,120.3,-146.1,-8.700001,,,,,x,
974818,-3.3077307,11.550739,-2.0420601,-4.923812,-0.053354,1.18141,115.50001,-148.5,-14.1,,,,,x,
