time,sensor_accX,sensor_accY,sensor_accZ,sensor_gyroX,sensor_gyroY,sensor_gyroZ,sensor_magX,sensor_magY,sensor_magZ,label_Boxing_slip_left,label_Boxing_slip_right,label_Boxing_pullback,label_Boxing_roll_left,label_Boxing_roll_right,label_Boxing_recording_cut
563999,-0.33077306,9.760497,-2.9171433,0.69360197,-1.082324,-1.554888,96.3,-167.70001,-18.300001,,,,,,
564019,-0.34453034,10.217478,-2.9632003,0.777444,-1.204276,-1.242386,93.9,-148.5,-15.3,,,,,,
564101,-1.355392,9.420154,-3.5416045,1.935988,-0.830798,-2.576236,89.100006,-160.5,-18.300001,,,,,,
564203,-0.40015766,9.354358,-3.6307278,0.899396,0.434454,-2.835384,125.100006,-146.1,-18.300001,,,,,,
564227,-0.9420752,8.15867,-3.631326,0.95274997,-0.11432999,-3.940574,120.3,-138.90001,-19.5,,,,,,
564309,-0.18901318,9.308301,-3.4153965,-0.045732,0.144818,-1.48629,117.9,-148.5,-10.5,,,,,,
564329,0.39776507,10.261741,-3.5398102,0.053354,0.015244,-1.227142,113.100006,-150.90001,-9.3,,,,,,
564349,-0.30804363,9.625915,-3.9603045,-0.449698,0.365856,-2.7058098,125.100006,-141.3,-13.500001,,,,,,
564389,-0.7040143,9.186279,-5.044738,0.87653,-1.196654,-0.708846,127.50001,-143.70001,-11.1,,,,,,
564432,0.14774132,9.214991,-4.6942263,0.182928,-2.59148,0.632626,134.70001,-146.1,-11.700001,,,,,,
564454,0.5873764,9.131848,-4.3532844,-0.449698,-2.2332458,0.884152,122.700005,-150.90001,-9.900001,,,,,,
564474,0.92054206,8.954799,-4.020717,-1.02897,-1.532022,1.051836,122.700005,-143.70001,-12.3,,,,,,
564494,0.8876442,8.446975,-3.9333882,-1.3490939,-0.777444,0.746956,115.50001,-150.90001,-8.700001,,,,,,
564514,0.8272317,8.400918,-3.7659082,-0.846042,-0.47256398,0.975616,134.70001,-148.5,-11.1,,,,,,
564574,0.669322,8.570192,-3.3956575,-0.746956,0.213416,0.243904,122.700005,-150.90001,-5.7000003,,,,,,
564594,0.36247465,8.835768,-3.3777134,-0.655492,0.35061198,-0.099086,120.3,-150.90001,-12.900001,,,,x,,
564614,0.078954875,8.75143,-3.434537,-0.56402797,0.251526,-0.434454,122.700005,-148.5,-13.500001,,,,x,,
564634,0.15491903,8.884816,-3.3125157,-0.388722,0.015244,-0.19055,122.700005,-146.1,-8.1,,,,x,,
564657,0.12261931,8.411685,-3.1151285,-0.541162,0.182928,-0.15244,127.50001,-155.70001,-7.5000005,,,,x,,
564677,0.12860073,8.8489275,-3.204252,-0.144818,0.45731997,0.40396598,122.700005,-153.3,-20.1,,,,x,,
564697,-0.0017944289,8.915321,-3.4482942,-0.053354,0.640248,0.26677,134.70001,-148.5,-12.3,,,,x,,
564717,0.09450659,8.747841,-3.4303498,0.327746,0.442076,0.449698,120.3,-141.3,-11.1,,,,x,,
564737,0.19499461,9.236524,-3.572708,0.64787,0.373478,0.67835796,127.50001,-146.1,-14.1,,,,x,,
564817,0.30923992,8.757411,-3.706692,-0.106708,-0.487808,0.07622,122.700005,-155.70001,-11.700001,,,,x,,
564926,2.028303,8.869264,-5.345604,-0.72409,2.55337,-0.16768399,110.700005,-148.5,-18.900002,,,,x,,
564946,2.0354805,8.1168,-6.235042,0.16768399,2.919226,-0.754578,125.100006,-158.1,-8.700001,,,,x,,
564986,3.2933753,8.558827,-4.5973268,-1.3948259,1.29574,-0.160062,117.9,-150.90001,-11.1,,,,x,,
565007,3.091203,7.2136045,-4.133766,-2.141782,3.437522,-1.455802,117.9,-146.1,-17.7,,,,x,,
565027,3.2323647,6.30981,-3.5780911,-2.13416,4.672286,-2.644834,127.50001,-153.3,-16.5,,,,x,,
565049,3.1773355,5.7314057,-3.4560702,-1.3490939,5.686012,-3.8262439,120.3,-150.90001,-17.7,,,,x,,
565070,3.1342692,5.0405507,-2.8166552,-0.7622,5.746988,-4.9161897,127.50001,-141.3,-15.3,,,,x,,
565090,3.1910927,4.526148,-1.7274369,-1.3795819,6.051868,-5.777476,127.50001,-129.3,-12.900001,,,,x,,
565133,2.4619565,3.4339387,-0.6262557,-1.79117,8.795788,-7.5152917,129.90001,-146.1,-15.900001,,,,x,,
565183,0.12261931,2.522369,-0.34034336,-0.998482,10.465006,-7.92688,144.3,-141.3,-9.3,,,,x,,
565247,-3.0218184,7.0539002,0.000598143,1.493912,7.2409,-8.506152,161.1,-131.70001,-9.900001,,,,x,,
565283,-4.3664436,6.866083,-0.3648672,2.332332,5.0076537,-8.856764,168.3,-119.700005,-5.7000003,,,,x,,
565303,-5.1260853,7.384075,-0.96121573,3.071666,3.064044,-7.35523,173.1,-122.100006,-6.3,,,,x,,
565343,-5.5944314,9.451257,-2.2376528,3.033556,-1.158544,-5.419242,180.3,-88.5,4.5,,,,x,,
565363,-5.882736,9.8747425,-2.1096504,2.157026,-3.58234,-4.45887,185.1,-105.3,-4.5,,,,x,,
565383,-6.2051353,10.526718,-2.635418,0.998482,-4.61131,-2.149404,189.90001,-110.100006,-3.9,,,,x,,
565446,-7.627519,12.750614,-3.317301,1.303362,-8.57475,2.164648,206.70001,-86.100006,-6.9,,,,x,,
565466,-7.37271,14.423021,-3.9292011,0.655492,-8.864386,3.88722,194.70001,-107.700005,-8.1,,,,x,,
565488,-7.2782035,12.917496,-3.397452,0.34298998,-9.664696,2.6981878,192.3,-98.100006,-5.1000004,,,,x,,
565528,-6.1519003,12.694388,-5.091991,1.310984,-10.06104,9.154022,194.70001,-105.3,-10.5,,,,x,,
565548,-4.882043,15.006211,-3.9136496,0.0,-11.318669,8.780544,194.70001,-112.50001,-10.5,,,,x,,
565568,-6.1865926,12.10761,-4.572205,-1.745438,-7.0198617,4.260698,187.5,-124.50001,-8.700001,,,,x,,
565588,-5.9413543,11.023775,-6.4449906,0.068598,-5.243936,5.312534,187.5,-107.700005,-12.900001,,,,x,,
565608,-4.7959104,12.970731,-7.5958176,1.242386,-5.823208,7.195168,194.70001,-129.3,-13.500001,,,,x,,
565632,-4.3706307,14.859666,-8.340506,0.49543,-5.343022,7.256144,185.1,-129.3,-14.1,,,,x,,
565652,-3.4112093,13.143594,-8.692214,-1.745438,-5.44973,2.538126,175.5,-124.50001,-18.900002,,,,x,,
565672,-4.2228894,11.679339,-8.855507,-0.56402797,-4.87808,1.996964,173.1,-129.3,-14.1,,,,x,,
565692,-4.7845454,12.092656,-10.249778,1.814036,-4.740884,6.547298,170.70001,-124.50001,-12.3,,,,x,,
565712,-2.4547787,15.5870075,-9.963267,-0.20579399,-8.833898,9.817136,158.70001,-122.100006,-20.7,,,,x,,
565732,-2.513995,15.584615,-8.543276,-1.3643379,-9.6418295,5.464974,163.5,-138.90001,-19.5,,,,x,,
565775,-0.80749303,13.861365,-9.674364,-1.806414,-11.006167,10.274456,127.50001,-129.3,-20.7,,,,x,,
565816,-0.7787821,11.891681,-8.14611,-1.79117,-2.888738,6.4482117,122.700005,-148.5,-21.900002,,,,x,,
565836,-0.35410064,10.6092615,-8.524136,-2.088428,-3.041178,6.4786997,127.50001,-146.1,-24.300001,,,,x,,
565856,0.719566,10.469894,-7.0897884,-2.416174,-4.939056,7.553402,127.50001,-155.70001,-25.500002,,,,x,,
565877,0.9008033,9.89149,-5.828903,-3.2698379,-3.2317278,6.829312,103.50001,-155.70001,-24.900002,,,,x,,
565898,1.2375578,9.008632,-5.713462,-2.7820299,-0.82317597,5.9070497,110.700005,-160.5,-25.500002,,,,x,,
565918,1.2351652,8.037846,-5.1344595,-1.5929979,-0.7622,4.679908,110.700005,-158.1,-27.900002,,,,x,,
565938,1.6167804,7.1017513,-3.9710712,-1.150922,-0.92226195,3.978684,103.50001,-162.90001,-21.300001,,,,x,,
565959,1.6347247,6.2434163,-3.313114,-1.509156,1.585376,4.291186,96.3,-150.90001,-28.500002,,,,x,,
565979,1.8045974,5.767893,-2.9009933,-1.189032,3.567096,3.955818,91.5,-167.70001,-25.500002,,,,x,,
565999,1.7920363,5.3737164,-2.564837,-0.373478,3.7500238,3.498498,91.5,-165.3,-27.900002,,,,x,,
566021,1.2333708,4.1218033,-1.5348349,0.731712,4.809482,2.157026,84.3,-165.3,-25.500002,,,,x,,
566041,1.6855669,4.782153,-1.0766573,0.960372,5.815586,3.003068,77.100006,-170.1,-26.7,,,,x,,
566063,1.1370698,4.7175536,-0.8726906,0.594516,6.814068,1.082324,86.700005,-160.5,-20.7,,,,x,,
566123,0.677696,5.0549064,-0.53234726,1.539644,5.9375377,-0.106708,89.100006,-165.3,-13.500001,,,,x,,
566143,0.68128484,5.09558,-0.3798208,1.5244,5.4421077,-1.051836,96.3,-162.90001,-22.5,,,,x,,
566206,1.3793176,5.9150357,0.21234076,0.358234,4.718018,-1.539644,74.700005,-160.5,-14.1,,,,x,,
566265,1.5288534,7.580266,-0.57421726,0.243904,6.13571,-1.768304,98.700005,-167.70001,-18.300001,,,,x,,
566302,1.0431614,8.653933,-1.3625697,0.87653,3.612828,-1.189032,91.5,-177.3,-14.1,,,,x,,
566322,1.2327727,9.086988,-1.3392421,0.030488,2.309466,-1.29574,89.100006,-158.1,-16.5,,,,x,,
566362,1.5456015,8.621633,-1.753157,0.053354,2.149404,-1.8673899,93.9,-153.3,-18.900002,,,,x,,
566382,2.0970893,9.689318,-2.104267,0.67073596,1.821658,-1.1280559,96.3,-162.90001,-24.900002,,,,x,,
566402,1.9714792,9.580456,-2.2149234,0.525918,1.814036,-1.463424,101.100006,-153.3,-17.7,,,,x,,
566422,1.7208574,9.0756235,-2.4410214,0.655492,1.6387299,-1.425314,93.9,-162.90001,-17.7,,,,x,,
566442,1.8039992,9.2592535,-2.4625547,0.434454,0.983238,-0.82317597,89.100006,-165.3,-16.5,,,,x,,
566522,1.2895962,8.92848,-2.8519456,0.327746,-1.56251,-0.87653,101.100006,-167.70001,-21.300001,,,,,,
566548,1.1514252,9.323255,-2.8310106,-0.221038,-0.87653,-1.036592,101.100006,-162.90001,-15.900001,,,,,,
566568,0.99291736,9.390844,-2.9560225,-0.17530599,-0.55640596,-1.074702,101.100006,-165.3,-20.1,,,,,,
566608,0.24822934,8.459536,-3.1115398,-0.23628199,-0.11432999,-1.310984,101.100006,-162.90001,-15.3,,,,,,
566628,0.19559275,8.454751,-3.0397625,-0.007622,-0.41921,-0.365856,101.100006,-160.5,-17.7,,,,,,
566648,0.30864176,8.424246,-3.040959,-0.015244,-0.541162,0.26677,98.700005,-165.3,-24.300001,,,,,,
566668,0.37623194,8.8166275,-3.1031656,0.17530599,-0.579272,0.663114,115.50001,-143.70001,-16.5,,,,,,
566688,0.6196761,9.022986,-3.3053381,0.23628199,-0.731712,0.518296,105.9,-150.90001,-15.3,,,,,,
566708,0.820054,8.832777,-3.2072427,0.19055,-1.013726,0.396344,101.100006,-158.1,-17.7,,,,,,
566728,0.9241309,8.38417,-3.1444376,-0.11432999,-0.907018,0.396344,105.9,-160.5,-11.1,,,,,,
566748,1.1903045,8.624623,-3.3137121,0.060976,-0.792688,0.53354,91.5,-150.90001,-9.3,,,,,,
566768,1.4193933,8.990687,-3.4399202,-0.015244,-0.739334,0.47256398,101.100006,-155.70001,-18.900002,,,,,,
566788,1.2943814,8.6652975,-3.4991364,-0.57164997,-0.716468,-0.022866,105.9,-165.3,-21.900002,,,,,,
566808,1.5156943,8.6437645,-3.627737,-0.388722,-0.777444,-0.327746,98.700005,-158.1,-14.1,,,,,,
566828,1.6963334,8.689223,-3.580484,-0.518296,-0.87653,-0.602138,103.50001,-160.5,-23.1,,,,,,
566868,1.8763745,8.436807,-3.9549212,-0.617382,-0.243904,-1.089946,101.100006,-155.70001,-8.1,,,,,,
566905,1.7878493,9.299927,-4.2157116,0.396344,-0.45731997,-0.221038,117.9,-155.70001,-15.3,,,,,,
566925,1.4409264,9.516455,-4.1822157,0.243904,-0.518296,-0.47256398,96.3,-158.1,-13.500001,,,,,,
566965,1.238754,9.375293,-3.5589507,-1.02897,0.060976,-1.044214,101.100006,-165.3,-22.5,,,,x,,
567005,1.2806242,8.748439,-3.3149083,-1.455802,2.118916,-1.71495,101.100006,-160.5,-14.700001,,,,x,,
567025,1.4205896,8.637184,-3.183317,-1.3948259,2.408552,-1.707328,101.100006,-162.90001,-16.5,,,,x,,
567045,1.5366293,8.140128,-3.1348674,-1.250008,3.399412,-2.05794,108.3,-155.70001,-14.700001,,,,x,,
567085,2.489471,7.5413866,-3.1958778,1.234764,5.243936,-2.949714,122.700005,-153.3,-14.700001,,,,x,,
567125,3.024211,7.366131,-2.171259,1.280496,7.553402,-4.4817357,132.3,-158.1,-12.3,,,,x,,
567167,2.5157893,6.5490675,-2.2149234,1.250008,9.984819,-5.9680257,127.50001,-160.5,-17.7,,,,x,,
567205,1.8919262,5.559739,-1.3829066,0.373478,9.41317,-7.614378,127.50001,-146.1,-12.900001,,,,x,,
567225,1.4827964,4.2581797,-0.71657526,-0.129574,8.414688,-8.963471,125.100006,-146.1,-9.900001,,,,x,,
567267,0.38340965,2.5445,0.09809545,0.007622,7.9497457,-9.275973,139.5,-129.3,-9.3,,,,x,,
567288,-0.19858347,1.8871411,0.2865105,0.594516,6.9131536,-8.605238,151.5,-126.9,-5.7000003,,,,x,,
567329,-1.4164026,3.0020795,1.2070525,2.332332,2.7286758,-3.902464,168.3,-122.100006,-8.1,,,,x,,
567349,-1.3392421,5.363548,1.3278774,1.9054999,3.460388,-3.7805119,170.70001,-122.100006,-0.90000004,,,,x,,
567369,-3.7509546,5.706284,-0.33316565,3.955818,3.46801,-4.984788,153.90001,-122.100006,-1.5,,,,x,,
567412,-4.0308857,9.150392,-0.6705183,1.8902559,-2.301844,-4.34454,177.90001,-112.50001,-2.7,,,,x,,
567439,-4.886828,10.380173,-1.7053056,1.547266,-2.888738,-2.964958,168.3,-110.100006,-8.1,,,,x,,
567459,-5.5830665,9.88192,-2.2783265,0.960372,-4.64942,-3.7424018,180.3,-112.50001,-4.5,,,,x,,
567499,-7.387664,12.029852,-5.0650744,0.60976,-7.957368,5.556438,180.3,-119.700005,-2.7,,,,x,,
567519,-5.167357,15.085764,-3.5553617,-1.189032,-10.686044,3.7195358,185.1,-102.9,2.1000001,,,,x,,
567539,-8.750234,11.120674,-4.556055,-0.60976,-7.5152917,-1.539644,170.70001,-119.700005,-7.5000005,,,,x,,
567559,-8.065958,12.117779,-7.0652647,1.051836,-8.6814575,5.0686297,187.5,-114.9,-4.5,,,,x,,
567579,-4.7725825,15.636654,-4.368238,-0.69360197,-16.211994,7.85066,173.1,-114.9,-6.9,,,,x,,
567599,-6.372017,13.114882,-2.7203543,-1.8445239,-10.86135,3.056422,189.90001,-122.100006,-9.3,,,,x,,
567619,-6.9294863,12.869644,-6.5921335,-1.051836,-5.25918,5.236314,180.3,-117.3,-2.1000001,,,,x,,
567679,-5.3162947,15.033127,-8.046219,-0.144818,-7.248522,5.510706,168.3,-134.1,-9.900001,,,,x,,
567699,-4.5285406,15.43807,-8.577969,0.426832,-7.6219997,5.846074,168.3,-138.90001,-12.3,,,,x,,
567719,-3.5487823,15.432089,-8.811244,0.625004,-8.544262,5.076252,165.90001,-138.90001,-20.1,,,,x,,
567739,-4.111037,15.545137,-9.262244,0.525918,-8.567128,5.282046,161.1,-129.3,-12.900001,,,,x,,
567759,-3.0026777,16.049372,-9.213795,-0.83842,-9.771403,5.617414,151.5,-131.70001,-19.5,,,,x,,
567782,-2.527154,14.482238,-8.196353,-0.503052,-8.6509695,2.7591639,149.1,-138.90001,-8.1,,,,x,,
567802,-2.3835998,13.546144,-9.003248,0.46494198,-7.522914,4.847592,156.3,-150.90001,-14.1,,,,x,,
567822,-1.3410366,13.644837,-7.417571,-0.868908,-9.359816,7.16468,144.3,-136.5,-21.900002,,,,x,,
567842,-1.1029756,13.32184,-6.2123127,-1.440558,-5.899428,6.379614,153.90001,-153.3,-31.500002,,,,x,,
567866,-1.3721399,12.443169,-7.6945114,-1.150922,-2.2484899,4.923812,144.3,-146.1,-18.900002,,,,x,,
567886,-1.000095,10.746237,-7.8805337,-0.487808,-2.6829438,4.64942,122.700005,-153.3,-27.300001,,,,x,,
567910,0.055627298,11.029159,-6.4007277,-0.769822,-4.908568,5.815586,134.70001,-150.90001,-26.7,,,,x,,
567930,0.04067372,9.8962755,-5.6512547,-1.41007,-2.2637339,3.361302,113.100006,-150.90001,-26.7,,,,x,,
567950,-0.62266684,6.9510193,-6.4701123,-0.19055,-0.007622,1.425314,117.9,-158.1,-24.300001,,,,x,,
567990,1.8057936,8.108426,-4.2198987,0.541162,0.525918,8.490908,113.100006,-155.70001,-24.300001,,,,x,,
568010,1.7806716,6.631013,-4.9843254,2.7515419,4.1921,3.7119138,101.100006,-158.1,-23.1,,,,x,,
568030,2.2783265,5.447886,-4.63501,5.18296,3.567096,1.3643379,103.50001,-162.90001,-23.7,,,,x,,
568051,2.6539605,5.1308703,-3.5218658,4.72564,3.597584,1.425314,103.50001,-158.1,-24.300001,,,,x,,
568072,1.8440747,5.184105,-3.5780911,2.195136,6.59303,0.983238,108.3,-158.1,-21.900002,,,,x,,
568092,1.58149,4.7319093,-3.066679,1.1432999,5.762232,-0.083841994,108.3,-153.3,-18.900002,,,,x,,
568112,1.4792075,4.0356708,-1.5509847,0.022866,4.375028,-0.487808,91.5,-153.3,-24.900002,,,,x,,
568172,1.347018,4.0099506,-0.30565107,-0.69360197,7.027484,-1.1204339,103.50001,-158.1,-15.900001,,,,x,,
568193,1.5372274,4.2414317,0.5138048,-1.204276,6.814068,-1.509156,86.700005,-165.3,-8.1,,,,x,,
568213,1.5826863,4.827612,0.598143,-1.166166,7.896392,-1.974098,103.50001,-167.70001,-15.3,,,,x,,
568233,1.5216757,4.810864,0.8415872,-1.471046,8.086942,-2.835384,98.700005,-162.90001,-11.700001,,,,x,,
568253,1.4002527,5.5238504,0.5568711,-0.899396,8.811031,-3.01069,96.3,-158.1,-14.700001,,,,x,,
568273,1.3356533,5.7541356,-0.21353704,-0.17530599,8.628104,-3.6890478,98.700005,-165.3,-21.300001,,,,x,,
568293,0.7542583,5.912045,-0.6615461,1.036592,7.248522,-2.484772,103.50001,-153.3,-19.5,,,,x,,
568333,0.44741094,9.512866,-1.673604,1.242386,4.504602,0.80793196,96.3,-148.5,-17.7,,,,x,,
568353,0.053832866,10.10742,-2.4320493,0.510674,4.237832,0.060976,103.50001,-160.5,-11.700001,,,,x,,
568377,-0.20935003,10.166636,-3.3735263,0.213416,2.888738,-0.70122397,110.700005,-155.70001,-14.700001,,,,x,,
568397,-0.033496007,9.560718,-3.5864654,-0.030488,0.41921,-1.013726,84.3,-150.90001,-12.900001,,,,x,,
568419,0.6585554,9.542175,-3.2628698,-0.03811,-2.2256238,0.030488,98.700005,-158.1,-10.5,,,,x,,
568439,1.3272792,10.197142,-3.020622,-0.541162,-1.958854,0.26677,105.9,-158.1,-12.3,,,,,,
568460,1.4146081,9.953697,-3.125297,-0.891774,-1.1432999,-0.45731997,103.50001,-155.70001,-12.3,,,,,,
568480,0.98753405,9.210804,-3.109147,-0.754578,-0.67073596,-0.95274997,110.700005,-170.1,-14.1,,,,,,
568500,0.7058087,9.133643,-3.0218184,-0.548784,-0.746956,-0.731712,91.5,-153.3,-15.3,,,,,,
568520,0.5796005,8.80287,-2.6079032,-0.846042,-1.1204339,-0.891774,98.700005,-158.1,-15.900001,,,,,,
568542,0.70700496,8.332729,-2.3195984,-1.1204339,-1.082324,-0.92226195,105.9,-158.1,-9.3,,,,,,
568563,0.3869985,7.785429,-2.4804988,-0.602138,-0.868908,-0.49543,105.9,-162.90001,-8.700001,,,,,,
568583,0.36367092,8.23284,-2.714971,-0.144818,-1.097568,0.442076,108.3,-158.1,-8.700001,,,,,,
568665,0.8350076,8.797487,-3.2281775,0.47256398,-0.55640596,0.396344,108.3,-153.3,-9.3,,,,,,
568705,0.94327146,9.408191,-3.6785793,0.80030996,-0.41158798,0.320124,93.9,-146.1,-19.5,,,,,,
568725,1.0276096,9.535595,-3.598428,0.548784,-0.586894,0.106708,105.9,-160.5,-14.700001,,,,,,
568767,0.9648046,8.563613,-3.0828288,-0.67073596,0.03811,-0.617382,86.700005,-155.70001,-15.900001,,,,,,
568808,0.9283179,8.580361,-3.3484044,-1.56251,0.594516,-0.769822,110.700005,-150.90001,-17.1,,,,,,
568828,1.1490326,8.760402,-3.740188,-1.288118,0.518296,-0.907018,96.3,-146.1,-18.300001,,,,,,
568870,1.698726,8.922499,-4.707385,-0.503052,1.059458,-0.67073596,93.9,-148.5,-14.1,,,,,,
568890,1.9373851,8.566604,-4.9932976,-0.099086,1.021348,-0.541162,105.9,-167.70001,-5.7000003,,,,,,
568910,2.7125783,9.211402,-4.914343,0.579272,1.166166,0.47256398,108.3,-172.5,-3.9,,,,x,,
568950,2.945256,8.213101,-4.7534423,0.358234,3.109776,-1.8978779,108.3,-158.1,-15.900001,,,,x,,
568974,3.1324747,7.5276294,-4.078139,1.250008,3.39179,-2.035074,96.3,-158.1,-15.3,,,,x,,
568994,3.3663487,7.3864675,-2.6844656,0.068598,3.955818,-2.6677,96.3,-158.1,-11.700001,,,,x,,
569014,3.2814124,6.2284627,-1.8476636,-0.64787,5.762232,-4.321674,110.700005,-155.70001,-8.1,,,,x,,
569034,3.2694495,5.1446276,-1.1645844,-1.242386,7.286632,-5.358266,113.100006,-155.70001,-9.3,,,,x,,
569054,2.6701102,3.6576443,-0.50184196,-1.471046,8.254626,-6.265284,115.50001,-153.3,-6.9,,,,x,,
569074,2.9751632,4.100868,-0.5299547,-0.663114,9.626586,-5.312534,115.50001,-150.90001,-16.5,,,,x,,
569094,3.0475385,4.246217,-0.3798208,-0.68597996,9.443658,-5.663146,125.100006,-150.90001,-14.1,,,,x,,
569115,2.3812072,2.991313,0.12261931,-1.06708,7.942124,-7.4543157,127.50001,-136.5,-10.5,,,,x,,
569137,1.9224315,1.8727857,0.9654028,-1.272874,6.74547,-7.85066,132.3,-141.3,-12.3,,,,x,,
569157,0.6681257,-0.001196286,1.2232023,-0.46494198,6.501566,-8.666214,132.3,-138.90001,-9.3,,,,x,,
569179,-0.70939755,0.2829216,0.91695315,2.2256238,7.614378,-6.0290017,132.3,-134.1,-17.7,,,,x,,
569201,-0.5347398,5.062084,0.47073853,3.589962,5.724122,-3.2850819,139.5,-134.1,-5.1000004,,,,x,,
569221,-2.2454288,5.306126,0.48509395,2.621968,5.9680257,-5.8613176,156.3,-124.50001,-12.3,,,,x,,
569241,-4.6661134,6.6878366,-0.8852516,4.283564,4.38265,-5.686012,151.5,-138.90001,-8.1,,,,x,,
569261,-3.9890156,8.536696,-1.1675751,2.507638,1.1128119,-5.3354,149.1,-129.3,-9.900001,,,,x,,
569301,-5.7003026,9.150392,-3.1480265,3.2469718,-0.510674,-2.560992,151.5,-119.700005,-7.5000005,,,,x,,
569321,-5.0770373,10.25875,-3.380106,2.423796,-3.376546,-0.396344,165.90001,-117.3,-10.5,,,,x,,
569341,-6.2188926,11.647638,-4.8383784,1.3719599,-5.586926,1.089946,149.1,-122.100006,-6.3,,,,x,,
569361,-6.208126,12.683023,-5.358165,1.6387299,-5.846074,1.234764,163.5,-131.70001,-4.5,,,,x,,
569383,-5.6835546,14.046789,-5.617161,0.053354,-10.89946,1.310984,168.3,-119.700005,-6.9,,,,x,,
569403,-6.015524,13.000637,-4.8963985,-1.532022,-11.059522,0.030488,173.1,-114.9,-3.9,,,,x,,
569425,-6.790717,12.16563,-5.9299893,0.137196,-9.977198,1.585376,165.90001,-124.50001,-8.700001,,,,x,,
569445,-4.4741096,15.8149,-5.6291237,-0.23628199,-11.920808,6.4329677,168.3,-126.9,-10.5,,,,x,,
569466,-4.6188602,14.649717,-4.599121,-1.768304,-11.036655,2.2256238,158.70001,-119.700005,-5.1000004,,,,x,,
569487,-5.751145,11.783417,-6.0238976,-0.731712,-8.490908,2.118916,163.5,-124.50001,-8.1,,,,x,,
569507,-3.576895,14.445751,-6.016122,-0.20579399,-11.006167,7.4085836,175.5,-117.3,-17.7,,,,x,,
569527,-2.8609178,16.0404,-5.4365215,-2.042696,-8.986338,5.251558,163.5,-136.5,-16.5,,,,x,,
569547,-5.218797,13.72798,-8.14252,-0.67073596,-4.146368,2.865872,153.90001,-124.50001,-6.3,,,,x,,
569568,-2.8411791,14.77772,-9.179102,0.67835796,-9.634208,6.318638,153.90001,-134.1,-11.1,,,,x,,
569589,-2.255597,16.542841,-5.9060636,-1.8673899,-12.515324,6.0747337,161.1,-134.1,-18.300001,,,,x,,
569609,-2.987724,15.914192,-8.181997,-1.8521459,-4.298808,3.635694,153.90001,-126.9,-17.1,,,,x,,
569629,-2.5863702,14.681419,-10.546457,0.144818,-3.96344,4.070148,137.1,-146.1,-12.3,,,,x,,
569649,-1.9601145,15.423715,-9.917211,-0.617382,-11.112876,6.13571,153.90001,-146.1,-24.300001,,,,x,,
569669,-1.154416,15.993745,-8.167044,-1.432936,-10.647934,5.617414,141.90001,-141.3,-14.700001,,,,x,,
569711,-0.48629025,13.316457,-8.64197,-1.3567159,-5.25918,6.5091877,129.90001,-146.1,-20.7,,,,x,,
569731,-0.025122005,13.311073,-7.525835,-1.150922,-4.23021,6.74547,132.3,-146.1,-17.7,,,,x,,
569754,0.21892032,12.13991,-7.0718446,-1.33385,-1.6006199,5.746988,110.700005,-146.1,-21.900002,,,,x,,
569774,0.061010584,10.966353,-6.9378605,-1.577754,0.144818,5.990892,117.9,-158.1,-21.900002,,,,x,,
569795,0.44322395,10.591317,-6.4545608,-1.760682,1.1356779,7.103704,108.3,-153.3,-21.900002,,,,x,,
569815,0.5431138,9.922594,-5.693125,-1.745438,1.425314,5.838452,103.50001,-150.90001,-21.300001,,,,x,,
569835,0.5347398,8.181399,-5.2768173,-0.23628199,1.6539739,3.3003259,93.9,-160.5,-19.5,,,,x,,
569855,1.4289635,7.236932,-4.3664436,0.632626,0.777444,2.873494,103.50001,-158.1,-23.1,,,,x,,
569875,1.5934529,6.6704903,-3.602017,-0.33536798,2.47715,2.301844,86.700005,-167.70001,-18.900002,,,,x,,
569899,1.3793176,5.6913304,-3.299955,-0.23628199,3.452766,1.21952,96.3,-170.1,-18.300001,,,,x,,
569921,1.2824185,4.7085814,-2.2274845,-0.20579399,3.8186219,-0.030488,98.700005,-158.1,-24.900002,,,,x,,
569941,1.3565882,4.096681,-1.4744225,-0.083841994,4.4360037,-1.21952,96.3,-150.90001,-18.300001,,,,x,,
569961,1.0940034,3.6708033,-1.0784518,0.068598,5.061008,-1.692084,91.5,-167.70001,-23.1,,,,x,,
570021,1.3111295,3.4405184,0.13577846,-0.579272,6.0976,-1.6006199,93.9,-167.70001,-21.900002,,,,x,,
570084,1.3159145,3.7874413,0.5335435,-1.1356779,7.705842,-0.731712,101.100006,-167.70001,-14.700001,,,,x,,
570104,1.9648997,5.0686636,0.37683007,-0.487808,8.262248,0.632626,91.5,-160.5,-25.500002,,,,x,,
570124,1.6867632,6.0938807,0.34273592,-0.26677,8.338468,-0.137196,89.100006,-172.5,-12.3,,,,x,,
570144,1.489376,6.628022,-0.3786245,0.487808,7.8887696,-1.074702,89.100006,-162.90001,-12.900001,,,,x,,
570164,1.4158044,7.0269837,-0.60173184,1.3567159,5.9680257,-1.951232,89.100006,-158.1,-11.700001,,,,x,,
570208,0.631639,9.058277,-1.8823559,1.33385,3.574718,-0.182928,86.700005,-158.1,-23.7,,,,x,,
570228,0.39417621,9.510473,-2.271747,0.94512796,2.7439198,-0.03811,96.3,-160.5,-14.700001,,,,x,,
570248,0.28112718,10.261741,-3.049931,0.442076,2.606724,0.083841994,89.100006,-162.90001,-20.1,,,,x,,
570268,0.15790975,10.2527685,-3.4829865,0.23628199,1.432936,-0.739334,108.3,-153.3,-14.700001,,,,x,,
570288,0.24583676,9.304114,-3.2933753,0.030488,0.17530599,-1.06708,91.5,-165.3,-13.500001,,,,x,,
570308,0.631639,9.346582,-3.1115398,-0.16768399,-0.480186,-0.45731997,101.100006,-160.5,-15.3,,,,,,
570328,0.7835673,9.49552,-3.061894,-0.373478,-0.632626,-0.26677,93.9,-170.1,-14.1,,,,,,
570351,0.9366919,9.417761,-3.0277996,-0.579272,-0.92988396,-0.365856,101.100006,-153.3,-11.700001,,,,,,
570371,0.8039042,8.939247,-2.9314988,-0.853664,-1.1128119,-0.46494198,89.100006,-162.90001,-20.1,,,,,,
570454,0.78655803,8.7412615,-2.481097,-0.57164997,-1.013726,0.160062,96.3,-155.70001,-12.3,,,,,,
570474,0.99710435,9.372302,-2.8465624,-0.55640596,-0.182928,0.083841994,84.3,-155.70001,-21.300001,,,,,,
570494,0.6890607,8.527724,-2.6085014,-0.49543,-0.35061198,-0.396344,110.700005,-160.5,-19.5,,,,,,
570514,0.8433816,8.670082,-2.610296,-0.015244,-0.35061198,0.45731997,86.700005,-162.90001,-18.300001,,,,,,
570534,1.0808444,9.158765,-2.4164977,0.3811,-0.41921,0.884152,89.100006,-174.90001,-16.5,,,,,,
570554,0.9677953,9.620531,-2.4631526,0.373478,-0.426832,0.70122397,103.50001,-162.90001,-13.500001,,,,,,
570574,0.6310408,8.791506,-2.4816952,0.26677,-0.785066,-0.121952,98.700005,-160.5,-14.1,,,,,,
570594,0.8481667,8.6437645,-2.3417296,0.67835796,-1.3719599,0.182928,98.700005,-160.5,-17.7,,,,,,
570657,1.2333708,8.318375,-3.1522136,0.259148,-0.92988396,0.144818,93.9,-158.1,-18.900002,,,,,,
570687,1.7429886,8.947022,-3.313114,0.434454,-0.731712,0.56402797,96.3,-158.1,-17.1,,,,,,
570707,1.9601145,9.008033,-3.6307278,-0.045732,-0.19055,0.53354,81.9,-165.3,-19.5,,,,,,
570747,2.6360161,8.811244,-4.3317513,-0.396344,0.884152,-0.297258,93.9,-165.3,-11.1,,,,x,,
570771,3.1390543,8.768776,-4.601514,-0.15244,1.158544,-0.289636,93.9,-162.90001,-15.900001,,,,x,,
570791,3.8388815,8.759804,-4.334144,0.106708,1.3719599,-0.518296,86.700005,-158.1,-11.700001,,,,x,,
570812,4.0464373,8.605483,-4.200758,0.07622,1.8292799,-0.91463995,96.3,-160.5,-9.3,,,,x,,
570832,4.054213,7.757316,-3.8269188,0.19055,2.7972739,-1.8445239,98.700005,-158.1,-20.1,,,,x,,
570852,4.268348,6.828998,-3.3693395,0.640248,3.597584,-2.309466,93.9,-158.1,-18.300001,,,,x,,
570872,4.320387,6.3564653,-2.5445,0.80030996,4.245454,-2.964958,96.3,-167.70001,-9.3,,,,x,,
570892,3.9902117,5.5035133,-1.8763745,0.87653,5.0838737,-4.489358,98.700005,-150.90001,-11.1,,,,x,,
570912,3.8789573,4.5219607,-1.2752408,1.48629,5.320156,-6.17382,103.50001,-153.3,-12.3,,,,x,,
570932,3.8873312,3.2778234,-0.016748004,1.310984,4.778994,-7.256144,98.700005,-155.70001,-6.9,,,,x,,
570954,2.9655929,2.4966488,0.9187476,1.3567159,8.178406,-7.804928,115.50001,-150.90001,-14.1,,,,x,,
570975,2.6342216,3.0379682,0.5221788,1.989342,10.129638,-7.5000477,115.50001,-148.5,-3.9,,,,x,,
570995,2.0821357,3.5667264,0.0807493,2.55337,10.74702,-7.92688,117.9,-148.5,-10.5,,,,x,,
571015,0.9091773,3.276029,0.19200389,2.576236,9.37506,-8.506152,134.70001,-150.90001,-8.1,,,,x,,
571037,-0.43245736,2.6043146,0.3798208,2.545748,8.30798,-9.359816,144.3,-148.5,-11.1,,,,x,,
571079,-3.602017,4.9586053,-1.338644,5.114362,4.504602,-6.3567476,132.3,-134.1,-5.7000003,,,,x,,
571099,-3.2909827,7.070648,-0.82902616,2.926848,0.7622,-5.4573517,158.70001,-131.70001,3.9,,,,x,,
571119,-4.2653575,7.125079,-1.0048802,2.004586,1.036592,-5.350644,149.1,-136.5,-2.7,,,,x,,
571161,-5.879147,7.793205,-3.1013713,1.56251,-1.8673899,-3.6738038,163.5,-122.100006,0.90000004,,,,x,,
571181,-4.9352775,10.070933,-3.6385038,2.027452,-3.7805119,-0.49543,175.5,-119.700005,5.1000004,,,,x,,
571201,-4.195973,12.848709,-3.2873938,-0.221038,-5.708878,0.46494198,165.90001,-105.3,-9.3,,,,x,,
571223,-5.258275,12.157854,-3.9860249,-1.570132,-5.853696,-3.567096,175.5,-119.700005,-4.5,,,,x,,
571243,-6.8325872,11.513654,-4.3790045,-1.516778,-7.370474,-1.707328,163.5,-114.9,-9.900001,,,,x,,
571284,-5.886325,12.458122,-4.002773,-1.554888,-9.1768875,1.326228,180.3,-119.700005,-0.90000004,,,,x,,
571304,-6.7446604,11.837848,-4.961596,-0.663114,-6.5549197,2.32471,185.1,-110.100006,-5.7000003,,,,x,,
571324,-4.9962883,14.530687,-6.3648396,0.17530599,-7.0046177,6.4939437,175.5,-119.700005,-9.900001,,,,x,,
571344,-4.45138,15.393209,-5.1117296,-1.493912,-9.1463995,4.596066,163.5,-122.100006,-11.1,,,,x,,
571364,-6.5951242,13.474367,-6.941449,-1.951232,-4.672286,2.97258,163.5,-131.70001,-6.9,,,,x,,
571384,-4.6804686,15.455417,-9.009828,0.0,-7.301876,6.5854077,163.5,-124.50001,-10.5,,,,x,,
571407,-4.3490977,16.109186,-7.30512,-2.32471,-12.858314,4.718018,175.5,-138.90001,-18.900002,,,,x,,
571428,-4.7582273,13.602967,-8.175418,-1.21952,-9.405548,3.330814,165.90001,-122.100006,-15.3,,,,x,,
571448,-3.3878818,15.751497,-8.341104,-0.754578,-12.622032,6.4024796,163.5,-131.70001,-15.900001,,,,x,,
571468,-2.970378,15.617513,-7.029376,-2.164648,-11.493976,4.771372,149.1,-138.90001,-12.900001,,,,x,,
571488,-3.686355,14.472069,-8.718532,-0.17530599,-7.118948,3.7195358,146.70001,-136.5,-15.3,,,,x,,
571508,-2.723943,14.411656,-10.141514,1.082324,-8.361334,5.807964,151.5,-143.70001,-18.900002,,,,x,,
571531,-0.799119,16.179169,-8.253177,-1.509156,-11.50922,6.844556,149.1,-143.70001,-20.7,,,,x,,
571552,-1.0240208,13.97262,-8.2454,-0.846042,-7.309498,4.9161897,146.70001,-136.5,-15.900001,,,,x,,
571572,-0.7410991,13.401393,-8.720924,-1.166166,-5.282046,6.638762,137.1,-148.5,-24.300001,,,,x,,
571592,-0.34752107,13.339785,-7.811747,-1.775926,-4.550334,7.0808377,127.50001,-143.70001,-27.300001,,,,x,,
571653,0.29309005,10.934053,-7.1645565,-0.69360197,-0.160062,4.64942,110.700005,-153.3,-26.7,,,,x,,
571713,1.1885101,8.634193,-4.8521357,0.007622,2.141782,3.7881339,93.9,-153.3,-15.900001,,,,x,,
571733,0.9271216,7.150201,-4.1684585,0.388722,2.2865999,1.745438,98.700005,-158.1,-20.1,,,,x,,
571754,0.83141875,5.827707,-3.3998446,0.80030996,2.7667859,1.6387299,96.3,-174.90001,-18.300001,,,,x,,
571774,0.5371324,4.7540402,-2.8997972,0.121952,4.03966,1.730194,89.100006,-155.70001,-19.5,,,,x,,
571794,0.61309654,4.023708,-2.32558,0.137196,4.634176,2.2713559,89.100006,-167.70001,-17.1,,,,x,,
571814,0.95044917,3.84905,-1.6562579,0.030488,5.266802,2.7820299,98.700005,-170.1,-22.5,,,,x,,
571834,1.0623019,3.9124532,-1.2746427,-0.129574,6.17382,2.454284,96.3,-162.90001,-22.5,,,,x,,
571854,1.1687714,3.4070225,-1.0144504,-0.19055,6.654006,1.440558,89.100006,-167.70001,-26.7,,,,x,,
571876,1.409823,3.262272,-0.4731311,0.03811,6.28815,1.089946,84.3,-165.3,-15.900001,,,,x,,
571896,1.6861651,3.376517,-0.2075556,-0.358234,7.248522,0.47256398,79.5,-167.70001,-19.5,,,,x,,
571920,2.1664739,3.0062666,-0.18362989,0.030488,7.416206,-0.388722,91.5,-165.3,-20.1,,,,x,,
571940,2.6342216,3.8735738,0.07716044,0.396344,6.9588857,0.312502,69.9,-172.5,-21.300001,,,,x,,
571960,2.9135544,5.3330426,0.42527965,-0.022866,6.9436417,-0.060976,84.3,-172.5,-17.7,,,,x,,
571982,2.7341115,6.5538526,0.3295768,-0.46494198,7.3933396,-1.958854,77.100006,-162.90001,-14.1,,,,x,,
572002,1.991816,5.339024,-0.2045649,-0.80030996,7.370474,-4.984788,86.700005,-162.90001,-18.900002,,,,x,,
572022,1.7818679,5.93298,-0.1573116,0.320124,5.320156,-3.643316,84.3,-150.90001,-17.7,,,,x,,
572042,0.96420646,7.2482967,-1.0246189,1.074702,4.824726,-2.500016,91.5,-160.5,-15.900001,,,,x,,
572062,0.9755712,8.165848,-1.2088469,0.792688,2.93447,-1.036592,93.9,-158.1,-15.900001,,,,x,,
572082,0.7500713,9.238318,-1.4271691,0.33536798,2.881116,0.121952,98.700005,-165.3,-18.900002,,,,x,,
572102,0.7620341,10.157664,-2.0468452,-0.19055,2.82014,0.320124,91.5,-165.3,-9.3,,,,x,,
572122,0.7129864,9.959081,-1.991218,-0.46494198,2.2865999,-0.594516,79.5,-153.3,-18.300001,,,,x,,
572143,0.7434917,9.631298,-2.1060615,-0.632626,1.8673899,-0.777444,89.100006,-162.90001,-15.3,,,,x,,
572164,0.8834572,9.476977,-1.9314036,-0.434454,0.907018,-0.72409,81.9,-162.90001,-22.5,,,,x,,
572184,1.0957979,9.446472,-1.823738,-0.099086,0.11432999,-0.55640596,86.700005,-165.3,-18.900002,,,,,,
572204,1.1831268,9.387854,-1.9038891,-0.099086,-0.434454,-0.907018,91.5,-165.3,-20.7,,,,,,
572224,1.2441374,9.232337,-1.8339063,0.137196,-1.089946,-1.097568,89.100006,-160.5,-15.3,,,,,,
572246,1.2070525,9.201233,-1.9487498,0.23628199,-0.907018,-1.051836,96.3,-146.1,-16.5,,,,,,
572266,0.91515875,9.168934,-2.2789247,0.182928,-0.625004,-1.02897,91.5,-162.90001,-9.3,,,,,,
572286,0.8391946,8.765187,-2.476312,0.449698,-0.57164997,-0.830798,91.5,-162.90001,-11.700001,,,,,,
572306,0.619078,8.582753,-2.7161672,0.45731997,-0.602138,-0.182928,101.100006,-158.1,-14.700001,,,,,,
572326,0.5496934,8.67068,-2.941069,0.41158798,-0.739334,0.35061198,84.3,-155.70001,-16.5,,,,,,
572350,1.0012913,9.3998165,-3.1121378,0.503052,-0.998482,0.518296,98.700005,-153.3,-11.700001,,,,,,
572373,1.0168431,9.30232,-3.283805,0.312502,-0.983238,0.518296,91.5,-155.70001,-19.5,,,,,,
572393,0.958225,8.776552,-3.1946816,0.213416,-1.33385,0.510674,91.5,-167.70001,-15.900001,,,,,,
572413,1.108957,8.951808,-3.100773,0.22865999,-1.440558,0.739334,96.3,-162.90001,-14.1,,,,,,
572433,1.3757288,9.207813,-3.1121378,0.060976,-1.18141,0.442076,91.5,-167.70001,-24.300001,,,,,,
572493,1.3464198,8.564809,-2.9673872,-0.07622,-0.72409,0.03811,84.3,-153.3,-17.1,,,,,,
572513,1.6771929,9.1731205,-2.9422653,-0.007622,-0.26677,0.022866,98.700005,-174.90001,-17.7,,,,,,
572533,1.6718096,8.831581,-2.8106737,-0.289636,-0.221038,-0.510674,89.100006,-162.90001,-10.5,,,,,,
572553,1.6801836,8.678456,-2.7036061,-0.23628199,-0.23628199,-0.57164997,91.5,-158.1,-15.900001,,,,,,
572576,1.7286332,8.250784,-2.5887628,0.015244,-0.213416,-0.67073596,81.9,-158.1,-17.7,,,,,,
572597,1.7722976,8.163455,-2.5145931,0.083841994,-0.365856,-0.396344,96.3,-160.5,-17.7,,,,,,
572618,1.8404859,8.022293,-2.639605,-0.106708,-0.23628199,-0.358234,96.3,-165.3,-18.300001,,,,x,,
572638,2.1688664,8.584548,-3.2150185,0.030488,0.34298998,-0.480186,96.3,-162.90001,-20.7,,,,x,,
572660,1.8530469,8.647353,-4.2300673,0.70122397,1.5929979,-1.67684,91.5,-158.1,-15.900001,,,,x,,
572682,2.0976875,8.363235,-5.4155865,2.378064,1.310984,-1.577754,93.9,-170.1,-15.900001,,,,x,,
572722,3.4859772,9.235926,-5.383885,1.021348,0.861286,-0.80793196,98.700005,-153.3,-15.900001,,,,x,,
572805,4.363453,6.2894735,-2.0241158,0.106708,7.256144,-5.175338,101.100006,-150.90001,-12.900001,,,,x,,
572869,2.8986008,3.217411,-0.07058087,0.617382,11.448244,-8.254626,120.3,-155.70001,-9.900001,,,,x,,
572907,1.6407062,2.4625547,-0.45578495,1.699706,11.722635,-8.551884,129.90001,-150.90001,-5.1000004,,,,x,,
572927,0.4372425,1.8602246,-0.24882747,1.8521459,9.725672,-8.68908,125.100006,-148.5,-5.1000004,,,,x,,
572969,-0.2697625,2.752056,0.61130214,2.2256238,5.7165,-7.103704,122.700005,-107.700005,-3.3000002,,,,x,,
572989,-1.5892658,3.656448,0.26079035,2.652456,5.64028,-7.667732,144.3,-138.90001,-1.5,,,,x,,
573009,-2.5391169,5.5944314,-0.30445477,2.93447,4.771372,-7.972612,149.1,-126.9,-0.90000004,,,,x,,
573029,-3.116325,6.8535223,-0.74947315,2.599102,4.253076,-7.8887696,149.1,-119.700005,1.5,,,,x,,
573050,-5.2391343,8.019901,-2.4123106,3.6890478,3.7195358,-7.0960817,153.90001,-117.3,-4.5,,,,x,,
573070,-5.484373,8.781935,-2.9003952,2.865872,-0.7622,-5.556438,168.3,-112.50001,-2.1000001,,,,x,,
573090,-5.447288,8.4499655,-1.7896438,1.272874,-3.46801,-4.4360037,158.70001,-114.9,-3.9,,,,x,,
573111,-6.4707108,9.737169,-3.5170808,1.166166,-3.079288,-1.730194,173.1,-110.100006,0.90000004,,,,x,,
573131,-6.9468327,11.583637,-4.0811296,0.68597996,-5.129606,-1.158544,158.70001,-110.100006,-3.3000002,,,,x,,
573151,-6.444392,11.508271,-4.0578017,1.097568,-7.865904,-1.166166,165.90001,-102.9,-0.3,,,,x,,
573171,-7.6370893,11.684125,-5.4508767,0.30488,-6.8369336,0.7622,177.90001,-105.3,-6.3,,,,x,,
573191,-7.150201,12.037627,-5.937765,0.746956,-7.66011,2.2942219,173.1,-102.9,-5.7000003,,,,x,,
573211,-5.8211274,13.718409,-5.768491,0.510674,-10.350676,5.14485,173.1,-124.50001,-3.3000002,,,,x,,
573231,-5.593235,13.969629,-5.329454,-0.480186,-10.411652,3.971062,175.5,-102.9,-4.5,,,,x,,
573255,-4.902978,13.785999,-5.523252,-0.274392,-11.036655,5.10674,177.90001,-117.3,-6.3,,,,x,,
573275,-5.283995,14.392516,-5.6751804,-1.440558,-9.931466,4.786616,175.5,-112.50001,-6.3,,,,x,,
573295,-6.4402056,13.3086815,-7.1926694,-0.785066,-7.721086,4.054904,165.90001,-114.9,-6.3,,,,x,,
573315,-5.212218,14.2698965,-7.5114794,-0.586894,-11.516842,6.204308,168.3,-131.70001,-17.7,,,,x,,
573335,-4.11642,14.628184,-5.8259125,-2.43904,-12.7058735,6.318638,165.90001,-122.100006,-7.5000005,,,,x,,
573355,-5.0357656,13.554518,-7.200445,-2.118916,-9.367437,5.94516,173.1,-129.3,-16.5,,,,x,,
573379,-4.685254,13.16094,-7.906254,-0.45731997,-10.983302,8.033587,163.5,-126.9,-13.500001,,,,x,,
573399,-3.380106,14.853684,-5.977841,-1.25763,-13.018375,9.79427,151.5,-141.3,-16.5,,,,x,,
573419,-2.8005054,14.614428,-7.3774953,-1.71495,-6.166198,8.003099,149.1,-141.3,-21.300001,,,,x,,
573439,-2.1473334,13.56349,-9.977623,2.637212,-2.301844,8.315601,132.3,-141.3,-15.3,,,,x,,
573459,0.02033686,15.019968,-10.344285,2.40093,-9.489389,11.39489,134.70001,-136.5,-14.1,,,,x,,
573503,-0.91994387,12.263725,-9.322059,-0.198172,-0.33536798,1.432936,129.90001,-148.5,-18.300001,,,,x,,
573523,0.4593738,12.5095625,-10.6936,0.426832,-3.2241058,6.768336,110.700005,-155.70001,-20.1,,,,x,,
573546,1.16279,14.126941,-7.505498,-2.7667859,-7.073216,8.19365,110.700005,-155.70001,-24.900002,,,,x,,
573566,0.8673073,12.58433,-6.9689636,-2.461906,-0.739334,5.724122,113.100006,-160.5,-12.900001,,,,x,,
573627,0.81467074,8.948817,-5.714658,-3.064044,-1.768304,3.2241058,101.100006,-160.5,-17.7,,,,x,,
573647,1.0006932,8.044425,-5.230162,-3.170752,-1.051836,3.323192,96.3,-172.5,-21.300001,,,,x,,
573687,1.3864954,5.8330903,-3.5565581,-2.6981878,-1.013726,0.87653,91.5,-162.90001,-26.7,,,,x,,
573711,1.6789873,4.596729,-3.0636883,-2.370442,3.2241058,4.550334,96.3,-158.1,-25.500002,,,,x,,
573731,1.7681106,5.4580545,-3.1139324,-1.8369019,4.359784,5.4421077,84.3,-172.5,-25.500002,,,,x,,
573751,1.5503865,4.1732435,-2.4278624,-0.983238,4.283564,3.635694,65.100006,-174.90001,-28.500002,,,,x,,
573811,1.7513626,2.7969165,-1.0240208,0.708846,6.890288,0.442076,62.7,-167.70001,-22.5,,,,x,,
573852,1.7537552,2.7759814,-0.24464047,1.455802,7.3933396,-0.960372,72.3,-179.70001,-27.900002,,,,x,,
573872,1.7740921,2.802898,-0.25301448,1.730194,7.705842,-2.065562,67.5,-162.90001,-15.900001,,,,x,,
573892,2.1730535,3.2401404,-0.2087519,1.9131219,7.759196,-1.798792,69.9,-160.5,-17.1,,,,x,,
573912,2.1527166,4.5040164,-0.4246815,2.103672,7.957368,-1.570132,50.7,-158.1,-15.3,,,,x,,
573935,2.3704405,5.8683805,-0.59694666,1.928366,7.27901,-1.814036,81.9,-170.1,-21.900002,,,,x,,
573955,2.3794127,6.9001775,-0.86371845,1.8902559,6.8598,-2.507638,79.5,-170.1,-17.7,,,,x,,
573975,1.6143879,7.4953294,-1.155014,1.806414,5.25918,-3.490876,57.9,-167.70001,-15.900001,,,,x,,
573999,2.0516305,8.844142,-0.8924293,1.532022,2.2103798,-2.51526,69.9,-170.1,-20.1,,,,x,,
574019,2.3112245,9.238318,-0.34034336,0.068598,2.080806,-1.722572,65.100006,-167.70001,-23.1,,,,x,,
574039,1.6999223,9.633093,-1.3918787,0.213416,3.643316,-1.242386,72.3,-167.70001,-19.5,,,,x,,
574119,0.6896588,9.639672,-2.548089,-0.03811,-0.015244,-2.2484899,79.5,-150.90001,-12.900001,,,,,,
574167,0.4719348,8.546267,-2.5014338,-0.68597996,-0.07622,-1.33385,96.3,-165.3,-9.900001,,,,,,
574188,0.5317491,8.755018,-2.5295467,-0.373478,-0.525918,-0.45731997,86.700005,-162.90001,-19.5,,,,,,
574228,1.1280977,9.210205,-2.2819154,0.007622,-0.434454,0.3811,89.100006,-165.3,-21.900002,,,,,,
574272,1.1370698,9.209607,-2.7526538,0.007622,0.221038,-0.297258,91.5,-150.90001,-14.700001,,,,,,
574343,1.0599093,8.8919935,-2.9177413,0.198172,-1.036592,0.068598,86.700005,-160.5,-12.3,,,,,,
574363,1.1915008,9.069044,-2.8621142,-0.030488,-1.006104,0.182928,96.3,-158.1,-17.1,,,,,,
574405,1.1263032,8.875844,-2.8680956,-0.083841994,-0.60976,-0.198172,89.100006,-158.1,-12.900001,,,,,,
574425,1.2399504,9.175513,-2.8836472,0.182928,-0.487808,0.083841994,84.3,-162.90001,-15.900001,,,,,,
574445,1.6981279,9.219177,-2.8764696,-0.030488,-0.106708,-0.182928,91.5,-162.90001,-19.5,,,,,,
574466,2.112043,9.846031,-2.6096978,0.26677,-0.144818,-0.22865999,101.100006,-174.90001,-13.500001,,,,,,
574487,2.0893135,8.991883,-2.4918637,-0.579272,0.541162,-1.471046,96.3,-155.70001,-8.700001,,,,,,
574527,2.0767524,8.5360985,-3.0230145,0.274392,0.708846,-2.339954,105.9,-160.5,-17.1,,,,,,
574547,2.301654,8.257363,-3.0965862,0.251526,0.045732,-1.6463519,98.700005,-160.5,-15.900001,,,,,,
574567,2.6001275,8.607876,-2.8692918,0.11432999,-0.121952,-1.432936,93.9,-150.90001,-14.1,,,,,,
574587,2.443414,7.4444876,-2.606109,-0.34298998,0.35061198,-1.814036,103.50001,-158.1,-15.3,,,,,,
574648,2.1808293,8.728701,-3.4267612,1.158544,1.021348,-0.899396,105.9,-162.90001,-10.5,,,,,,
574688,1.3236904,8.987098,-3.451883,1.699706,0.28201398,-0.60976,98.700005,-141.3,-14.1,,,,,,
574824,-1.6837724,9.987791,-3.8077781,-0.34298998,0.579272,0.49543,105.9,-155.70001,-16.5,,,,,,
574844,-1.9768625,9.100745,-3.999782,0.091464,-0.289636,-0.586894,108.3,-158.1,-17.7,,,,,,
574884,-1.7758865,7.998368,-3.5583525,0.16768399,-1.432936,-0.60976,101.100006,-155.70001,-12.900001,,,,,,
574904,-0.70640683,8.363833,-3.1725502,0.198172,-1.3414719,1.089946,103.50001,-155.70001,-15.3,,,,,,
574924,0.2129389,10.096055,-2.8890305,-0.602138,-0.67835796,1.3567159,110.700005,-158.1,-9.3,,,,,,
574944,0.59515226,9.908836,-3.1408486,-1.013726,0.16768399,0.121952,103.50001,-162.90001,-16.5,,,,,,
574966,1.0168431,9.8532095,-3.1025677,-0.67835796,-0.144818,-0.243904,108.3,-148.5,-16.5,,,,,,
574986,1.2477262,9.198841,-2.8537402,-0.72409,-0.312502,-0.40396598,98.700005,-158.1,-20.7,,,,,,
575048,1.3374476,9.094166,-2.9428635,-0.975616,-0.663114,-0.373478,113.100006,-155.70001,-15.3,,,,,,
575068,1.1233125,8.635988,-3.1282878,-1.33385,-0.396344,-1.074702,113.100006,-160.5,-12.3,,,,,,
575089,0.8667092,7.981022,-3.438724,-0.93750596,-0.312502,-1.3948259,108.3,-153.3,-14.1,,,,,,
575109,1.0054784,8.153287,-4.038063,-0.19055,-0.129574,-0.68597996,103.50001,-153.3,-16.5,,,,,,
575132,1.305148,8.322561,-4.4747076,-0.182928,0.251526,-0.49543,101.100006,-150.90001,-16.5,,,,,,
575152,1.5043296,7.7417645,-5.1404405,0.72409,1.989342,-0.442076,108.3,-146.1,-16.5,,,,x,,
575174,2.5588555,8.123978,-5.965878,2.2332458,2.7591639,0.632626,101.100006,-155.70001,-18.900002,,,,x,,
575194,3.3513951,8.865675,-5.05371,2.027452,1.768304,1.1432999,110.700005,-162.90001,-15.900001,,,,x,,
575234,3.7551415,7.3081107,-4.0506244,1.958854,5.312534,-2.43904,105.9,-158.1,-14.1,,,,x,,
575254,3.8556297,6.588545,-2.9907148,2.500016,5.5793037,-3.6890478,101.100006,-155.70001,-12.900001,,,,x,,
575274,3.824526,5.5118876,-1.568929,1.425314,6.150954,-5.061008,115.50001,-155.70001,-2.7,,,,x,,
575294,3.6151762,4.3245735,-0.70521057,0.46494198,7.9345016,-5.83083,101.100006,-158.1,-7.5000005,,,,x,,
575314,3.770095,4.6499634,-0.1363766,-0.07622,9.062558,-6.0594897,110.700005,-141.3,-5.1000004,,,,x,,
575334,2.773589,3.338834,0.0723753,-0.81555396,9.94671,-8.048832,120.3,-148.5,0.3,,,,x,,
575356,1.9170482,2.0061715,0.08792701,-0.434454,9.291218,-8.7653,122.700005,-150.90001,-5.7000003,,,,x,,
575376,1.7722976,1.9086742,0.7620341,0.259148,7.477182,-7.644866,125.100006,-148.5,-2.7,,,,x,,
575396,1.4259728,2.159296,1.0664889,0.55640596,6.6158957,-7.256144,139.5,-146.1,1.5,,,,x,,
575416,0.8350076,2.234064,1.6323322,0.792688,6.082356,-7.492426,134.70001,-136.5,-5.7000003,,,,x,,
575436,-0.33854893,2.799309,0.4982531,2.7820299,6.74547,-7.8277936,129.90001,-143.70001,-2.1000001,,,,x,,
575460,-1.9613107,5.3162947,0.27454764,3.117398,3.437522,-6.844556,158.70001,-129.3,1.5,,,,x,,
575480,-2.6736991,6.5616283,0.36068022,1.9054999,3.567096,-6.9588857,156.3,-122.100006,-2.1000001,,,,x,,
575501,-5.93298,6.108236,-2.1365666,3.155508,5.0991178,-8.163162,158.70001,-129.3,2.7,,,,x,,
575521,-5.5148783,8.937452,-3.6869533,2.995446,1.928366,-2.888738,165.90001,-117.3,-2.1000001,,,,x,,
575543,-5.013634,12.155461,-2.497247,0.80030996,-2.317088,-2.103672,158.70001,-112.50001,-0.90000004,,,,x,,
575563,-6.8343816,10.5123625,-3.740188,0.68597996,-1.920744,-4.9771657,163.5,-114.9,-3.9,,,,x,,
575587,-6.7243233,10.03983,-4.95382,1.6006199,-3.46801,-3.1936178,175.5,-114.9,-2.7,,,,x,,
575607,-6.413289,10.914913,-5.529832,1.951232,-6.4939437,-0.320124,173.1,-110.100006,2.7,,,,x,,
575627,-7.007843,13.198623,-6.430037,1.6387299,-7.027484,2.995446,170.70001,-102.9,-8.1,,,,x,,
575647,-4.8102655,16.201899,-6.4808793,-0.083841994,-10.335432,3.986306,168.3,-95.700005,-5.7000003,,,,x,,
575669,-7.745353,11.285164,-5.902475,-0.67073596,-8.42231,0.07622,173.1,-117.3,-3.9,,,,x,,
575689,-6.233846,14.173595,-7.7961955,0.632626,-11.029034,5.586926,180.3,-117.3,-6.9,,,,x,,
575709,-4.7319093,15.63785,-5.506504,-0.868908,-15.160157,5.4268637,177.90001,-114.9,-5.1000004,,,,x,,
575729,-5.5071025,13.905628,-6.437215,-1.577754,-10.846106,4.23021,170.70001,-114.9,-11.1,,,,x,,
575809,-3.6827662,15.602559,-9.290955,-0.160062,-10.868972,7.713464,163.5,-134.1,-18.300001,,,,x,,
575967,-1.5629476,13.1902485,-6.4910474,-0.41921,-4.291186,5.67839,141.90001,-146.1,-27.300001,,,,x,,
575987,-1.8769727,12.518535,-6.605293,-0.853664,-1.417692,5.129606,139.5,-143.70001,-32.100002,,,,x,,
576027,-0.8062967,11.216377,-6.3989334,1.21952,0.94512796,5.4116197,125.100006,-150.90001,-26.1,,,,x,,
576047,-0.58259124,10.020689,-6.2021446,0.94512796,2.652456,5.3811316,125.100006,-155.70001,-24.900002,,,,x,,
576091,0.09749731,7.801579,-4.6667113,1.150922,3.8262439,3.368924,115.50001,-148.5,-17.7,,,,x,,
576112,0.24583676,6.314595,-4.413697,0.967994,5.625036,2.987824,122.700005,-150.90001,-20.1,,,,x,,
576133,0.7123883,6.6208444,-4.3317513,0.70122397,6.28815,4.657042,110.700005,-160.5,-15.3,,,,x,,
576153,0.9139625,6.3899612,-3.5105011,0.274392,6.333882,3.902464,110.700005,-172.5,-23.1,,,,x,,
576173,0.6447981,5.138646,-2.7412891,-0.11432999,6.654006,2.492394,93.9,-160.5,-19.5,,,,x,,
576193,0.8439797,4.292274,-2.2203066,-0.388722,7.324742,2.355198,105.9,-158.1,-20.1,,,,x,,
576217,1.1400605,4.358668,-1.2118376,-0.82317597,7.6524878,2.51526,91.5,-162.90001,-18.300001,,,,x,,
576237,1.3266811,4.384986,-0.71657526,-1.06708,8.178406,1.6234859,101.100006,-165.3,-21.300001,,,,x,,
576257,0.78595984,3.55596,-0.56285256,-0.960372,8.925362,-0.320124,86.700005,-165.3,-17.1,,,,x,,
576297,1.2243986,4.338929,0.078954875,-1.204276,8.582372,-1.3490939,98.700005,-167.70001,-17.1,,,,x,,
576322,1.2812222,4.505213,0.059814297,-1.775926,8.841519,-2.644834,79.5,-174.90001,-17.1,,,,x,,
576343,1.1400605,3.999184,0.08433816,-2.09605,8.292736,-3.574718,89.100006,-172.5,-14.1,,,,x,,
576383,1.83271,6.183004,0.61309654,-1.280496,5.114362,-1.455802,86.700005,-158.1,-18.300001,,,,x,,
576403,2.234064,7.0347595,0.753062,-1.074702,4.580822,-0.327746,93.9,-165.3,-14.700001,,,,x,,
576423,1.8823559,7.7250166,0.31940836,-0.442076,4.253076,-0.320124,77.100006,-165.3,-13.500001,,,,x,,
576443,1.7663162,7.6998944,-0.08194559,0.487808,3.643316,-0.243904,84.3,-155.70001,-17.7,,,,x,,
576507,0.8972145,9.887303,-2.1258001,1.082324,1.737816,-0.861286,86.700005,-150.90001,-17.7,,,,x,,
576563,0.73511773,9.182691,-2.5767999,0.518296,-0.95274997,-1.3490939,98.700005,-170.1,-16.5,,,,x,,
576583,0.56285256,9.024781,-2.761028,0.28201398,-1.532022,-0.87653,89.100006,-165.3,-16.5,,,,x,,
576626,0.75784713,9.340601,-2.8800583,0.045732,-1.966476,0.182928,110.700005,-153.3,-13.500001,,,,x,,
576666,1.1137422,8.906349,-2.8860397,0.297258,-1.440558,0.7622,93.9,-165.3,-12.3,,,,,,
576686,1.158603,8.914722,-2.8854418,0.30488,-1.006104,0.746956,101.100006,-162.90001,-17.1,,,,,,
576706,1.1855193,8.916517,-2.8040943,0.41158798,-0.625004,0.708846,93.9,-165.3,-23.1,,,,,,
576746,0.94985104,8.610867,-2.970378,0.26677,0.129574,0.20579399,98.700005,-167.70001,-15.900001,,,,x,,
576769,0.72853816,8.622231,-3.1342692,0.3811,-0.160062,0.259148,81.9,-158.1,-15.900001,,,,x,,
576789,0.8840553,9.390844,-3.154606,0.26677,-0.80793196,0.449698,101.100006,-160.5,-17.7,,,,x,,
576809,0.94985104,9.31488,-3.0146406,-0.053354,-1.1051899,-0.015244,84.3,-150.90001,-14.1,,,,x,,
576829,1.0431614,9.22157,-2.765215,-0.23628199,-1.074702,-0.16768399,91.5,-160.5,-22.5,,,,x,,
576871,1.0168431,9.088782,-2.589361,-0.480186,-0.35061198,-0.213416,96.3,-155.70001,-12.900001,,,,x,,
576891,0.92054206,9.038538,-2.5624444,-0.541162,-0.03811,-0.182928,98.700005,-158.1,-17.7,,,,x,,
576911,1.0078709,9.055286,-2.4081235,-0.289636,0.0,-0.17530599,91.5,-162.90001,-18.300001,,,,x,,
576931,1.0904146,9.162354,-2.2197087,-0.15244,0.099086,-0.144818,91.5,-165.3,-12.900001,,,,x,,
576951,1.0664889,8.9141245,-2.4045348,-0.106708,0.442076,-0.23628199,93.9,-177.3,-18.900002,,,,x,,
577011,1.1436493,8.854909,-2.9171433,0.46494198,0.41158798,-0.17530599,81.9,-162.90001,-11.700001,,,,x,,
577127,3.8305075,7.647856,-4.1259904,1.326228,0.68597996,0.769822,91.5,-155.70001,-17.1,,,,x,,
577166,5.2032456,7.8464394,-3.7886376,4.237832,0.82317597,0.967994,96.3,-167.70001,-20.7,,,,x,,
577186,5.702097,8.236428,-2.7723927,4.123502,1.509156,-0.731712,98.700005,-150.90001,-12.3,,,,x,,
577226,4.878454,5.449681,-1.3159145,1.996964,5.4573517,-5.914672,101.100006,-160.5,-11.1,,,,x,,
577248,4.1636734,4.422669,-1.0210301,1.150922,7.8582816,-6.9741297,105.9,-160.5,-6.9,,,,x,,
577268,3.1653726,3.3077307,-0.9348975,0.617382,9.1159115,-8.262248,101.100006,-153.3,-11.700001,,,,x,,
577288,2.4667416,2.5660334,-0.46236452,0.160062,9.22262,-8.46042,108.3,-148.5,-13.500001,,,,x,,
577308,2.075556,2.2783265,-0.45757937,0.137196,9.245486,-8.902495,108.3,-153.3,-3.3000002,,,,x,,
577328,1.3547938,1.4666466,-0.25899592,0.708846,8.429932,-9.314084,127.50001,-146.1,-5.7000003,,,,x,,
577348,0.62565756,1.4187951,-0.1309933,1.745438,7.6219997,-8.582372,125.100006,-138.90001,-8.1,,,,x,,
577372,-0.8344094,3.4441073,-0.32239905,3.1859958,5.693634,-7.957368,137.1,-124.50001,-5.7000003,,,,x,,
577392,-1.3290737,4.8509393,0.004187001,2.7210538,3.7500238,-8.506152,129.90001,-131.70001,-1.5,,,,x,,
577412,-2.568426,5.9383636,0.25122005,2.522882,3.978684,-9.618964,139.5,-126.9,-5.1000004,,,,x,,
577472,-5.8594084,9.388453,-2.7394948,1.989342,0.69360197,-4.176856,170.70001,-102.9,-6.9,,,,x,,
577492,-6.4055133,8.750832,-3.2784216,1.935988,-1.1432999,-5.190582,165.90001,-110.100006,2.1000001,,,,x,,
577512,-6.426448,9.149793,-4.4232674,2.606724,-3.041178,-2.073184,177.90001,-98.100006,3.3000002,,,,x,,
577532,-5.1224966,12.478458,-4.9095573,2.027452,-5.807964,1.3567159,187.5,-102.9,-2.1000001,,,,x,,
577572,-6.09089,12.104619,-4.234254,-0.053354,-6.8598,-3.102154,182.70001,-112.50001,-6.3,,,,x,,
577593,-5.364744,12.840933,-4.704993,0.64787,-8.025966,-0.57164997,168.3,-110.100006,-1.5,,,,x,,
577613,-5.115319,14.372777,-4.0775404,0.777444,-7.5152917,0.121952,173.1,-105.3,0.3,,,,x,,
577633,-6.46772,13.715418,-4.521363,-0.297258,-5.739366,-1.089946,182.70001,-114.9,-0.3,,,,x,,
577653,-6.204537,11.319856,-5.3707256,0.297258,-6.36437,1.3414719,180.3,-112.50001,-8.1,,,,x,,
577693,-6.287081,13.1902485,-5.810361,0.07622,-5.75461,4.8857017,168.3,-107.700005,-5.7000003,,,,x,,
577715,-5.857016,13.3027,-7.329644,0.099086,-5.37351,5.5945477,158.70001,-114.9,-10.5,,,,x,,
577735,-4.3903694,14.426012,-6.4856644,-0.243904,-9.664696,6.143332,173.1,-114.9,-9.900001,,,,x,,
577755,-5.9640837,12.408476,-7.5395923,-0.57164997,-4.199722,3.498498,177.90001,-117.3,-8.700001,,,,x,,
577775,-4.253993,12.438383,-11.252864,2.6677,-4.11588,7.66011,182.70001,-110.100006,-6.3,,,,x,,
577795,-3.3107214,15.794563,-8.772365,-1.928366,-14.535153,8.239382,165.90001,-124.50001,-10.5,,,,x,,
577817,-4.358668,14.406274,-9.298731,-1.1051899,-8.346089,4.336918,175.5,-107.700005,-10.5,,,,x,,
577839,-3.2891881,14.587511,-10.435203,-1.326228,-9.79427,5.44973,163.5,-124.50001,-12.3,,,,x,,
577859,-2.3201966,15.09354,-9.584044,-1.1432999,-11.974162,5.701256,158.70001,-136.5,-11.700001,,,,x,,
577879,-2.431451,13.994751,-8.905152,-0.49543,-11.318669,4.984788,163.5,-126.9,-11.1,,,,x,,
577901,-2.1533146,13.458815,-8.360843,-0.358234,-9.359816,6.303394,156.3,-124.50001,-16.5,,,,x,,
577921,-2.05821,13.77942,-8.101249,-0.853664,-6.699738,7.0503497,153.90001,-136.5,-14.700001,,,,x,,
577943,-1.8895336,13.082583,-8.010929,-1.1204339,-4.5884438,7.16468,153.90001,-136.5,-16.5,,,,x,,
577964,-1.6532671,11.83725,-7.894889,-1.509156,-2.507638,7.1113257,146.70001,-136.5,-13.500001,,,,x,,
577985,-0.9654028,11.090767,-7.6215377,-1.310984,-1.75306,7.911636,137.1,-143.70001,-20.1,,,,x,,
578005,-0.52696395,10.802462,-6.6866403,-2.027452,-1.1051899,7.835416,127.50001,-148.5,-15.3,,,,x,,
578025,-0.32538977,9.971044,-6.5377026,-1.8292799,0.754578,6.44059,129.90001,-146.1,-17.1,,,,x,,
578045,0.14654502,9.038538,-5.8845305,-1.1204339,0.160062,5.388754,113.100006,-150.90001,-24.300001,,,,x,,
578068,0.3271842,7.107733,-4.7677975,-1.6387299,2.157026,4.664664,105.9,-148.5,-11.700001,,,,x,,
578108,1.0814425,6.3768024,-3.0900066,-0.449698,2.7439198,3.46801,96.3,-158.1,-21.300001,,,,x,,
578128,1.0515354,5.077636,-2.2137272,-0.251526,4.0625257,1.3414719,98.700005,-148.5,-18.900002,,,,x,,
578148,1.1107515,4.003371,-2.1503239,0.221038,6.17382,1.1432999,108.3,-153.3,-20.1,,,,x,,
578168,1.1298921,4.4029303,-2.0845282,0.40396598,7.0503497,1.814036,96.3,-158.1,-26.7,,,,x,,
578188,0.94327146,3.7509546,-1.9050853,0.64787,6.981752,0.92988396,91.5,-165.3,-17.1,,,,x,,
578208,1.2100432,3.5541656,-1.2196136,0.785066,6.257662,0.884152,101.100006,-170.1,-17.7,,,,x,,
578228,1.4983481,3.7629175,-0.56046,0.15244,6.608274,0.830798,96.3,-167.70001,-19.5,,,,x,,
578248,1.2752408,3.3902743,-0.32479164,-0.33536798,7.8582816,-0.19055,96.3,-160.5,-23.7,,,,x,,
578271,1.3476161,3.447696,-0.24164976,-0.33536798,8.285114,-0.358234,93.9,-155.70001,-14.700001,,,,x,,
578291,1.3763269,4.0314837,-0.0077758585,-0.47256398,8.19365,-0.55640596,98.700005,-167.70001,-13.500001,,,,x,,
578311,1.7693069,4.5907474,0.23985533,-0.586894,7.9802337,-0.746956,89.100006,-158.1,-15.3,,,,x,,
578331,1.9882272,5.355772,0.32658607,-0.853664,7.9497457,-0.884152,81.9,-170.1,-18.900002,,,,x,,
578351,2.019929,5.8941007,-0.040075578,-0.82317597,7.972612,-0.95274997,91.5,-155.70001,-12.3,,,,x,,
578371,1.8985058,6.510188,-0.3481192,-0.358234,7.1418138,-0.87653,81.9,-167.70001,-12.900001,,,,x,,
578391,1.8727857,7.108331,-0.669322,0.289636,5.960404,-0.548784,81.9,-153.3,-13.500001,,,,x,,
578413,1.83271,7.851823,-0.9019996,0.731712,4.718018,-0.091464,86.700005,-160.5,-8.1,,,,x,,
578473,1.7388016,9.843638,-2.26756,0.49543,2.32471,-0.67835796,79.5,-167.70001,-10.5,,,,,,
578493,1.4247766,9.343592,-2.5074153,0.137196,1.41007,-1.166166,74.700005,-160.5,-14.700001,,,,,,
578513,1.2172209,9.113904,-2.6910453,0.320124,0.365856,-1.280496,86.700005,-162.90001,-11.1,,,,,,
578537,1.2202116,9.040333,-2.744878,0.28201398,-1.082324,-0.72409,89.100006,-153.3,-14.1,,,,,,
578558,1.1639862,9.530212,-2.9590132,0.022866,-1.3567159,-0.548784,96.3,-158.1,-12.900001,,,,,,
578578,1.158603,9.366919,-2.8597217,-0.091464,-1.707328,-0.861286,86.700005,-158.1,-11.700001,,,,,,
578598,1.1514252,9.061268,-2.7723927,-0.548784,-1.3872039,-0.708846,89.100006,-150.90001,-14.700001,,,,,,
578620,1.3165127,9.484753,-3.1193156,-0.632626,-0.80030996,-0.160062,96.3,-162.90001,-17.1,,,,,,
578640,1.1251069,8.888405,-2.9135544,-0.541162,-0.64787,-0.083841994,84.3,-150.90001,-14.700001,,,,,,
578660,0.99172103,8.511575,-2.8609178,-0.53354,-0.55640596,-0.053354,81.9,-155.70001,-9.3,,,,,,
578722,0.878672,8.879433,-3.142045,0.068598,-0.41921,-0.083841994,96.3,-153.3,-17.7,,,,,,
578742,1.0443577,8.673671,-3.2156167,0.16768399,-0.83842,-0.251526,98.700005,-160.5,-20.1,,,,,,
578766,1.1885101,8.927284,-3.0469403,-0.251526,-0.830798,0.541162,86.700005,-158.1,-14.700001,,,,,,
578787,1.0132542,8.997267,-3.2676551,-0.594516,-0.56402797,0.396344,91.5,-155.70001,-15.3,,,,,,
578807,1.2656705,8.909938,-3.137858,-0.274392,-0.907018,0.251526,96.3,-160.5,-15.3,,,,,,
578827,1.363766,8.648549,-2.9739668,-0.312502,-0.64787,0.426832,84.3,-160.5,-20.7,,,,,,
578847,1.3033535,8.964967,-3.1480265,-0.251526,-0.22865999,0.716468,79.5,-155.70001,-18.300001,,,,,,
578869,1.2973721,9.070838,-3.0397625,-0.129574,-0.11432999,0.396344,81.9,-158.1,-8.1,,,,x,,
578913,1.1849213,8.879433,-3.2790198,0.0,0.053354,-0.60976,91.5,-160.5,-17.1,,,,x,,
578974,1.2830167,9.058875,-3.183317,-0.137196,-0.396344,-0.144818,89.100006,-162.90001,-9.3,,,,x,,
579043,1.5216757,8.521743,-3.0768476,-0.53354,-0.373478,-0.144818,81.9,-160.5,-17.1,,,,x,,
579144,3.828115,8.275308,-5.049523,1.1356779,1.082324,-0.144818,89.100006,-158.1,-14.1,,,,x,,
579164,4.6140747,7.785429,-4.992101,1.280496,1.547266,-0.525918,93.9,-153.3,-12.900001,,,,x,,
579204,6.2123127,7.9852085,-3.0445478,0.541162,2.957336,-1.1356779,84.3,-167.70001,-8.700001,,,,x,,
579224,6.163863,6.2637534,-2.0420601,-0.297258,6.21193,-4.298808,81.9,-155.70001,-16.5,,,,x,,
579244,5.279808,5.086608,-1.3858973,-0.15244,9.100668,-6.0747337,96.3,-141.3,-14.700001,,,,x,,
579264,4.172047,3.9609027,-1.4469079,-0.007622,11.234828,-7.797306,101.100006,-162.90001,-14.1,,,,x,,
579284,3.4112093,3.2556922,-1.0634983,1.318606,10.7241535,-8.247004,101.100006,-153.3,-16.5,,,,x,,
579308,2.3859923,2.7717946,-0.20157418,0.967994,10.076283,-8.742434,108.3,-160.5,-8.1,,,,x,,
579328,1.8566358,2.162885,0.03409415,0.95274997,10.152504,-9.268352,122.700005,-143.70001,-7.5000005,,,,x,,
579348,1.74897,2.2789247,0.40374652,2.05794,9.45128,-8.567128,110.700005,-138.90001,-2.1000001,,,,x,,
579368,0.7315289,2.2825136,0.5592637,2.59148,9.199754,-8.750056,125.100006,-143.70001,-8.1,,,,x,,
579388,-1.4439172,2.0289009,0.28890306,3.635694,8.42231,-9.275973,137.1,-141.3,0.90000004,,,,x,,
579448,-4.1104383,5.3785014,-1.6658282,3.6738038,4.123502,-7.896392,141.90001,-122.100006,0.3,,,,x,,
579468,-4.49325,6.489253,-2.129389,4.009172,1.006104,-6.3872356,137.1,-114.9,2.1000001,,,,x,,
579488,-4.4017344,8.497219,-3.703103,2.187514,-0.297258,-3.628072,156.3,-124.50001,1.5,,,,x,,
579511,-4.011745,9.409387,-4.337135,2.431418,-3.003068,-2.507638,170.70001,-107.700005,-0.90000004,,,,x,,
579531,-5.0525136,9.374097,-4.4202766,2.2180018,-4.214966,-1.730194,158.70001,-119.700005,3.9,,,,x,,
579551,-5.003466,12.151275,-5.2355456,0.312502,-4.9543,1.3795819,163.5,-112.50001,4.5,,,,x,,
579574,-4.8329954,13.662782,-4.8431635,-1.013726,-7.5915117,0.426832,168.3,-119.700005,-8.700001,,,,x,,
579595,-5.4819803,11.952093,-4.301844,-0.960372,-8.30798,-1.280496,161.1,-117.3,-6.3,,,,x,,
579615,-6.28409,12.428215,-5.2439194,-1.051836,-8.147918,0.426832,173.1,-114.9,-7.5000005,,,,x,,
579635,-5.518467,13.854786,-5.5501685,-0.426832,-10.1982355,2.080806,168.3,-112.50001,-2.1000001,,,,x,,
579655,-4.572205,14.170605,-3.4752107,-2.073184,-12.400993,1.8673899,177.90001,-117.3,-1.5,,,,x,,
579675,-5.895297,12.758389,-4.2868905,-2.675322,-8.658592,1.737816,175.5,-119.700005,-3.3000002,,,,x,,
579695,-6.4366164,13.047293,-5.534617,-1.920744,-7.92688,2.6981878,175.5,-117.3,-15.3,,,,x,,
579715,-4.136757,14.23341,-5.2104235,-0.55640596,-14.55802,5.4421077,170.70001,-117.3,-15.900001,,,,x,,
579735,-3.857424,14.497789,-3.8167503,-1.33385,-14.90101,5.79272,163.5,-124.50001,-10.5,,,,x,,
579755,-4.8587155,14.79387,-4.8186398,-2.949714,-9.03207,4.68753,170.70001,-119.700005,-6.9,,,,x,,
579795,-4.15829,13.117873,-5.363548,-1.4024479,-11.676904,3.003068,168.3,-129.3,-9.3,,,,x,,
579815,-3.8729758,14.005518,-6.291268,-0.625004,-8.086942,4.5579557,165.90001,-131.70001,-15.3,,,,x,,
579835,-2.5917535,14.717906,-6.6375923,0.69360197,-9.94671,3.54423,153.90001,-131.70001,-24.900002,,,,x,,
579855,-2.7795703,13.324831,-6.2063313,0.312502,-8.772922,2.301844,170.70001,-136.5,-12.3,,,,x,,
579875,-2.8316088,12.522721,-7.714848,2.32471,-3.483254,3.414656,170.70001,-136.5,-21.300001,,,,x,,
579895,-2.205353,15.891462,-9.98181,2.865872,-3.2469718,7.248522,153.90001,-134.1,-14.700001,,,,x,,
579915,-1.7214555,15.89206,-8.511575,-0.739334,-9.161644,4.702774,139.5,-143.70001,-20.7,,,,x,,
579935,-2.1862125,12.959366,-7.51447,-1.3490939,-6.8369336,3.498498,137.1,-138.90001,-13.500001,,,,x,,
579955,-1.3368496,13.50248,-7.868571,-1.577754,-6.204308,6.082356,151.5,-150.90001,-23.7,,,,x,,
580018,-0.9145606,11.297127,-6.588545,-1.303362,-0.94512796,5.167716,134.70001,-148.5,-21.300001,,,,x,,
580048,-0.79852086,9.609765,-5.9712615,-1.775926,0.03811,4.68753,127.50001,-153.3,-21.300001,,,,x,,
580068,-0.6753034,8.135941,-5.1966662,-1.783548,0.72409,4.4360037,117.9,-155.70001,-27.300001,,,,x,,
580108,0.40733537,7.1472106,-4.3742194,-0.243904,1.775926,4.283564,105.9,-148.5,-27.300001,,,,x,,
580128,0.5371324,5.900082,-3.523062,-0.160062,1.996964,3.513742,103.50001,-165.3,-21.300001,,,,x,,
580150,0.7548564,5.2863874,-3.2646644,-0.617382,4.275942,4.489358,108.3,-155.70001,-27.300001,,,,x,,
580170,1.2148284,5.919223,-3.06309,-0.640248,5.137228,5.29729,98.700005,-158.1,-17.7,,,,x,,
580190,1.1514252,5.2074327,-2.5361261,-0.373478,5.838452,3.7195358,103.50001,-153.3,-16.5,,,,x,,
580210,1.2327727,4.5488772,-2.045649,0.16768399,6.0442457,2.522882,86.700005,-170.1,-20.1,,,,x,,
580232,1.300961,4.1445327,-1.468441,0.510674,6.661628,1.806414,89.100006,-165.3,-22.5,,,,x,,
580253,1.3535975,3.8628073,-1.2172209,0.868908,7.4390717,0.830798,86.700005,-162.90001,-16.5,,,,x,,
580273,1.6658282,3.9489398,-0.9301123,1.3643379,7.675354,0.26677,79.5,-155.70001,-18.300001,,,,x,,
580293,1.7094926,4.0859146,-0.660948,1.471046,8.285114,-1.29574,96.3,-155.70001,-13.500001,,,,x,,
580313,1.753157,4.041054,-0.778184,1.493912,8.544262,-1.8292799,91.5,-162.90001,-12.900001,,,,x,,
580333,1.8207473,4.0685687,-0.690257,1.501534,8.19365,-1.8597679,98.700005,-155.70001,-25.500002,,,,x,,
580353,1.9648997,4.5692143,-0.31821206,1.1356779,7.804928,-1.44818,84.3,-158.1,-8.1,,,,x,,
580373,1.7088945,5.5208597,-0.51021594,0.11432999,7.797306,-1.8445239,79.5,-153.3,-14.700001,,,,x,,
580393,1.6514727,5.7332006,-0.76622117,0.198172,7.3780956,-2.004586,86.700005,-155.70001,-17.7,,,,x,,
580413,1.9511424,7.275213,-0.85355,0.907018,5.000032,-1.56251,81.9,-160.5,-15.3,,,,x,,
580433,1.8022047,7.8458414,-1.4146081,0.56402797,4.222588,-1.3719599,86.700005,-172.5,-16.5,,,,x,,
580453,1.5808918,8.7933,-1.9212352,0.80793196,2.7134318,-0.396344,93.9,-160.5,-15.900001,,,,x,,
580473,1.4648521,8.879433,-1.9463573,0.34298998,1.493912,-0.33536798,86.700005,-162.90001,-12.3,,,,,,
580495,1.7088945,9.662401,-2.0719674,0.41158798,0.967994,-0.083841994,86.700005,-170.1,-12.900001,,,,,,
580515,1.3685511,9.195251,-2.4117124,-0.213416,1.158544,-1.06708,81.9,-153.3,-18.300001,,,,,,
580535,1.2513151,9.657019,-3.0212202,-0.030488,0.95274997,-0.602138,89.100006,-158.1,-15.3,,,,,,
580555,1.0987886,9.703075,-2.9841354,-0.28201398,0.060976,-0.80793196,81.9,-162.90001,-15.900001,,,,,,
580575,1.0437595,9.133643,-2.9267135,-0.716468,-0.510674,-0.792688,86.700005,-162.90001,-8.1,,,,,,
580595,0.96899164,8.903358,-2.7508595,-0.92988396,-1.074702,-0.83842,84.3,-150.90001,-17.1,,,,,,
580615,0.8457742,8.49363,-2.6880546,-0.95274997,-1.211898,-0.785066,81.9,-155.70001,-10.5,,,,,,
580635,0.7895487,8.5253315,-2.6922414,-1.059458,-1.265252,-0.33536798,79.5,-158.1,-14.700001,,,,,,
580655,1.1406586,9.095961,-2.5971367,-0.846042,-1.211898,0.106708,89.100006,-153.3,-14.1,,,,,,
580675,1.0981905,9.311292,-2.5343318,-0.846042,-0.967994,-0.17530599,91.5,-167.70001,-16.5,,,,,,
580697,0.8439797,8.696401,-2.6725028,-0.64787,-0.663114,-0.388722,79.5,-160.5,-15.3,,,,,,
580717,0.954038,8.548659,-2.5827813,-0.053354,-0.69360197,-0.03811,96.3,-155.70001,-11.700001,,,,,,
580737,1.0658908,9.158167,-2.7143729,0.434454,-0.56402797,0.625004,89.100006,-167.70001,-16.5,,,,,,
580757,1.0180393,9.630102,-2.9691818,0.57164997,-0.56402797,0.28201398,96.3,-150.90001,-11.700001,,,,,,
580779,0.9606176,9.547558,-3.0349774,0.548784,-0.739334,-0.11432999,89.100006,-158.1,-12.900001,,,,,,
580799,0.91695315,9.090577,-3.007463,0.396344,-1.1280559,-0.487808,81.9,-160.5,-13.500001,,,,,,
580821,1.1269014,8.943434,-3.091203,0.083841994,-1.1432999,0.129574,84.3,-158.1,-18.300001,,,,,,
580841,1.0760592,9.040333,-3.0953898,-0.129574,-1.1128119,0.28201398,96.3,-153.3,-8.700001,,,,,,
580861,1.0353855,8.77715,-2.9727705,-0.388722,-1.1128119,0.312502,84.3,-155.70001,-14.700001,,,,,,
580884,1.2555021,8.87704,-2.8082812,-0.251526,-0.998482,0.274392,98.700005,-162.90001,-12.3,,,,,,
580904,1.1903045,8.718532,-2.8603196,-0.365856,-0.586894,0.160062,93.9,-155.70001,-11.700001,,,,,,
580925,1.0766573,8.761,-3.1019695,-0.091464,-0.396344,0.16768399,89.100006,-165.3,-12.900001,,,,,,
580945,1.0569186,8.7412615,-3.1534097,0.060976,-0.503052,0.327746,103.50001,-174.90001,-15.900001,,,,,,
580965,1.2112396,8.930275,-3.1510172,-0.015244,-0.55640596,0.41921,96.3,-167.70001,-13.500001,,,,x,,
580985,1.4469079,9.06067,-3.2012613,0.015244,-0.518296,0.35061198,96.3,-150.90001,-15.900001,,,,x,,
581005,1.4463097,8.92848,-3.2323647,-0.320124,-0.49543,-0.045732,96.3,-158.1,-11.700001,,,,x,,
581026,1.5384238,8.97992,-3.2323647,-0.449698,-0.503052,-0.160062,91.5,-158.1,-18.900002,,,,x,,
581046,1.9008983,8.878835,-3.213224,-0.716468,-0.26677,-0.53354,89.100006,-146.1,-20.1,,,,x,,
581066,1.8542432,8.580959,-3.4991364,-1.074702,0.434454,-1.059458,96.3,-158.1,-9.900001,,,,x,,
581086,1.9044873,8.409292,-3.8604147,-0.632626,0.792688,-1.074702,105.9,-146.1,-14.700001,,,,x,,
581106,2.368048,8.508584,-3.815554,-0.396344,0.70122397,-0.82317597,91.5,-160.5,-20.1,,,,x,,
581126,2.9805465,8.703578,-3.8137596,-0.487808,1.3795819,-0.907018,84.3,-158.1,-9.900001,,,,x,,
581146,3.3328526,8.618642,-3.6678126,0.144818,2.301844,-1.1128119,101.100006,-162.90001,-9.900001,,,,x,,
581186,4.1313734,7.969657,-3.2299721,0.160062,4.0472817,-2.088428,101.100006,-150.90001,-12.3,,,,x,,
581206,4.344312,7.3780937,-2.8459642,0.312502,5.4725957,-2.7972739,93.9,-146.1,-14.1,,,,x,,
581246,4.5500736,6.4246535,-2.033088,-0.449698,8.224138,-4.9924097,113.100006,-158.1,-14.1,,,,x,,
581286,4.1349626,3.1414468,0.57122654,-0.716468,9.687562,-7.8125496,110.700005,-160.5,-5.1000004,,,,x,,
581326,2.707195,1.3045498,0.05801987,2.621968,11.6845255,-8.68908,125.100006,-167.70001,-3.3000002,,,,x,,
581443,-4.4615483,7.495928,-2.9273117,3.132642,4.634176,-4.9009457,139.5,-124.50001,-0.90000004,,,,x,,
581488,-5.0848136,6.3905597,-3.1426432,2.949714,-1.432936,-4.4969797,151.5,-110.100006,5.1000004,,,,x,,
581508,-4.389173,8.474489,-3.381302,2.149404,-2.355198,-1.051836,153.90001,-114.9,3.3000002,,,,x,,
581550,-4.111037,10.799471,-4.154701,1.310984,-5.03052,-0.198172,153.90001,-122.100006,3.3000002,,,,x,,
581570,-3.9292011,11.05428,-3.4680328,0.22865999,-6.532054,-0.830798,165.90001,-93.3,2.7,,,,x,,
581614,-4.9645867,12.915103,-5.7044897,-0.221038,-7.08846,3.528986,168.3,-102.9,1.5,,,,x,,
581634,-3.8992941,15.552914,-3.76531,-2.2180018,-9.847624,3.1783738,158.70001,-110.100006,-3.3000002,,,,x,,
581654,-6.361849,13.069424,-5.4484844,-1.1280559,-6.067112,-0.17530599,165.90001,-105.3,-5.7000003,,,,x,,
581674,-5.815744,14.179577,-8.264542,1.074702,-7.263766,4.5884438,173.1,-122.100006,-5.7000003,,,,x,,
581694,-4.3365364,15.027744,-5.4664288,-2.560992,-15.259244,4.138746,170.70001,-117.3,-5.1000004,,,,x,,
581714,-4.3712287,13.580836,-5.5830665,-2.7134318,-13.285146,3.1783738,158.70001,-126.9,-3.9,,,,x,,
581734,-4.381995,13.860767,-5.961691,-2.385686,-12.721118,3.92533,170.70001,-138.90001,-8.1,,,,x,,
581757,-4.096083,14.795067,-6.3947463,-1.6006199,-12.019894,4.580822,170.70001,-122.100006,-15.3,,,,x,,
581778,-4.747461,14.726878,-7.3075128,-1.318606,-10.990924,4.443626,163.5,-124.50001,-10.5,,,,x,,
581799,-3.4817903,15.699458,-7.5395923,-2.065562,-12.69063,5.251558,170.70001,-131.70001,-15.3,,,,x,,
581819,-3.7850487,14.56837,-6.75124,-2.560992,-12.027515,4.61131,161.1,-126.9,-12.3,,,,x,,
581839,-3.8370872,14.738243,-7.4654226,-1.8673899,-10.350676,5.495462,163.5,-129.3,-15.900001,,,,x,,
581861,-3.0349774,15.426705,-7.496526,-1.8826339,-11.006167,6.455834,156.3,-143.70001,-23.1,,,,x,,
581881,-2.5762017,15.506857,-7.5318165,-3.025934,-9.131156,6.410102,139.5,-148.5,-20.1,,,,x,,
581901,-1.8195509,14.314757,-7.9188147,-2.7591639,-9.474146,5.990892,129.90001,-138.90001,-22.5,,,,x,,
581921,-1.0270115,14.067126,-7.0987606,-2.97258,-10.968058,6.394858,129.90001,-148.5,-23.7,,,,x,,
581941,0.09450659,13.678333,-5.4287457,-3.102154,-9.237864,6.0594897,122.700005,-150.90001,-27.900002,,,,x,,
581963,0.30385664,13.294924,-6.0920863,-1.8597679,-4.603688,5.686012,122.700005,-153.3,-24.300001,,,,x,,
581983,0.12561002,12.3372965,-5.836679,-1.4024479,-3.2164838,4.710396,115.50001,-153.3,-21.900002,,,,x,,
582003,0.08374002,11.230732,-5.8540254,-0.81555396,-1.02897,4.5122237,125.100006,-155.70001,-30.300001,,,,x,,
582023,0.5275621,11.361726,-6.269735,-0.045732,0.221038,5.5945477,113.100006,-158.1,-23.7,,,,x,,
582083,0.74229544,8.842347,-4.563831,0.022866,2.583858,2.36282,108.3,-170.1,-26.1,,,,x,,
582103,0.91994387,7.2847834,-4.4794927,0.87653,3.7119138,1.71495,105.9,-158.1,-20.1,,,,x,,
582123,0.8487649,6.6962104,-4.082326,0.92988396,4.0777698,1.9054999,84.3,-167.70001,-22.5,,,,x,,
582145,0.9660009,5.7074804,-3.468631,1.06708,4.9314337,1.265252,101.100006,-162.90001,-27.900002,,,,x,,
582166,1.464254,5.327061,-2.7466726,1.1280559,4.969544,0.94512796,101.100006,-174.90001,-24.300001,,,,x,,
582187,1.3541957,3.9674823,-2.0217233,0.602138,6.036624,0.274392,81.9,-155.70001,-22.5,,,,x,,
582207,1.3709437,3.7802637,-1.7932327,0.26677,7.3171196,1.516778,101.100006,-160.5,-24.900002,,,,x,,
582227,1.1849213,4.084718,-1.5653402,-0.106708,8.056454,1.722572,91.5,-165.3,-24.900002,,,,x,,
582247,1.0455539,3.9848285,-1.305148,-0.289636,7.675354,1.013726,96.3,-177.3,-21.900002,,,,x,,
582270,0.88704604,3.2018592,-0.86371845,-0.47256398,7.294254,-0.221038,89.100006,-162.90001,-19.5,,,,x,,
582330,1.9672922,4.2187023,-0.016748004,0.503052,7.134192,-0.716468,79.5,-160.5,-19.5,,,,x,,
582350,1.9014965,4.678674,-0.045458864,0.625004,7.568646,-1.3948259,89.100006,-170.1,-18.300001,,,,x,,
582370,1.711287,5.121898,-0.35529694,1.044214,7.263766,-1.745438,84.3,-167.70001,-14.700001,,,,x,,
582390,1.7848586,6.208126,-0.4689441,1.684462,6.257662,-1.471046,84.3,-174.90001,-17.1,,,,x,,
582410,1.589864,7.659819,-0.78715616,1.6158639,5.800342,-1.1128119,91.5,-160.5,-15.3,,,,x,,
582430,0.85355,8.512173,-1.7681106,1.1356779,5.274424,-1.501534,89.100006,-153.3,-17.7,,,,x,,
582454,1.004282,8.573781,-1.6903521,1.3795819,2.195136,-1.158544,84.3,-160.5,-20.1,,,,x,,
582474,1.0969942,9.326245,-2.1521184,1.036592,2.2942219,-0.129574,93.9,-158.1,-15.3,,,,x,,
582495,1.1436493,10.044017,-2.5283504,0.67835796,1.661596,-0.144818,96.3,-155.70001,-8.1,,,,x,,
582515,1.0718722,9.955492,-2.551678,0.503052,1.234764,-0.846042,89.100006,-153.3,-15.900001,,,,x,,
582535,0.96899164,9.966258,-2.622259,0.41921,0.853664,-1.41007,81.9,-148.5,-13.500001,,,,x,,
582555,0.70760316,9.380078,-2.6808767,0.121952,0.35061198,-2.004586,91.5,-158.1,-17.1,,,,x,,
582577,0.74528617,8.829786,-2.6168754,0.083841994,-0.160062,-1.585376,91.5,-162.90001,-13.500001,,,,,,
582617,0.94805664,8.817823,-2.4440122,-0.198172,-0.754578,-0.35061198,108.3,-150.90001,-14.1,,,,,,
582637,0.9869359,9.015211,-2.5510798,-0.442076,-0.594516,-0.068598,105.9,-162.90001,-5.1000004,,,,,,
582722,1.1609955,8.755018,-2.752056,-0.17530599,-0.548784,0.480186,84.3,-162.90001,-20.7,,,,,,
582806,1.2034637,9.094764,-2.8710864,-0.022866,-1.48629,0.26677,101.100006,-160.5,-12.3,,,,x,,
582826,1.3189052,8.865675,-2.761028,-0.20579399,-1.4024479,0.312502,98.700005,-167.70001,-12.900001,,,,x,,
582866,1.3320644,9.243702,-2.7454762,-0.274392,-1.02897,0.007622,93.9,-162.90001,-9.900001,,,,x,,
582886,1.3655604,8.936854,-2.6204643,-0.373478,-0.884152,-0.320124,91.5,-146.1,-16.5,,,,x,,
582929,1.2728482,8.883619,-2.7873464,-0.091464,-0.137196,-0.312502,96.3,-160.5,-11.1,,,,x,,
582949,1.1263032,8.797487,-2.9314988,-0.007622,0.053354,-0.45731997,91.5,-165.3,-17.1,,,,x,,
582969,1.0383762,8.479873,-3.128886,-0.007622,0.17530599,-0.53354,86.700005,-153.3,-15.900001,,,,x,,
582989,1.3314662,8.832777,-3.2610755,0.030488,0.221038,-0.365856,96.3,-162.90001,-18.300001,,,,x,,
583009,1.4947593,8.848329,-3.7389917,-0.28201398,0.93750596,-0.716468,89.100006,-158.1,-14.1,,,,x,,
583033,1.4277673,7.743559,-4.3879766,0.72409,1.272874,-1.204276,96.3,-160.5,-15.3,,,,x,,
583053,1.8219435,7.7351847,-4.777368,1.6539739,1.29574,-0.15244,86.700005,-155.70001,-5.7000003,,,,x,,
583073,2.60252,7.832682,-5.2768173,3.330814,1.98172,0.602138,101.100006,-158.1,-16.5,,,,x,,
583093,3.999184,8.7089615,-5.435923,5.0076537,1.798792,1.455802,108.3,-155.70001,-12.900001,,,,x,,
583113,4.6840577,9.08938,-4.309022,4.550334,2.149404,0.327746,84.3,-160.5,-14.1,,,,x,,
583133,4.777368,8.156278,-3.5840726,3.2088618,4.199722,-2.149404,86.700005,-146.1,-6.3,,,,x,,
583153,4.5105963,6.4647293,-2.978752,2.621968,5.990892,-4.085392,86.700005,-158.1,-3.9,,,,x,,
583177,4.603308,5.882736,-2.121015,1.8521459,7.324742,-4.329296,103.50001,-153.3,-10.5,,,,x,,
583197,4.320387,5.417381,-1.5976399,0.754578,9.207376,-4.794238,96.3,-143.70001,-9.900001,,,,x,,
583219,3.4991364,4.831799,-1.16279,0.373478,10.343054,-5.853696,105.9,-143.70001,-3.3000002,,,,x,,
583239,2.615081,4.2193007,-0.81945586,-0.060976,9.984819,-7.309498,93.9,-153.3,-0.3,,,,x,,
583259,1.6933428,3.0451458,-0.5281602,0.434454,8.978716,-8.490908,113.100006,-143.70001,-9.3,,,,x,,
583282,1.4032434,2.8393848,-0.06519759,0.82317597,7.3323636,-7.987856,108.3,-141.3,-3.9,,,,x,,
583302,0.6639387,2.5361261,0.4151112,0.899396,6.150954,-7.728708,96.3,-138.90001,-2.7,,,,x,,
583322,-0.1447506,2.4242735,0.5634507,1.158544,5.190582,-7.286632,113.100006,-124.50001,-7.5000005,,,,x,,
583344,-0.39178365,3.7437768,0.40853164,2.385686,4.5274677,-6.311016,125.100006,-126.9,-9.3,,,,x,,
583406,-3.1187174,6.2655478,-2.1473334,3.399412,3.384168,-5.152472,120.3,-119.700005,0.3,,,,x,,
583426,-4.2773204,7.171136,-3.5368195,3.445144,2.7744079,-4.893324,132.3,-129.3,-1.5,,,,x,,
583446,-5.091393,8.912929,-4.891613,3.8186219,1.059458,-2.644834,132.3,-126.9,0.90000004,,,,x,,
583466,-4.4794927,10.960372,-4.659534,1.8750119,-3.147886,-0.45731997,141.90001,-110.100006,-0.90000004,,,,x,,
583488,-3.9381733,11.040523,-3.091203,-1.3795819,-4.009172,0.099086,144.3,-124.50001,3.3000002,,,,x,,
583508,-4.8928094,11.13503,-4.2737317,-1.463424,-4.0167937,-0.19055,132.3,-117.3,8.1,,,,x,,
583528,-4.862902,11.199629,-4.4256597,-0.045732,-6.661628,0.70122397,141.90001,-110.100006,-2.1000001,,,,x,,
583548,-4.204347,11.83366,-4.7540402,-0.56402797,-7.538158,2.027452,153.90001,-131.70001,-2.7,,,,x,,
583568,-4.2629647,12.441374,-5.397044,-0.617382,-8.521396,2.7591639,153.90001,-119.700005,-0.90000004,,,,x,,
583588,-3.693533,13.478554,-5.93298,-0.708846,-9.931466,3.932952,141.90001,-117.3,-3.9,,,,x,,
583608,-3.73959,13.503675,-5.364744,-1.783548,-11.417756,3.2545938,141.90001,-126.9,-2.1000001,,,,x,,
583631,-4.2103286,12.57775,-5.3587627,-1.745438,-11.082388,2.987824,149.1,-122.100006,-1.5,,,,x,,
583651,-3.898696,13.427114,-5.8588104,-1.6387299,-10.922326,3.841488,156.3,-117.3,-6.3,,,,x,,
583671,-4.292274,12.788895,-6.660322,-1.303362,-9.664696,3.132642,156.3,-134.1,-8.700001,,,,x,,
583694,-3.5529692,14.151464,-7.484563,0.20579399,-11.295804,5.846074,151.5,-124.50001,-14.1,,,,x,,
583714,-3.1103435,15.049277,-6.4246535,-1.3643379,-12.309529,6.143332,134.70001,-129.3,-14.1,,,,x,,
583736,-3.2455237,14.08208,-7.9343667,-0.94512796,-7.446694,4.321674,144.3,-126.9,-14.1,,,,x,,
583757,-3.0654826,14.390721,-9.429724,0.777444,-7.690598,5.4116197,149.1,-134.1,-14.700001,,,,x,,
583779,-1.5539755,16.125935,-8.810646,-0.777444,-11.295804,7.309498,144.3,-141.3,-3.3000002,,,,x,,
583799,-1.1873138,16.057747,-7.0802183,-2.2027578,-10.678422,5.419242,129.90001,-143.70001,-12.900001,,,,x,,
583819,-2.01634,14.658092,-8.67427,-1.8826339,-5.8765616,3.8109999,146.70001,-146.1,-9.900001,,,,x,,
583840,-1.5539755,13.730371,-10.212095,-0.312502,-6.006136,4.4055157,125.100006,-141.3,-19.5,,,,x,,
583881,0.093908444,13.752503,-6.0843105,-3.2317278,-9.382682,5.061008,122.700005,-146.1,-17.7,,,,x,,
583902,0.061010584,12.235613,-7.326055,-3.018312,-4.504602,4.489358,129.90001,-155.70001,-22.5,,,,x,,
583922,0.69264954,12.418046,-6.727314,-1.8445239,-5.350644,4.61131,110.700005,-155.70001,-20.7,,,,x,,
583944,0.3923818,11.122469,-6.0352626,-1.6006199,-3.551852,2.873494,105.9,-160.5,-18.900002,,,,x,,
583964,0.078954875,9.763488,-5.71406,-1.48629,-2.7439198,2.461906,103.50001,-155.70001,-18.300001,,,,x,,
584045,1.2034637,7.538396,-4.443604,0.373478,0.594516,3.003068,113.100006,-162.90001,-18.900002,,,,x,,
584086,1.31412,6.3678303,-3.8711812,-0.45731997,4.5274677,2.911604,105.9,-158.1,-20.1,,,,x,,
584125,1.5527792,5.9335785,-3.2359536,0.708846,6.006136,1.8521459,91.5,-162.90001,-24.300001,,,,x,,
584145,1.1406586,4.763611,-2.7682056,1.06708,6.227174,0.19055,89.100006,-165.3,-19.5,,,,x,,
584187,1.1400605,3.8083763,-1.7304276,1.1280559,5.823208,-0.487808,84.3,-170.1,-17.7,,,,x,,
584207,1.3356533,3.0726604,-1.280026,0.67835796,6.4939437,-0.541162,81.9,-165.3,-25.500002,,,,x,,
584227,1.4989463,3.1246989,-1.1759491,0.967994,7.042728,0.33536798,74.700005,-165.3,-17.7,,,,x,,
584247,1.8620191,3.9166403,-1.0174412,1.006104,6.981752,0.251526,81.9,-165.3,-20.1,,,,x,,
584269,1.9702829,3.8891256,-0.70640683,0.53354,6.608274,-0.81555396,81.9,-158.1,-17.1,,,,x,,
584289,2.0976875,4.0338764,-0.6681257,0.068598,6.722604,-1.272874,72.3,-160.5,-13.500001,,,,x,,
584309,2.3800108,4.839575,-0.73751026,0.129574,6.272906,-1.516778,77.100006,-160.5,-14.1,,,,x,,
584329,2.9811447,5.848044,-0.70221984,0.17530599,5.7165,-1.440558,81.9,-153.3,-13.500001,,,,x,,
584349,3.2712438,7.3457937,-0.6286483,-0.045732,5.4116197,-1.6006199,79.5,-160.5,-12.900001,,,,x,,
584369,2.505621,7.2494926,-0.8224466,-0.625004,5.960404,-3.452766,89.100006,-158.1,-14.700001,,,,x,,
584413,0.84996116,7.943937,-2.4242735,0.388722,4.847592,-4.009172,91.5,-167.70001,-18.900002,,,,x,,
584436,0.3786245,8.418862,-2.6360161,0.72409,4.30643,-2.530504,96.3,-160.5,-12.900001,,,,x,,
584457,0.09510473,9.581653,-3.2640662,0.487808,3.8033779,-1.417692,93.9,-153.3,-14.700001,,,,x,,
584477,-0.045458864,9.712646,-3.2192054,0.312502,2.2256238,-1.928366,91.5,-165.3,-8.700001,,,,x,,
584499,0.26138848,9.5403805,-2.8507495,-0.091464,1.227142,-1.768304,91.5,-138.90001,-12.3,,,,x,,
584519,0.36247465,9.210804,-2.5522761,-0.69360197,0.739334,-1.509156,89.100006,-150.90001,-15.3,,,,x,,
584540,0.36905423,9.069642,-2.5899591,-0.975616,0.40396598,-1.082324,105.9,-143.70001,-13.500001,,,,x,,
584560,0.2715569,8.496621,-2.401544,-0.830798,-0.251526,-0.967994,96.3,-155.70001,-17.1,,,,x,,
584580,0.2536126,8.725112,-2.62824,-0.739334,-0.525918,-0.23628199,105.9,-160.5,-16.5,,,,,,
584600,0.45698124,8.971546,-2.5624444,-0.47256398,-0.899396,-0.060976,84.3,-148.5,-15.3,,,,,,
584620,0.753062,9.448266,-2.640203,-0.518296,-0.94512796,-0.045732,93.9,-162.90001,-17.1,,,,,,
584660,0.5000475,8.903358,-3.0642865,-0.708846,-0.80030996,-0.221038,98.700005,-165.3,-19.5,,,,,,
584720,1.2046599,9.366321,-2.9679854,0.16768399,-1.044214,1.089946,105.9,-153.3,-10.5,,,,,,
584780,0.8003153,8.817823,-3.439322,0.03811,-0.884152,0.35061198,103.50001,-167.70001,-9.3,,,,,,
584822,1.0629001,9.139625,-3.1241007,-0.198172,-1.166166,0.28201398,96.3,-160.5,-17.1,,,,,,
584848,1.0772555,8.859694,-3.0391645,-0.47256398,-0.899396,-0.137196,98.700005,-141.3,-12.3,,,,,,
584868,1.4128137,8.52892,-2.978752,-0.731712,-0.708846,0.099086,89.100006,-155.70001,-9.3,,,,x,,
584908,1.7609329,8.44219,-3.426163,-1.577754,0.23628199,-0.07622,96.3,-158.1,-9.900001,,,,x,,
584948,2.3213928,7.8877115,-4.226478,-0.49543,0.967994,0.015244,96.3,-150.90001,-15.900001,,,,x,,
585025,4.949035,8.978126,-4.101466,1.585376,3.35368,-1.18141,89.100006,-158.1,-7.5000005,,,,x,,
585045,4.6756835,7.873356,-3.9292011,0.49543,5.9070497,-3.361302,93.9,-155.70001,-8.1,,,,x,,
585091,3.6014187,5.770285,-2.7089896,0.426832,7.9649897,-6.3719916,101.100006,-155.70001,-12.900001,,,,x,,
585131,2.95363,4.6673098,-1.0126561,0.46494198,8.80341,-6.890288,120.3,-148.5,-6.3,,,,x,,
585151,2.4176939,4.0936904,-0.4677478,-0.274392,9.847624,-7.9192576,113.100006,-148.5,-6.9,,,,x,,
585175,1.7507645,3.6755886,-0.4426258,-0.365856,10.792751,-8.399444,117.9,-153.3,-9.3,,,,x,,
585195,0.92233646,3.3579745,-0.5239732,0.03811,10.381164,-8.704324,129.90001,-136.5,-9.3,,,,x,,
585215,-0.41271865,2.3997495,-0.07476787,0.625004,8.429932,-9.1159115,137.1,-141.3,-5.1000004,,,,x,,
585235,-0.83560574,3.2144203,-0.19379832,1.692084,6.66925,-7.0503497,141.90001,-141.3,-0.90000004,,,,x,,
585255,-0.7596416,4.6876464,0.16508746,2.347576,3.6814258,-5.929916,134.70001,-138.90001,-9.900001,,,,x,,
585275,-1.7812698,5.284593,0.6029281,2.32471,1.8445239,-5.899428,141.90001,-131.70001,-0.90000004,,,,x,,
585317,-3.6343167,6.180013,-0.33735263,1.150922,0.510674,-4.45887,153.90001,-119.700005,-4.5,,,,x,,
585337,-4.898791,5.826511,-1.1053683,0.129574,1.94361,-2.469528,151.5,-126.9,-8.700001,,,,x,,
585357,-4.872473,9.703673,-3.12111,-1.250008,2.378064,2.7210538,151.5,-117.3,-0.90000004,,,,x,,
585377,-3.9220235,11.628497,-3.033781,-2.903982,-0.64787,0.41921,161.1,-124.50001,-3.3000002,,,,x,,
585400,-5.096178,8.3524685,-2.8423755,-1.951232,-1.006104,-2.103672,141.90001,-114.9,-6.3,,,,x,,
585420,-5.2193956,11.383259,-4.4023323,-0.20579399,-1.5244,1.074702,149.1,-114.9,-3.9,,,,x,,
585441,-4.640991,11.97542,-3.903481,-0.15244,-6.36437,-1.006104,153.90001,-136.5,-4.5,,,,x,,
585461,-4.3873787,11.551935,-4.146327,0.274392,-7.149436,-0.655492,146.70001,-122.100006,-8.1,,,,x,,
585481,-5.5734963,11.884502,-4.9819326,0.510674,-7.66011,0.26677,144.3,-114.9,-5.1000004,,,,x,,
585501,-5.2271714,12.053777,-5.638694,1.089946,-9.984819,1.516778,163.5,-119.700005,-9.900001,,,,x,,
585524,-4.471717,13.206399,-4.8963985,-0.022866,-11.989406,3.079288,158.70001,-114.9,-12.900001,,,,x,,
585544,-4.8186398,13.304494,-5.3444076,-0.853664,-10.327809,2.881116,156.3,-117.3,-4.5,,,,x,,
585564,-3.4447055,14.043798,-5.1093373,-0.358234,-11.562573,3.528986,165.90001,-119.700005,-12.900001,,,,x,,
585584,-3.6379056,13.095742,-4.393958,-1.234764,-9.542744,3.62045,158.70001,-119.700005,-4.5,,,,x,,
585626,-3.7509546,14.636559,-5.548374,-4.61131,-8.811031,5.0228977,149.1,-134.1,-10.5,,,,x,,
585647,-2.9063766,14.452331,-5.51428,-5.243936,-7.233278,3.7271578,156.3,-146.1,-12.3,,,,x,,
585668,-4.362855,12.057366,-7.16994,-3.902464,-4.4664917,2.949714,158.70001,-131.70001,-11.700001,,,,x,,
585688,-2.262775,13.220156,-7.584453,-0.83842,-11.951296,6.8521776,139.5,-148.5,-15.900001,,,,x,,
585708,-1.3153164,14.859068,-4.3568735,-1.41007,-14.923876,7.271388,146.70001,-148.5,-18.300001,,,,x,,
585750,-1.0048802,14.541453,-7.778849,1.3719599,-8.841519,5.5945477,139.5,-138.90001,-18.900002,,,,x,,
585770,0.23447205,15.880097,-7.1406307,0.327746,-12.111358,6.8598,129.90001,-153.3,-20.7,,,,x,,
585790,0.8876442,16.225824,-6.0777307,-1.150922,-10.2897,5.60217,127.50001,-150.90001,-24.900002,,,,x,,
585810,0.6286483,14.4302,-6.664509,-1.21952,-6.5396757,3.7652678,113.100006,-146.1,-24.900002,,,,x,,
585872,1.2399504,13.398402,-5.5172706,-0.884152,-4.11588,3.628072,105.9,-155.70001,-24.300001,,,,x,,
585981,0.88046646,8.544473,-3.455472,0.221038,2.035074,2.59148,93.9,-160.5,-17.1,,,,x,,
586001,0.6453963,7.0233946,-3.526651,1.150922,3.12502,1.432936,86.700005,-167.70001,-23.1,,,,x,,
586041,1.3416346,6.6328073,-2.9775558,1.272874,4.847592,1.928366,96.3,-158.1,-18.900002,,,,x,,
586061,1.5198812,6.1901817,-2.7831593,0.967994,5.586926,1.097568,89.100006,-162.90001,-29.1,,,,x,,
586084,1.6544634,4.931091,-2.16767,-1.158544,7.629622,0.67835796,86.700005,-167.70001,-29.7,,,,x,,
586104,1.7663162,4.920324,-2.070771,-2.637212,9.504634,1.3643379,86.700005,-167.70001,-25.500002,,,,x,,
586124,1.5629476,4.78634,-1.9894235,-3.2469718,10.373542,1.082324,84.3,-162.90001,-23.7,,,,x,,
586144,0.9994969,4.410706,-1.9469553,-2.55337,9.840002,0.503052,81.9,-172.5,-28.500002,,,,x,,
586208,1.2142302,4.1068497,-0.37503564,-0.45731997,6.25004,0.617382,79.5,-167.70001,-20.1,,,,x,,
586228,1.4798057,4.3784065,-0.12261931,-0.182928,6.341504,-0.26677,74.700005,-172.5,-13.500001,,,,x,,
586285,1.5485922,5.6297216,-0.12501188,1.150922,6.0747337,-2.873494,77.100006,-160.5,-16.5,,,,x,,
586305,1.6532671,6.512581,-0.44083136,2.088428,5.18296,-2.492394,77.100006,-158.1,-15.3,,,,x,,
586345,1.0503391,8.334524,-1.0359837,1.6539739,2.7134318,-2.332332,89.100006,-165.3,-17.1,,,,x,,
586365,1.4164026,8.8058605,-0.7853617,1.8369019,1.8521459,-1.3490939,86.700005,-170.1,-10.5,,,,x,,
586388,0.73451954,9.508678,-1.5910603,0.80793196,2.378064,-0.49543,86.700005,-162.90001,-17.7,,,,x,,
586408,0.6292464,9.322657,-1.7854568,0.586894,1.25763,-0.373478,96.3,-153.3,-19.5,,,,x,,
586471,1.3763269,10.024278,-2.1981754,1.189032,-0.426832,-1.288118,93.9,-162.90001,-14.700001,,,,x,,
586491,1.1621917,9.334021,-2.1240058,0.45731997,-0.17530599,-2.080806,98.700005,-158.1,-24.300001,,,,x,,
586511,0.933103,8.950611,-2.451788,0.525918,0.03811,-2.2332458,101.100006,-160.5,-17.1,,,,x,,
586531,0.45399052,8.842347,-2.7688038,0.487808,-0.045732,-1.775926,101.100006,-160.5,-18.300001,,,,,,
586551,0.53653425,9.493725,-2.8100758,0.396344,-0.92988396,-0.548784,98.700005,-165.3,-20.1,,,,,,
586575,0.70042545,9.460229,-2.4003477,0.022866,-1.074702,-0.327746,93.9,-165.3,-8.1,,,,,,
586595,0.91755134,9.277198,-2.4362364,-0.160062,-0.792688,-0.015244,91.5,-160.5,-15.900001,,,,,,
586619,0.83560574,9.132447,-2.5361261,-0.015244,-0.640248,0.20579399,98.700005,-155.70001,-18.300001,,,,,,
586639,0.8362039,8.846535,-2.681475,0.16768399,-1.006104,0.769822,103.50001,-153.3,-12.900001,,,,,,
586659,0.94327146,8.8579,-2.6294365,0.327746,-1.1432999,0.83842,101.100006,-167.70001,-19.5,,,,,,
586679,1.12092,9.073829,-2.5756037,0.365856,-1.173788,0.81555396,101.100006,-160.5,-12.900001,,,,,,
586699,1.284213,9.223365,-2.715569,0.320124,-1.150922,0.41921,91.5,-160.5,-17.7,,,,,,
586759,1.5904622,8.78373,-2.652764,-0.274392,-0.792688,0.320124,91.5,-150.90001,-18.900002,,,,,,
586779,1.6012287,8.847133,-2.7215505,-0.15244,-0.69360197,0.221038,81.9,-155.70001,-12.3,,,,,,
586802,1.8691968,8.8602915,-2.7550466,-0.33536798,-0.442076,0.137196,91.5,-148.5,-12.3,,,,,,
586822,2.1180243,8.899769,-2.9356856,-0.525918,0.160062,-0.129574,103.50001,-153.3,-13.500001,,,,,,
586844,1.9960032,8.277102,-3.5511749,-0.442076,1.227142,-0.64787,98.700005,-155.70001,-15.3,,,,x,,
586864,2.6192682,8.338113,-4.556055,1.250008,1.6463519,-0.121952,93.9,-162.90001,-18.900002,,,,x,,
586884,3.648672,8.873451,-4.489063,1.33385,0.365856,0.213416,98.700005,-153.3,-17.7,,,,x,,
586904,3.9692767,8.053995,-4.5082035,0.785066,2.050318,-0.830798,91.5,-158.1,-24.300001,,,,x,,
586945,5.131469,7.8799357,-3.7300196,2.111294,3.16313,-1.6234859,86.700005,-165.3,-15.3,,,,x,,
586965,5.505906,7.146014,-2.5325372,2.393308,5.655524,-3.864354,101.100006,-155.70001,-12.3,,,,x,,
586985,5.2642565,6.4270463,-2.0629952,2.2180018,6.5854077,-4.8857017,84.3,-155.70001,-18.300001,,,,x,,
587005,4.899987,5.206835,-1.4798057,1.75306,8.6509695,-6.257662,103.50001,-153.3,-15.3,,,,x,,
587029,3.635513,3.589456,-1.0987886,1.3872039,11.2195835,-7.759196,103.50001,-150.90001,-9.900001,,,,x,,
587049,2.4260678,2.9518356,-1.1436493,1.478668,11.288181,-8.407065,105.9,-155.70001,-3.3000002,,,,x,,
587069,1.6060139,2.9374802,-0.9576269,1.478668,9.847624,-8.53664,127.50001,-153.3,-8.1,,,,x,,
587089,0.5455064,2.0779486,-0.33196935,0.830798,7.713464,-9.71805,120.3,-150.90001,-2.7,,,,x,,
587109,-0.48569208,1.3918787,0.1531246,1.196654,6.0747337,-9.436036,120.3,-143.70001,-0.3,,,,x,,
587129,-0.933103,2.7472706,0.3050529,1.783548,4.214966,-8.064075,115.50001,-136.5,-7.5000005,,,,x,,
587149,-2.1981754,3.961501,0.535338,2.080806,3.01069,-8.04121,125.100006,-134.1,-11.700001,,,,x,,
587189,-3.2544959,5.60759,0.74229544,1.1128119,0.0,-9.1463995,149.1,-122.100006,-0.3,,,,x,,
587209,-3.701907,5.291771,0.27753833,2.012208,0.586894,-7.69822,149.1,-119.700005,-6.3,,,,x,,
587253,-3.5152862,7.087994,-0.62805015,4.009172,-0.884152,-5.236314,161.1,-122.100006,-3.3000002,,,,x,,
587273,-5.045934,8.296243,-2.6808767,4.0167937,0.69360197,-4.5731997,149.1,-122.100006,-5.7000003,,,,x,,
587293,-6.0771327,9.576867,-4.359266,3.2317278,-0.907018,-2.309466,177.90001,-112.50001,-4.5,,,,x,,
587313,-3.6827662,11.745135,-2.2914858,2.012208,-6.4482117,-0.868908,165.90001,-107.700005,-3.3000002,,,,x,,
587333,-5.3139024,10.19116,-1.3165127,0.80030996,-2.317088,-3.635694,170.70001,-110.100006,-3.3000002,,,,x,,
587353,-7.8296914,11.041719,-4.9227166,1.06708,1.29574,-1.577754,165.90001,-110.100006,-5.1000004,,,,x,,
587373,-7.4576464,13.0604515,-6.9976745,3.01069,-3.338436,1.8521459,170.70001,-105.3,4.5,,,,x,,
587396,-6.7996893,12.021478,-4.2569838,0.99086,-8.490908,1.4024479,187.5,-110.100006,2.1000001,,,,x,,
587416,-6.9193177,13.093349,-6.3283525,0.19055,-6.4177237,3.521364,185.1,-110.100006,-3.3000002,,,,x,,
587438,-5.2098255,13.94989,-6.171639,0.861286,-10.106771,4.161612,177.90001,-105.3,-0.90000004,,,,x,,
587458,-5.0602894,12.7577915,-4.872473,0.030488,-9.94671,3.612828,180.3,-110.100006,-3.9,,,,x,,
587478,-5.977841,12.969534,-6.8014836,-0.68597996,-6.753092,3.8186219,177.90001,-98.100006,-9.3,,,,x,,
587498,-4.949633,13.851197,-8.403909,1.41007,-8.986338,4.4512477,173.1,-110.100006,-9.900001,,,,x,,
587518,-4.255189,13.735157,-6.734492,1.3643379,-12.522945,4.657042,177.90001,-105.3,-0.90000004,,,,x,,
587542,-4.4914556,13.490517,-7.282989,1.1432999,-9.138778,4.83997,180.3,-114.9,1.5,,,,x,,
587562,-4.056606,13.970227,-8.6437645,1.539644,-6.93602,5.724122,173.1,-110.100006,-8.700001,,,,x,,
587584,-2.054023,15.216757,-10.41008,2.484772,-8.529017,5.83083,153.90001,-124.50001,-5.1000004,,,,x,,
587604,-2.2861025,14.867442,-10.085887,2.157026,-10.1372595,5.137228,173.1,-110.100006,-9.3,,,,x,,
587665,-2.1198187,13.8823,-9.393835,-0.57164997,-7.522914,4.4360037,161.1,-119.700005,-11.700001,,,,x,,
587685,-2.0905097,12.958768,-9.0188,-1.189032,-6.806446,4.61131,149.1,-141.3,-15.900001,,,,x,,
587705,-1.6173786,13.145388,-8.53251,-1.440558,-6.768336,5.6097918,151.5,-134.1,-18.300001,,,,x,,
587726,-1.5473958,12.605265,-7.7543254,-2.36282,-5.807964,5.52595,149.1,-124.50001,-20.1,,,,x,,
587746,-1.3799158,11.469392,-7.7070723,-2.62959,-4.15399,5.44973,139.5,-134.1,-21.900002,,,,x,,
587766,-0.9426733,10.74863,-7.079022,-2.583858,-4.1921,5.655524,149.1,-150.90001,-12.900001,,,,x,,
587786,-0.681883,10.279087,-6.4120927,-2.7744079,-2.89636,5.731744,139.5,-143.70001,-15.3,,,,x,,
587848,-0.48808467,8.044425,-4.719348,-3.8033779,-1.3795819,3.54423,129.90001,-150.90001,-21.900002,,,,x,,
587868,-0.2781365,7.271026,-4.3496957,-3.635694,0.373478,4.618932,117.9,-153.3,-20.1,,,,x,,
587889,0.04246815,7.201043,-4.1397476,-3.361302,1.196654,5.18296,122.700005,-153.3,-15.900001,,,,x,,
587909,0.59694666,6.797895,-3.778469,-2.51526,1.242386,5.22107,120.3,-162.90001,-23.1,,,,x,,
587929,0.77758586,6.2805014,-2.962004,-2.103672,1.006104,4.756128,101.100006,-165.3,-17.7,,,,x,,
587949,1.0766573,5.426353,-2.1473334,-1.928366,1.730194,3.879598,115.50001,-155.70001,-24.300001,,,,x,,
587969,1.6748003,5.331846,-1.8087844,-1.432936,2.7439198,3.460388,93.9,-162.90001,-24.900002,,,,x,,
588029,1.7244462,4.5123906,-1.3165127,1.1051899,3.498498,1.1280559,98.700005,-153.3,-23.7,,,,x,,
588051,1.8775707,4.3431163,-0.8511574,0.777444,4.085392,0.899396,101.100006,-165.3,-18.900002,,,,x,,
588071,1.7711014,3.7461693,-0.59036714,0.198172,6.4939437,-0.007622,101.100006,-167.70001,-21.300001,,,,x,,
588091,1.7226517,3.6977198,-0.65795726,0.22865999,7.149436,-0.045732,98.700005,-155.70001,-18.300001,,,,x,,
588111,1.6783892,4.2282724,-0.803306,0.602138,7.5305357,0.068598,98.700005,-158.1,-16.5,,,,x,,
588134,1.8608228,4.8856316,-0.55328226,0.57164997,7.172302,-0.853664,91.5,-170.1,-18.300001,,,,x,,
588198,2.0426583,7.488152,-0.5263658,1.1051899,5.9222937,-1.5244,98.700005,-165.3,-17.1,,,,x,,
588218,1.3350551,7.876945,-0.96241206,0.541162,5.4878397,-1.8902559,103.50001,-162.90001,-8.1,,,,x,,
588238,0.8792702,8.108426,-1.4869834,0.045732,4.321674,-1.745438,98.700005,-165.3,-18.900002,,,,x,,
588258,0.799119,8.7304945,-1.6843706,0.320124,3.612828,-1.158544,93.9,-160.5,-12.3,,,,x,,
588278,-0.017346146,9.109717,-2.9033859,0.46494198,2.93447,-0.434454,96.3,-153.3,-12.3,,,,x,,
588298,0.117236026,9.281384,-3.0343792,0.487808,2.09605,0.053354,101.100006,-160.5,-17.1,,,,x,,
588318,0.46595338,9.550549,-2.7131765,0.3811,0.853664,0.46494198,98.700005,-165.3,-18.900002,,,,x,,
588338,0.56046,9.276001,-2.753252,-0.251526,0.655492,0.182928,101.100006,-158.1,-17.7,,,,x,,
588358,0.7686137,9.330432,-2.7179615,-0.15244,0.28201398,0.068598,103.50001,-160.5,-15.3,,,,x,,
588379,0.95523435,9.414172,-2.6049128,-0.274392,0.060976,-0.182928,93.9,-148.5,-23.1,,,,x,,
588399,0.773997,9.246693,-2.6886528,-0.586894,0.251526,-0.602138,93.9,-155.70001,-20.1,,,,x,,
588419,0.54072124,8.451162,-2.6713066,-0.40396598,0.0,-0.99086,101.100006,-153.3,-14.1,,,,x,,
588439,0.5736191,8.317776,-2.7257376,-0.07622,-0.243904,-0.16768399,93.9,-155.70001,-15.3,,,,,,
588459,0.47971067,8.991285,-2.89561,-0.198172,-0.434454,0.55640596,86.700005,-155.70001,-12.3,,,,,,
588479,0.6011337,9.247889,-3.1097453,-0.15244,-0.7622,0.68597996,93.9,-155.70001,-14.700001,,,,,,
588499,0.72554743,9.198841,-2.9823408,-0.22865999,-1.3414719,0.56402797,98.700005,-162.90001,-15.3,,,,,,
588519,0.81467074,8.886012,-3.1061563,-0.33536798,-1.56251,0.365856,96.3,-155.70001,-15.900001,,,,,,
588542,1.0270115,8.757411,-3.1940835,-0.137196,-1.745438,0.320124,86.700005,-160.5,-15.900001,,,,,,
588562,1.3266811,9.396826,-3.0929973,-0.243904,-1.8369019,0.487808,93.9,-165.3,-18.300001,,,,,,
588582,1.3272792,9.206616,-3.176139,-0.518296,-1.211898,-0.083841994,105.9,-165.3,-12.3,,,,x,,
588602,1.3057461,9.020595,-3.0929973,-0.274392,-0.960372,-0.327746,98.700005,-167.70001,-14.700001,,,,x,,
588623,1.1705658,8.531911,-3.0439496,-0.137196,-0.442076,-0.396344,103.50001,-150.90001,-14.700001,,,,x,,
588643,1.0934054,8.653933,-2.9984908,-0.327746,-0.015244,-0.045732,91.5,-162.90001,-16.5,,,,x,,
588663,1.1783416,8.597707,-3.0971844,-0.449698,0.510674,-0.312502,91.5,-153.3,-15.3,,,,x,,
588683,1.229782,8.740664,-3.4369295,-0.26677,0.92226195,-0.41158798,101.100006,-155.70001,-15.900001,,,,x,,
588746,2.476312,8.259158,-4.476502,0.716468,2.157026,-1.8673899,84.3,-153.3,-17.7,,,,x,,
588769,3.3914707,8.261551,-4.7558346,1.8826339,2.82014,-1.051836,86.700005,-146.1,-12.3,,,,x,,
588789,4.120607,8.402114,-4.041054,1.310984,3.567096,-1.6006199,103.50001,-148.5,-18.900002,,,,x,,
588809,4.471717,7.7794476,-3.6038115,0.655492,5.44973,-3.46801,105.9,-153.3,-17.7,,,,x,,
588849,3.7916284,5.770285,-2.4117124,1.4024479,7.667732,-4.862836,103.50001,-146.1,-8.700001,,,,x,,
588932,2.585772,3.6223538,0.047851436,-0.480186,8.544262,-6.996996,122.700005,-141.3,-12.3,,,,x,,
588954,1.9583201,2.5779963,0.19080761,-0.099086,8.048832,-7.690598,105.9,-146.1,-7.5000005,,,,x,,
588974,1.1932952,2.046247,0.50842154,0.632626,7.256144,-7.728708,137.1,-146.1,-8.700001,,,,x,,
588996,-0.16090046,1.6508746,0.41032606,1.783548,6.204308,-7.957368,125.100006,-143.70001,-4.5,,,,x,,
589017,-1.3829066,3.6504664,0.24523862,3.498498,2.82014,-5.785098,127.50001,-141.3,-8.1,,,,x,,
589041,-1.4941611,5.710471,1.1376679,2.32471,0.426832,-4.794238,134.70001,-141.3,-7.5000005,,,,x,,
589061,-2.5947442,6.0095425,0.94147706,0.907018,1.989342,-6.341504,141.90001,-129.3,-3.9,,,,x,,
589081,-4.3329477,5.693125,-0.5514878,1.425314,1.722572,-6.623518,139.5,-134.1,-3.3000002,,,,x,,
589142,-4.4166875,8.590529,-2.1473334,1.1051899,-3.041178,-3.071666,161.1,-129.3,-0.90000004,,,,x,,
589162,-5.0734487,8.454751,-3.2162147,1.9131219,-3.460388,-2.164648,158.70001,-114.9,-0.90000004,,,,x,,
589183,-4.5781865,10.002147,-3.7252345,2.97258,-5.739366,-0.708846,168.3,-122.100006,-5.7000003,,,,x,,
589225,-5.0895987,11.568085,-3.6462796,0.975616,-6.5549197,-2.065562,168.3,-105.3,-8.700001,,,,x,,
589246,-6.0227017,11.622516,-5.9688687,3.132642,-6.8979096,-1.9054999,177.90001,-114.9,-3.9,,,,x,,
589266,-4.949035,12.91271,-5.840866,2.408552,-9.862867,-0.41921,189.90001,-105.3,-8.700001,,,,x,,
589286,-5.6440773,13.436086,-5.715256,0.7622,-9.405548,-0.41158798,168.3,-110.100006,-6.9,,,,x,,
589329,-6.0873013,14.286047,-6.0023646,0.11432999,-8.071698,0.82317597,177.90001,-110.100006,-6.3,,,,x,,
589349,-7.5198536,13.87273,-8.798683,2.073184,-2.843006,1.516778,177.90001,-110.100006,-6.3,,,,x,,
589369,-6.120797,15.158139,-10.602084,2.126538,-7.6372437,5.175338,185.1,-122.100006,-9.900001,,,,x,,
589389,-5.089,16.482428,-6.9845157,-2.7744079,-14.565641,5.571682,185.1,-136.5,-8.700001,,,,x,,
589413,-5.297154,14.714317,-7.958292,-2.7286758,-7.5152917,3.056422,175.5,-117.3,-15.900001,,,,x,,
589433,-4.430445,14.448742,-9.607372,-0.739334,-8.186028,4.5122237,177.90001,-117.3,-9.900001,,,,x,,
589453,-3.6085966,15.372872,-7.9870033,-1.02897,-11.425378,6.25004,177.90001,-117.3,-12.3,,,,x,,
589473,-3.350797,15.536764,-7.44688,-1.189032,-8.582372,5.86894,180.3,-124.50001,-12.3,,,,x,,
589533,-2.1096504,13.443861,-7.7704754,0.95274997,-7.644866,5.10674,156.3,-129.3,-18.300001,,,,x,,
589584,-0.66752756,11.478364,-7.439104,0.81555396,-1.8673899,5.243936,156.3,-138.90001,-18.300001,,,,x,,
589605,-0.47671995,10.595505,-7.2142024,0.47256398,-1.3414719,5.990892,146.70001,-134.1,-17.1,,,,x,,
589645,0.4175038,10.910128,-6.550264,-0.47256398,0.47256398,5.312534,127.50001,-146.1,-14.1,,,,x,,
589665,0.28112718,9.993175,-6.529329,-0.967994,1.150922,3.986306,120.3,-153.3,-17.7,,,,x,,
589685,0.1447506,9.0511,-6.028683,-1.56251,1.326228,3.7271578,122.700005,-150.90001,-17.7,,,,x,,
589708,0.34692293,8.566604,-5.10515,-2.2027578,1.3490939,3.574718,115.50001,-136.5,-23.1,,,,x,,
589728,0.117236026,7.329644,-4.224086,-2.576236,2.7896519,2.2103798,129.90001,-146.1,-18.900002,,,,x,,
589748,0.60232997,7.132257,-4.410108,-1.661596,4.413138,2.370442,127.50001,-148.5,-16.5,,,,x,,
589768,0.37563378,6.7428656,-4.1188126,-1.173788,4.519846,2.2103798,117.9,-158.1,-27.300001,,,,x,,
589792,0.45458865,6.133358,-3.5021272,-1.250008,4.283564,2.492394,134.70001,-160.5,-19.5,,,,x,,
589812,0.6304427,5.680564,-2.7018118,-1.745438,4.352162,2.660078,115.50001,-153.3,-23.1,,,,x,,
589833,1.0652926,4.396949,-2.1012762,-1.661596,5.807964,3.01069,117.9,-153.3,-15.3,,,,x,,
589853,1.5324423,4.818042,-1.7477738,-1.089946,6.28815,3.483254,98.700005,-160.5,-20.7,,,,x,,
589873,1.3129238,4.6708984,-1.5001426,-0.60976,6.730226,2.538126,103.50001,-160.5,-21.300001,,,,x,,
589894,1.2919888,4.2480116,-1.1304902,-0.20579399,6.59303,1.547266,105.9,-155.70001,-18.300001,,,,x,,
589956,1.4481041,3.9172382,-0.4689441,-0.640248,6.3719916,0.708846,77.100006,-160.5,-10.5,,,,x,,
590005,1.6939409,5.2056384,-0.2643792,-1.196654,5.5945477,-0.426832,86.700005,-165.3,-9.900001,,,,x,,
590045,1.6036214,6.903766,-0.62805015,-0.739334,4.53509,-0.67073596,93.9,-177.3,-13.500001,,,,x,,
590065,1.6281452,7.6454635,-1.0928072,-0.121952,3.551852,-0.55640596,89.100006,-153.3,-19.5,,,,x,,
590085,1.3057461,8.340506,-1.2333708,0.327746,2.446662,-0.480186,91.5,-162.90001,-11.700001,,,,x,,
590125,0.65616286,9.590026,-2.10008,0.388722,0.94512796,-0.45731997,89.100006,-158.1,-18.900002,,,,x,,
590145,0.79553014,10.307797,-2.372235,0.243904,0.47256398,-0.81555396,89.100006,-155.70001,-23.1,,,,x,,
590165,0.5664414,10.251573,-2.8040943,-0.365856,-0.16768399,-1.692084,93.9,-170.1,-14.700001,,,,x,,
590185,0.41690564,9.277198,-2.8232348,-0.396344,-1.013726,-2.004586,96.3,-165.3,-15.3,,,,,,
590205,0.5885727,9.029567,-2.5702202,-0.49543,-1.547266,-0.998482,98.700005,-165.3,-16.5,,,,,,
590225,0.8092874,9.0110235,-2.3070374,-0.93750596,-1.1204339,-0.26677,101.100006,-148.5,-14.1,,,,,,
590245,0.93071043,9.006837,-2.3375428,-1.158544,-0.30488,-0.030488,91.5,-165.3,-17.7,,,,,,
590305,0.9354956,8.66111,-2.1778386,0.17530599,-0.28201398,1.326228,96.3,-150.90001,-11.700001,,,,,,
590326,0.8266336,8.799879,-2.1826236,0.15244,-0.388722,1.272874,93.9,-167.70001,-20.1,,,,,,
590346,0.91994387,9.441687,-2.719158,0.23628199,-0.41158798,0.259148,105.9,-162.90001,-21.300001,,,,,,
590366,0.8882423,8.348282,-2.3399353,0.72409,-1.265252,-0.33536798,84.3,-158.1,-23.1,,,,,,
590386,1.041965,9.323853,-2.8758714,0.579272,-0.72409,0.663114,101.100006,-155.70001,-17.1,,,,,,
590410,1.0138524,8.955995,-2.986528,0.312502,-0.846042,0.68597996,96.3,-160.5,-15.900001,,,,,,
590433,1.2746427,9.493725,-3.0738568,0.388722,-0.891774,0.68597996,96.3,-160.5,-16.5,,,,,,
590453,1.4247766,9.489538,-3.0277996,0.320124,-0.907018,-0.007622,84.3,-146.1,-6.3,,,,,,
590473,1.3769251,9.126466,-3.0571086,0.251526,-0.769822,-0.716468,81.9,-160.5,-11.1,,,,,,
590497,1.4086267,8.900368,-3.1767373,0.525918,-0.655492,-0.579272,96.3,-158.1,-11.700001,,,,,,
590517,1.2620816,8.440395,-3.0864177,0.47256398,-0.739334,-0.243904,98.700005,-155.70001,-11.1,,,,,,
590537,1.3661586,8.81603,-3.1073527,0.426832,-0.45731997,0.251526,93.9,-158.1,-17.1,,,,x,,
590557,1.2471281,8.958985,-3.5003326,0.030488,0.17530599,-0.434454,93.9,-162.90001,-14.700001,,,,x,,
590577,1.79084,9.07024,-3.6008208,0.137196,0.602138,-0.868908,93.9,-153.3,-12.900001,,,,x,,
590597,1.6831744,8.964967,-3.8275168,-0.373478,1.1051899,-0.891774,103.50001,-165.3,-8.700001,,,,x,,
590617,1.8829541,8.907545,-4.4029303,-0.510674,2.09605,-1.082324,96.3,-160.5,-14.700001,,,,x,,
590641,2.4529843,9.127064,-5.066271,-0.41158798,2.621968,-1.547266,93.9,-148.5,-15.3,,,,x,,
590661,2.882451,8.302822,-5.1936755,-0.106708,2.644834,-2.065562,98.700005,-158.1,-14.1,,,,x,,
590682,3.1934853,7.8225136,-4.259376,-0.17530599,1.3719599,-1.288118,91.5,-153.3,-15.3,,,,x,,
590702,4.130177,7.9020667,-3.6008208,-0.92988396,2.500016,-1.707328,91.5,-158.1,-17.7,,,,x,,
590722,4.5082035,7.222576,-3.3041418,-0.28201398,3.841488,-3.109776,101.100006,-167.70001,-15.900001,,,,x,,
590782,4.4621468,4.831799,-0.77459514,0.060976,7.896392,-5.5335717,122.700005,-160.5,-13.500001,,,,x,,
590802,4.1241956,4.3574715,-0.52516955,0.30488,9.443658,-6.349126,117.9,-150.90001,-6.3,,,,x,,
590822,3.3328526,3.3777134,-0.22250919,0.769822,10.487872,-7.6067557,117.9,-138.90001,-13.500001,,,,x,,
590885,0.074169725,3.0511272,-0.3050529,2.942092,8.757678,-7.370474,122.700005,-136.5,-6.9,,,,x,,
590905,-0.4970568,3.0858195,-0.14116174,2.903982,6.9893737,-7.057972,132.3,-146.1,-3.3000002,,,,x,,
590925,-1.0120579,4.7749753,-0.1782466,3.2469718,5.632658,-5.312534,134.70001,-136.5,0.3,,,,x,,
590965,-2.936882,5.973654,-0.5796005,1.6539739,2.332332,-5.9527817,141.90001,-141.3,-4.5,,,,x,,
590986,-3.710879,7.0682554,-0.9887303,1.280496,1.6387299,-4.618932,137.1,-131.70001,-0.90000004,,,,x,,
591006,-4.4621468,8.890797,-2.146137,0.92988396,1.3490939,-3.567096,134.70001,-119.700005,-2.1000001,,,,x,,
591026,-4.5040164,10.229441,-2.7759814,0.541162,-0.846042,-3.35368,153.90001,-110.100006,1.5,,,,x,,
591046,-5.270836,8.678456,-3.259879,0.769822,-1.928366,-4.0472817,165.90001,-119.700005,-2.1000001,,,,x,,
591066,-5.5549536,9.054688,-3.5362213,1.814036,-3.948196,-1.8673899,161.1,-117.3,-3.9,,,,x,,
591086,-4.492652,10.8251915,-3.017033,1.455802,-6.02138,-0.106708,153.90001,-117.3,0.3,,,,x,,
591107,-4.547083,10.589523,-2.7478688,0.33536798,-5.5488157,-1.06708,161.1,-117.3,-8.1,,,,x,,
591127,-5.5328226,9.497912,-4.078139,0.70122397,-4.4512477,-0.975616,146.70001,-110.100006,0.3,,,,x,,
591147,-4.849145,9.870555,-5.0052605,2.97258,-6.577786,1.56251,168.3,-105.3,-2.7,,,,x,,
591167,-3.8263206,11.662592,-3.5463896,1.935988,-9.550365,3.50612,165.90001,-117.3,-7.5000005,,,,x,,
591187,-3.9226215,11.928167,-3.8400779,-0.259148,-7.4390717,2.446662,168.3,-107.700005,-7.5000005,,,,x,,
591211,-4.301844,11.633881,-5.3150983,0.45731997,-6.608274,2.187514,158.70001,-112.50001,-6.9,,,,x,,
591231,-3.9369771,11.121272,-5.7924166,0.92226195,-8.643348,3.414656,180.3,-117.3,-2.7,,,,x,,
591251,-3.442911,12.449748,-5.321678,0.3811,-9.466524,5.0381417,153.90001,-126.9,-2.1000001,,,,x,,
591315,-5.593235,12.17221,-9.040931,0.57164997,-5.434486,4.5427117,156.3,-126.9,-17.1,,,,x,,
591335,-2.326178,17.056047,-10.312583,-0.30488,-11.554952,8.239382,153.90001,-129.3,-10.5,,,,x,,
591358,-1.903291,17.985561,-5.78165,-4.664664,-18.003164,4.0625257,163.5,-131.70001,-17.7,,,,x,,
591378,-3.4046297,13.84701,-6.848139,-4.161612,-7.4848037,0.525918,151.5,-136.5,-17.1,,,,x,,
591398,-3.3089268,13.603565,-9.124073,-1.814036,-7.705842,3.7652678,158.70001,-134.1,-16.5,,,,x,,
591418,-2.1569035,15.520016,-6.8816347,-2.050318,-12.972644,6.501566,153.90001,-141.3,-23.1,,,,x,,
591442,-1.3918787,16.502167,-5.7792573,-2.644834,-9.443658,4.969544,156.3,-122.100006,-26.7,,,,x,,
591463,-1.6640338,14.124548,-7.0778255,-1.79117,-5.5183277,2.873494,156.3,-131.70001,-22.5,,,,x,,
591483,-1.5892658,13.943311,-7.6663985,-0.083841994,-5.5183277,4.321674,134.70001,-148.5,-21.900002,,,,x,,
591503,-1.1101533,14.6371565,-6.877448,-0.07622,-5.975648,5.3811316,144.3,-143.70001,-24.900002,,,,x,,
591526,-0.63403153,13.692689,-5.940756,-1.8978779,-3.62045,4.618932,122.700005,-148.5,-30.300001,,,,x,,
591546,-0.5843857,12.349259,-5.861801,-1.8521459,-2.01983,3.7805119,122.700005,-150.90001,-22.5,,,,x,,
591566,-0.4438221,11.633881,-5.640488,-1.3948259,-1.272874,4.184478,122.700005,-153.3,-20.1,,,,x,,
591586,0.04605701,11.211592,-5.2690415,-1.1280559,-0.67835796,4.80186,125.100006,-150.90001,-16.5,,,,x,,
591609,0.072973445,10.351462,-4.690039,-0.655492,-0.068598,4.565578,120.3,-162.90001,-18.300001,,,,x,,
591629,0.043066293,9.229346,-4.486072,-0.137196,1.33385,4.03966,117.9,-146.1,-25.500002,,,,x,,
591649,0.90140146,9.027772,-4.546485,0.82317597,1.966476,4.0320377,122.700005,-158.1,-18.900002,,,,x,,
591669,1.0012913,8.069547,-4.268348,1.158544,2.416174,2.888738,105.9,-158.1,-20.1,,,,x,,
591689,1.3410366,7.9517126,-4.3335457,1.158544,3.475632,3.140264,93.9,-150.90001,-23.1,,,,x,,
591753,0.9241309,4.3054333,-2.7472706,0.746956,3.7881339,-0.525918,117.9,-158.1,-26.1,,,,x,,
591805,1.5575643,4.1152234,-1.3691492,0.243904,5.4116197,2.355198,101.100006,-155.70001,-20.7,,,,x,,
591825,1.782466,4.0930924,-1.0724703,-0.487808,6.4786997,2.32471,98.700005,-160.5,-20.7,,,,x,,
591865,1.7651199,4.0607924,-0.7997171,-0.868908,7.5000477,1.318606,89.100006,-165.3,-17.1,,,,x,,
591888,2.1443427,4.693628,-0.619078,-0.49543,7.157058,1.013726,93.9,-165.3,-15.900001,,,,x,,
591908,2.1844182,4.9209223,-0.3774282,-0.46494198,7.0655937,-0.274392,81.9,-158.1,-20.7,,,,x,,
591928,2.019929,4.9221187,-0.3858022,-0.221038,6.966508,-1.5244,98.700005,-153.3,-19.5,,,,x,,
591950,2.0480416,5.5914407,-0.28351977,0.182928,6.638762,-1.974098,86.700005,-160.5,-24.300001,,,,x,,
591970,1.5629476,5.906662,-0.46475708,0.17530599,6.471078,-2.835384,81.9,-162.90001,-12.900001,,,,x,,
591993,1.0736667,7.151397,-1.0820407,0.891774,5.4878397,-1.760682,77.100006,-162.90001,-11.700001,,,,x,,
592013,0.79134315,7.5820603,-1.1424531,0.518296,4.679908,-1.6234859,98.700005,-165.3,-18.900002,,,,x,,
592033,0.72435117,7.978031,-1.1526215,0.182928,4.329296,-1.227142,96.3,-155.70001,-18.900002,,,,x,,
592053,0.4019521,8.689223,-1.8022047,0.221038,4.329296,-1.021348,103.50001,-155.70001,-21.900002,,,,x,,
592073,0.27514577,9.16056,-2.2394474,0.53354,3.437522,-0.87653,98.700005,-155.70001,-23.1,,,,x,,
592094,0.6573591,9.807751,-2.4254696,0.640248,2.408552,-0.426832,69.9,-155.70001,-20.7,,,,x,,
592114,0.68128484,10.172019,-2.2819154,-0.045732,1.1128119,-0.221038,91.5,-172.5,-11.700001,,,,x,,
592179,0.37324122,8.918312,-2.9482467,-0.022866,-1.280496,-0.830798,86.700005,-158.1,-18.300001,,,,x,,
592230,0.7201641,8.973341,-2.4751155,-0.579272,-1.478668,-0.64787,105.9,-174.90001,-17.7,,,,x,,
592251,0.57122654,9.215589,-2.7251394,-0.731712,-0.92226195,-0.64787,98.700005,-158.1,-12.3,,,,x,,
592291,0.56703955,8.650942,-2.7646167,-0.487808,-1.478668,-0.358234,101.100006,-162.90001,-19.5,,,,,,
592311,0.6477888,8.472695,-2.6677177,-0.068598,-1.745438,0.297258,98.700005,-155.70001,-11.700001,,,,,,
592331,0.6292464,8.596511,-2.8316088,0.07622,-1.8521459,0.7622,93.9,-174.90001,-21.900002,,,,,,
592353,0.91097176,8.982911,-2.8621142,0.49543,-1.928366,0.884152,98.700005,-153.3,-14.700001,,,,,,
592373,1.2076507,9.439893,-3.1145306,0.510674,-1.684462,0.632626,86.700005,-162.90001,-21.900002,,,,,,
592393,1.3296719,8.9787245,-3.1773355,0.640248,-1.547266,0.22865999,91.5,-160.5,-11.1,,,,,,
592414,1.4774132,8.955397,-3.0780437,0.975616,-1.44818,0.548784,101.100006,-155.70001,-16.5,,,,,,
592434,1.6173786,9.041529,-3.0971844,0.586894,-0.80030996,0.655492,89.100006,-158.1,-21.900002,,,,,,
592454,1.6125934,9.090577,-3.1264932,0.17530599,-0.34298998,0.373478,89.100006,-153.3,-21.900002,,,,,,
592474,1.5384238,9.16056,-3.2239907,-0.297258,-0.015244,-0.060976,91.5,-155.70001,-20.7,,,,,,
592517,0.96420646,8.945827,-3.1988685,-1.234764,0.34298998,-0.861286,93.9,-167.70001,-19.5,,,,,,
592537,0.8601296,9.149195,-3.1348674,-1.1204339,0.41158798,-0.80030996,91.5,-167.70001,-15.900001,,,,,,
592581,0.95702875,8.66111,-2.623455,-0.846042,0.17530599,-0.792688,96.3,-174.90001,-13.500001,,,,,,
592601,1.0006932,8.739467,-2.551678,-0.442076,0.396344,-0.20579399,91.5,-162.90001,-20.1,,,,,,
592621,0.9983006,8.888405,-2.64439,-0.22865999,0.487808,0.03811,93.9,-153.3,-11.1,,,,,,
592645,0.7476787,8.633595,-2.7646167,-0.106708,0.373478,0.060976,93.9,-146.1,-13.500001,,,,,,
592705,1.2208098,8.757411,-3.0313885,-0.34298998,-0.007622,-0.388722,105.9,-162.90001,-8.700001,,,,x,,
592725,1.3392421,8.781337,-3.125297,-0.442076,0.137196,-0.434454,115.50001,-146.1,-14.700001,,,,x,,
592745,1.8578321,9.298133,-3.3795078,-0.259148,0.49543,-0.579272,84.3,-153.3,-11.700001,,,,x,,
592768,2.2741396,8.187979,-3.477005,-0.67073596,1.806414,-1.3719599,91.5,-160.5,-13.500001,,,,x,,
592830,5.935373,10.560812,-3.987221,1.8597679,4.30643,0.11432999,84.3,-150.90001,-12.3,,,,x,,
592850,6.029281,9.320862,-3.2329628,0.47256398,6.349126,-4.26832,105.9,-162.90001,-12.3,,,,x,,
592870,5.5328226,6.9498234,-2.8752732,0.083841994,8.483286,-6.3719916,108.3,-155.70001,-22.5,,,,x,,
592894,4.8993893,5.5956273,-2.5235653,-0.007622,9.832379,-6.4939437,96.3,-158.1,-3.3000002,,,,x,,
592914,4.3036385,4.376612,-1.945161,-0.289636,10.564092,-6.227174,103.50001,-153.3,-10.5,,,,x,,
592934,3.3238804,3.5433989,-1.4427209,-0.129574,11.029034,-6.0290017,105.9,-150.90001,-14.1,,,,x,,
592954,2.3668518,3.142045,-0.7829692,0.20579399,10.807996,-6.0137577,115.50001,-148.5,-12.3,,,,x,,
592974,1.8578321,3.4596589,-0.37922263,0.548784,10.503116,-5.960404,122.700005,-148.5,-6.3,,,,x,,
592995,0.82902616,2.7251394,0.013159146,1.173788,9.321706,-7.5457797,129.90001,-146.1,-6.3,,,,x,,
593015,-0.12919888,2.3949645,-0.11304902,2.164648,8.1555395,-7.92688,141.90001,-136.5,-5.1000004,,,,x,,
593057,-1.0646945,5.166759,0.32658607,3.041178,2.2713559,-6.181442,139.5,-129.3,-7.5000005,,,,x,,
593119,-4.6068974,4.9556146,-1.029404,2.408552,-1.707328,-5.960404,153.90001,-119.700005,-4.5,,,,x,,
593139,-5.0806265,6.4701123,-1.3165127,1.783548,-2.919226,-4.085392,153.90001,-124.50001,-3.3000002,,,,x,,
593159,-5.3563704,7.6053877,-2.1078558,1.775926,-2.911604,-3.574718,158.70001,-122.100006,2.7,,,,x,,
593179,-5.2008533,7.9965734,-2.3118227,1.996964,-4.352162,-2.385686,165.90001,-117.3,-3.9,,,,x,,
593199,-4.1331677,9.552941,-2.3734312,1.532022,-5.190582,-0.11432999,165.90001,-126.9,-8.1,,,,x,,
593221,-3.8861349,11.335407,-2.062397,0.373478,-5.731744,0.19055,173.1,-107.700005,-0.3,,,,x,,
593281,-5.553159,12.086675,-4.179823,0.731712,-6.3872356,0.716468,175.5,-107.700005,-6.9,,,,x,,
593307,-5.3952494,13.833851,-3.2275794,-0.754578,-7.225656,2.050318,161.1,-117.3,-8.1,,,,x,,
593327,-6.8295965,12.955777,-4.677478,-0.617382,-4.100636,0.35061198,170.70001,-119.700005,-6.3,,,,x,,
593367,-4.648767,14.120959,-4.4872684,-0.708846,-11.128119,4.024416,182.70001,-117.3,-7.5000005,,,,x,,
593410,-5.1476183,13.434889,-5.3707256,-1.669218,-9.22262,4.855214,168.3,-114.9,-4.5,,,,x,,
593430,-3.5828764,13.979199,-4.395753,-2.2027578,-11.097631,4.169234,185.1,-122.100006,-18.300001,,,,x,,
593450,-3.9268086,11.654816,-5.769687,0.068598,-7.0960817,2.980202,158.70001,-114.9,-12.900001,,,,x,,
593492,-1.7962234,16.587702,-7.4361134,1.158544,-10.2897,8.19365,163.5,-131.70001,-14.1,,,,x,,
593512,-3.4279573,14.772337,-7.201043,1.051836,-6.02138,2.980202,163.5,-126.9,-17.1,,,,x,,
593533,-2.6964285,15.674336,-10.085887,2.187514,-6.13571,5.815586,158.70001,-126.9,-16.5,,,,x,,
593553,-1.9720774,16.341864,-8.186185,0.388722,-9.626586,4.641798,165.90001,-124.50001,-9.3,,,,x,,
593573,-2.1658757,16.337677,-8.637184,0.861286,-6.737848,3.6738038,141.90001,-131.70001,-11.700001,,,,x,,
593614,-1.7244462,14.783104,-7.9020667,-0.777444,-6.844556,4.740884,156.3,-129.3,-17.1,,,,x,,
593655,-0.9719823,13.855384,-7.9349647,-1.730194,-5.137228,4.824726,137.1,-146.1,-21.300001,,,,x,,
593676,-0.68606997,12.872635,-6.6866403,-3.003068,-4.939056,4.23021,141.90001,-155.70001,-14.700001,,,,x,,
593696,-0.3002678,11.496308,-6.5831614,-3.2393498,-2.7439198,3.521364,127.50001,-141.3,-26.7,,,,x,,
593716,0.18662061,10.840743,-6.772773,-2.454284,-1.775926,3.88722,129.90001,-141.3,-23.7,,,,x,,
593736,-0.029907148,9.861583,-6.291866,-2.332332,-1.67684,4.4664917,129.90001,-150.90001,-23.1,,,,x,,
593776,0.76801556,9.196448,-4.6284304,-2.7820299,0.41158798,4.38265,122.700005,-143.70001,-24.300001,,,,x,,
593796,1.0784518,8.296842,-4.588953,-2.01983,2.6905658,3.7500238,127.50001,-146.1,-17.7,,,,x,,
593816,0.8792702,7.698698,-4.4442024,-1.577754,3.330814,3.2850819,120.3,-160.5,-17.7,,,,x,,
593836,0.92951417,6.7996893,-3.782058,-1.44818,3.01069,2.6829438,105.9,-165.3,-23.1,,,,x,,
593856,1.2232023,6.310408,-3.0427532,-1.310984,3.08691,2.545748,101.100006,-148.5,-17.1,,,,x,,
593880,1.619173,5.766098,-2.1981754,-0.792688,3.7576458,1.8978779,98.700005,-160.5,-23.1,,,,x,,
593901,1.6616411,5.065673,-1.4833946,-0.068598,4.11588,1.196654,101.100006,-172.5,-20.1,,,,x,,
593922,1.5575643,4.8497434,-1.07905,0.388722,5.121984,0.87653,105.9,-165.3,-20.1,,,,x,,
593942,1.1263032,4.188197,-0.90140146,0.3811,6.280528,0.022866,98.700005,-153.3,-15.900001,,,,x,,
593962,0.8882423,3.422574,-0.7058087,0.640248,6.6006517,-0.33536798,108.3,-162.90001,-24.300001,,,,x,,
593982,0.95942134,3.3460119,-0.40494278,0.891774,6.981752,0.28201398,96.3,-162.90001,-17.1,,,,x,,
594002,0.9073829,3.5433989,-0.47971067,1.02897,7.057972,0.525918,96.3,-165.3,-20.7,,,,x,,
594022,1.2393522,4.041652,-0.0681883,1.5929979,5.83083,0.655492,86.700005,-160.5,-15.3,,,,x,,
594082,1.9948068,5.3396225,0.35469878,1.272874,5.853696,-0.91463995,101.100006,-167.70001,-14.1,,,,x,,
594104,1.439132,5.1488147,-0.13996546,0.777444,5.9680257,-2.2713559,101.100006,-160.5,-12.900001,,,,x,,
594124,1.4104211,6.26794,-0.6890607,1.272874,5.251558,-1.3719599,79.5,-170.1,-15.3,,,,x,,
594144,0.79852086,7.183099,-1.8889354,0.56402797,4.199722,-0.358234,93.9,-172.5,-14.700001,,,,x,,
594165,1.1801361,7.994779,-1.6634356,1.166166,3.140264,0.373478,86.700005,-153.3,-17.1,,,,x,,
594185,1.4319543,9.385462,-1.8973095,1.173788,2.995446,0.891774,96.3,-165.3,-15.3,,,,x,,
594207,1.1603974,9.961473,-2.4547787,0.434454,2.881116,0.45731997,91.5,-155.70001,-15.900001,,,,x,,
594227,0.8296243,9.6588125,-2.497247,0.068598,1.920744,-0.3811,96.3,-155.70001,-14.700001,,,,x,,
594247,0.73272514,9.09297,-2.5869684,-0.160062,1.6158639,-0.83842,103.50001,-162.90001,-18.900002,,,,x,,
594267,0.8978126,9.402209,-3.03737,0.19055,0.960372,-0.46494198,93.9,-162.90001,-16.5,,,,x,,
594291,1.0599093,9.752123,-2.7855518,0.221038,-0.769822,-0.068598,79.5,-153.3,-15.3,,,,x,,
594311,1.0742648,9.438098,-2.61867,-0.137196,-0.93750596,-0.708846,89.100006,-170.1,-13.500001,,,,x,,
594331,1.23038,8.945827,-2.2490175,0.022866,-1.211898,-1.021348,86.700005,-162.90001,-11.700001,,,,x,,
594351,0.97616935,8.544473,-2.2861025,-0.625004,-0.30488,-0.792688,108.3,-150.90001,-14.700001,,,,,,
594375,0.84039086,8.748439,-2.6826713,-0.625004,0.083841994,-0.144818,101.100006,-160.5,-13.500001,,,,,,
594395,0.91515875,8.836366,-2.8591235,-0.129574,-0.23628199,0.34298998,101.100006,-155.70001,-6.3,,,,,,
594418,0.93429935,8.708364,-2.606109,0.198172,-0.99086,1.013726,84.3,-162.90001,-19.5,,,,,,
594438,0.9731786,9.063063,-2.6551566,-0.129574,-0.907018,1.051836,103.50001,-155.70001,-9.3,,,,,,
594458,1.0808444,9.12168,-2.924321,-0.30488,-0.594516,0.716468,96.3,-155.70001,-9.3,,,,,,
594480,1.0264133,9.159962,-3.1952798,-0.15244,-0.69360197,0.45731997,96.3,-158.1,-9.3,,,,,,
594500,1.0999849,8.834572,-3.259879,0.015244,-1.196654,0.3811,96.3,-162.90001,-15.3,,,,,,
594521,1.3284756,9.184485,-3.1217082,0.053354,-1.570132,0.72409,93.9,-170.1,-16.5,,,,,,
594541,1.3039516,9.3130865,-2.9919112,-0.099086,-1.326228,0.23628199,77.100006,-155.70001,-18.300001,,,,,,
594563,1.5055258,9.088782,-2.8058887,0.060976,-1.044214,-0.34298998,98.700005,-165.3,-11.1,,,,,,
594583,0.8487649,8.206522,-3.0523236,0.289636,-0.34298998,-0.846042,79.5,-158.1,-15.900001,,,,,,
594605,0.46176636,8.034855,-3.4506867,0.94512796,-1.089946,0.442076,81.9,-155.70001,-11.1,,,,,,
594625,0.773997,8.896778,-2.798711,1.318606,-2.614346,1.455802,81.9,-165.3,-9.900001,,,,,,
594646,1.2734464,9.12168,-2.5552669,0.327746,-2.317088,0.625004,93.9,-165.3,-8.1,,,,,,
594666,1.3123257,8.949415,-2.6623344,0.045732,-1.996964,0.23628199,74.700005,-153.3,-12.900001,,,,,,
594686,1.4786094,8.889601,-2.9051805,0.11432999,-1.41007,-0.510674,86.700005,-155.70001,-9.3,,,,,,
594706,1.4044397,8.46133,-2.9554243,-0.045732,-0.907018,-0.746956,96.3,-158.1,-12.3,,,,,,
594726,1.2596891,8.210709,-3.2730384,0.068598,-0.144818,-0.785066,89.100006,-158.1,-19.5,,,,,,
594746,1.409823,8.8489275,-3.6151762,0.41158798,0.07622,-0.45731997,91.5,-155.70001,-11.1,,,,,,
594768,1.2710538,9.206018,-4.205543,0.64787,0.35061198,-0.80030996,89.100006,-158.1,-8.700001,,,,,,
594809,1.6472857,8.637184,-4.6756835,0.47256398,0.95274997,-0.87653,96.3,-165.3,-12.3,,,,x,,
594871,3.4883697,7.6741743,-4.9370723,0.830798,1.204276,0.121952,93.9,-155.70001,-15.900001,,,,x,,
594891,4.2773204,7.73997,-4.5584474,1.3719599,2.2180018,0.41921,98.700005,-143.70001,-11.700001,,,,x,,
594911,4.8886223,7.9588904,-3.5577543,1.920744,2.843006,-0.259148,101.100006,-158.1,-11.1,,,,x,,
594931,4.8341913,6.885822,-2.68626,1.6311079,5.000032,-2.47715,84.3,-155.70001,-4.5,,,,x,,
594955,4.405323,5.5585427,-2.7682056,1.516778,7.766818,-5.312534,101.100006,-158.1,-9.900001,,,,x,,
594975,4.1068497,4.6756835,-2.313617,0.80030996,8.391822,-6.74547,105.9,-155.70001,-8.700001,,,,x,,
594995,3.3190954,4.0249043,-2.308832,-0.144818,9.230242,-7.8125496,93.9,-153.3,-9.3,,,,x,,
595015,2.8914232,3.5105011,-2.0055733,-0.19055,8.795788,-8.544262,105.9,-129.3,-10.5,,,,x,,
595035,2.2232974,2.802898,-1.4175988,-0.60976,8.1250515,-9.054935,113.100006,-143.70001,-10.5,,,,x,,
595055,0.958225,1.7376053,-0.8930275,-0.899396,7.50767,-9.535122,115.50001,-141.3,-7.5000005,,,,x,,
595075,-0.17764847,1.4971519,-0.48629025,-0.060976,6.4939437,-8.666214,117.9,-141.3,-8.1,,,,x,,
595095,-0.9785619,2.5199764,-0.4384388,0.739334,5.403998,-8.1555395,129.90001,-134.1,-11.1,,,,x,,
595115,-1.3248867,3.4183872,-0.5843857,1.417692,4.0167937,-7.4390717,127.50001,-141.3,-6.3,,,,x,,
595138,-1.8063917,5.7756686,-0.48449582,1.707328,1.974098,-6.0442457,139.5,-129.3,-6.3,,,,x,,
595158,-2.606707,5.6721897,-0.1489376,1.211898,0.26677,-7.248522,146.70001,-136.5,-2.1000001,,,,x,,
595220,-4.320387,8.033658,-0.9773656,0.91463995,-1.6158639,-5.731744,156.3,-119.700005,-0.3,,,,x,,
595242,-4.1726456,9.545764,-1.3607752,1.196654,-3.894842,-3.147886,153.90001,-105.3,-0.90000004,,,,x,,
595263,-5.0261955,8.939247,-0.5335435,0.82317597,-5.807964,-3.643316,168.3,-119.700005,-8.700001,,,,x,,
595283,-6.0855064,10.489036,-2.0139475,1.44818,-5.22107,-1.6463519,175.5,-112.50001,-5.1000004,,,,x,,
595304,-6.2266684,12.324736,-3.6295316,1.692084,-6.3872356,-1.1356779,173.1,-119.700005,-2.7,,,,x,,
595324,-6.4928417,11.163142,-3.4799957,2.865872,-9.809514,-1.25763,180.3,-112.50001,-0.90000004,,,,x,,
595345,-5.653049,12.940824,-3.347208,2.827762,-11.067143,1.768304,180.3,-107.700005,-5.7000003,,,,x,,
595365,-5.4795876,13.781214,-2.9338913,0.56402797,-10.579336,1.3795819,185.1,-110.100006,-2.1000001,,,,x,,
595385,-7.1226864,10.594308,-4.598523,0.868908,-6.6006517,-0.26677,194.70001,-107.700005,-8.1,,,,x,,
595405,-7.736381,11.813922,-6.998273,3.39179,-6.547298,3.993928,189.90001,-107.700005,-11.1,,,,x,,
595426,-5.8749604,15.039707,-6.626228,1.1128119,-12.103736,6.227174,177.90001,-117.3,-8.1,,,,x,,
595446,-5.3025374,14.8201885,-4.5488772,-1.06708,-12.202822,3.407034,177.90001,-117.3,-17.1,,,,x,,
595466,-7.8805337,12.562199,-7.068854,-0.64787,-6.318638,2.545748,189.90001,-122.100006,-19.5,,,,x,,
595526,-4.2791147,15.969819,-5.8558197,-1.684462,-9.786648,5.5793037,173.1,-131.70001,-15.3,,,,x,,
595546,-5.0291862,14.304589,-8.188578,-0.92226195,-5.3658876,5.37351,158.70001,-114.9,-11.1,,,,x,,
595566,-3.7126734,15.927351,-9.027772,0.28201398,-7.728708,6.9436417,158.70001,-141.3,-11.700001,,,,x,,
595586,-3.3496006,15.681515,-8.067154,0.40396598,-7.6067557,5.663146,163.5,-122.100006,-19.5,,,,x,,
595609,-3.095988,15.469771,-8.39075,0.28201398,-5.3963757,4.923812,161.1,-129.3,-21.300001,,,,x,,
595629,-2.4045348,13.925964,-9.082801,0.34298998,-4.5274677,5.4878397,156.3,-131.70001,-16.5,,,,x,,
595649,-1.4678428,14.061743,-8.545071,-0.144818,-4.443626,6.768336,144.3,-141.3,-21.300001,,,,x,,
595669,-1.1693695,13.715418,-8.206522,-0.518296,-3.971062,6.798824,137.1,-146.1,-14.1,,,,x,,
595689,-0.45159793,12.891775,-7.71425,-1.3490939,-2.2637339,6.768336,134.70001,-155.70001,-20.1,,,,x,,
595709,-0.117834166,12.056767,-7.2261653,-1.775926,-1.150922,6.150954,144.3,-150.90001,-23.1,,,,x,,
595731,0.43305552,10.078111,-6.5682077,-1.75306,0.34298998,5.25918,127.50001,-143.70001,-21.300001,,,,x,,
595751,0.55507666,9.414172,-6.187191,-2.164648,1.440558,5.79272,122.700005,-150.90001,-15.900001,,,,x,,
595771,0.8589333,8.943434,-5.53043,-2.09605,1.8673899,5.731744,120.3,-148.5,-18.900002,,,,x,,
595815,1.2094451,7.609575,-5.154796,-1.303362,3.605206,4.199722,113.100006,-143.70001,-23.7,,,,x,,
