time,sensor_accX,sensor_accY,sensor_accZ,sensor_gyroX,sensor_gyroY,sensor_gyroZ,sensor_magX,sensor_magY,sensor_magZ,label_Boxing_slip_left,label_Boxing_slip_right,label_Boxing_pullback,label_Boxing_roll_left,label_Boxing_roll_right,label_Boxing_recording_cut
1365439,1.6556598,8.899171,-4.0595965,0.68597996,-0.518296,-2.59148,48.300003,-162.90001,-23.7,,,,,,
1365459,1.6969316,8.684438,-3.881948,0.099086,-0.16768399,-1.432936,69.9,-174.90001,-23.7,,,,,,
1365479,1.7842605,8.503201,-3.6911402,-0.30488,-0.221038,-0.70122397,79.5,-165.3,-15.900001,,,,,,
1365499,2.0259101,8.491836,-3.3071325,-0.53354,-0.320124,-0.213416,77.100006,-162.90001,-18.300001,,,,,,
1365519,2.3536925,8.7950945,-2.987126,-0.55640596,-0.34298998,-0.16768399,60.300003,-167.70001,-21.300001,,,,,,
1365539,2.5289485,8.283084,-2.6605399,-0.792688,-0.28201398,-0.602138,79.5,-172.5,-23.1,,,,,,
1365561,2.8351977,8.353066,-2.3213928,-0.632626,-0.259148,-0.56402797,74.700005,-167.70001,-21.900002,,,,,,
1365581,2.8621142,8.003751,-2.2107365,-0.67073596,0.045732,-0.92226195,74.700005,-174.90001,-23.7,,,,,,
1365602,3.3543859,8.515163,-2.1760442,-0.03811,-0.03811,-0.861286,77.100006,-170.1,-17.1,,,,,,
1365623,3.4333405,8.478079,-2.196381,0.060976,0.28201398,-1.3795819,81.9,-165.3,-11.1,,,,,,
1365643,3.882546,9.198242,-2.3489075,-0.106708,0.274392,-1.166166,79.5,-182.1,-18.300001,,,,,,
1365663,3.5679228,8.512173,-2.5839777,-0.586894,0.60976,-1.6387299,79.5,-170.1,-16.5,,,,,,
1365683,3.3669467,7.927189,-2.957219,-0.579272,0.17530599,-1.006104,79.5,-174.90001,-17.1,,,,,,
1365706,3.342423,8.185587,-2.8680956,-0.487808,-0.541162,-0.198172,77.100006,-162.90001,-16.5,,,,,,
1365726,3.2443275,8.268728,-2.802898,-0.56402797,-0.907018,0.251526,65.100006,-165.3,-13.500001,,,,,,
1365746,3.301151,8.475686,-2.4733212,-0.487808,-1.272874,0.396344,77.100006,-165.3,-12.3,,,,,,
1365766,3.1869059,8.566604,-2.3411317,-0.81555396,-0.830798,0.015244,81.9,-170.1,-12.900001,,,,,,
1365788,3.1354654,8.388357,-2.3542907,-0.26677,-0.69360197,-0.327746,81.9,-174.90001,-21.300001,,,,,,
1365808,3.6576443,9.726403,-2.7227468,0.49543,-0.663114,0.144818,84.3,-174.90001,-12.900001,,,,,,
1365828,3.3759189,9.343592,-2.3363464,0.198172,-0.708846,-0.746956,77.100006,-162.90001,-23.1,,,,,,
1365848,3.2024574,8.62582,-2.3495057,0.358234,-0.251526,-0.49543,79.5,-170.1,-18.900002,,,,,,
1365872,3.4147983,9.407593,-2.2837098,0.655492,-0.091464,-0.213416,91.5,-174.90001,-13.500001,,,,,,
1365892,3.4040318,9.727001,-2.459564,0.47256398,0.525918,-0.358234,81.9,-165.3,-24.300001,,,,,,
1365912,2.832207,9.46621,-2.4583676,0.327746,0.525918,-1.082324,77.100006,-172.5,-17.1,,,,,,
1365935,2.4069273,8.673073,-2.4278624,0.327746,0.632626,-1.3414719,93.9,-167.70001,-26.7,,,,,,
1365955,2.036677,9.1192875,-2.72813,0.548784,0.70122397,-1.06708,69.9,-170.1,-18.900002,,,,,,
1365975,1.4062341,9.038538,-2.970378,0.46494198,0.487808,-1.1128119,81.9,-162.90001,-16.5,,,,,,
1365995,1.0778537,9.500305,-3.1593912,0.53354,0.106708,-0.81555396,86.700005,-170.1,-15.3,,,,,,
1366015,0.38340965,9.261047,-3.2251868,0.068598,0.07622,-1.082324,89.100006,-177.3,-15.900001,,,,,,
1366035,-0.16807817,9.49552,-3.1958778,0.23628199,-0.49543,-0.632626,93.9,-172.5,-17.7,,,,,,
1366055,-0.41870007,9.423742,-3.0307903,-0.121952,-0.312502,-0.846042,93.9,-160.5,-24.300001,,,,,,
1366075,-0.8643166,8.827992,-3.020622,-0.243904,-0.03811,-1.211898,89.100006,-170.1,-21.300001,,,,,,
1366095,-1.6472857,7.974442,-2.9422653,-0.17530599,0.030488,-1.33385,86.700005,-170.1,-21.300001,,,,,,
1366115,-2.1646795,7.9511147,-2.9691818,0.045732,0.388722,-0.396344,86.700005,-165.3,-14.1,,,,,,
1366135,-1.8075881,9.214393,-3.0720623,0.083841994,0.23628199,0.320124,96.3,-167.70001,-14.1,,,,,,
1366155,-1.702913,9.633691,-2.9937055,-0.083841994,0.083841994,-0.28201398,101.100006,-160.5,-16.5,,,,,,
1366219,-1.8925244,9.214991,-3.070866,0.320124,-0.3811,-0.426832,91.5,-158.1,-14.1,,,,,,
1366259,-0.9791601,10.14929,-3.2066445,0.632626,-0.449698,-0.129574,89.100006,-162.90001,-14.1,,,,,,
1366296,-0.81945586,9.110315,-3.1408486,0.525918,-0.426832,-1.75306,89.100006,-162.90001,-21.300001,,,,,,
1366316,-0.539525,8.774757,-2.978154,0.754578,-0.34298998,-1.478668,91.5,-172.5,-15.3,,,,,,
1366358,0.039477438,9.037342,-2.95363,0.121952,0.503052,-1.006104,89.100006,-160.5,-18.900002,,,,,,
1366399,0.33196935,8.755018,-2.9440596,0.03811,0.716468,-1.044214,103.50001,-160.5,-17.7,,,,,,
1366498,2.159296,9.448865,-3.7958152,0.91463995,0.30488,-0.92226195,96.3,-172.5,-15.900001,,,,,,
1366536,2.6850638,8.948219,-3.242533,0.41921,-0.17530599,0.243904,108.3,-162.90001,-4.5,,,,,,
1366556,2.7622242,9.267029,-3.3208897,-0.28201398,0.373478,0.182928,98.700005,-162.90001,-12.3,,,,,,
1366599,2.1999698,8.105435,-3.0188277,-0.602138,0.03811,-1.478668,105.9,-162.90001,-16.5,,,,,,
1366641,1.5725179,6.1578817,-2.5403132,0.198172,-0.19055,-1.013726,113.100006,-158.1,-14.700001,,,,,,
1366661,1.6119953,7.2686334,-2.7586353,0.320124,0.22865999,0.846042,113.100006,-170.1,-14.1,,,,,,
1366681,2.8393848,12.11718,-4.1660657,1.6311079,1.425314,4.984788,101.100006,-160.5,-15.3,,,,,,
1366722,-0.5999374,4.0643816,-2.97935,2.995446,-1.8750119,-4.672286,117.9,-167.70001,-12.900001,,,,,,
1366762,1.2495207,12.259539,-3.4076204,-1.417692,-1.036592,1.8369019,113.100006,-158.1,-15.900001,,,,,,
1366858,-0.4300648,8.667689,-2.782561,-1.196654,0.754578,-1.974098,108.3,-160.5,-12.900001,,,,,,
1366914,-0.047851436,8.382974,-2.7083914,0.23628199,0.053354,-0.975616,117.9,-153.3,-13.500001,,,,,,
1366954,-0.19320019,9.217981,-3.3561802,0.35061198,0.899396,-1.3872039,120.3,-172.5,-20.1,,,,,,
1366974,-0.4300648,8.997865,-3.4542756,0.434454,0.716468,-1.3948259,115.50001,-146.1,-12.3,,,,,,
1367016,-0.6154891,8.893787,-3.5499785,0.022866,0.35061198,-0.80793196,117.9,-150.90001,-11.700001,,,,,,
1367057,-0.7387066,8.841749,-3.7228417,0.22865999,-0.594516,-0.312502,129.90001,-158.1,-20.7,,,,,,
1367132,-0.46296266,8.871656,-3.465042,-0.259148,-0.716468,-0.144818,122.700005,-146.1,-12.900001,,,,,,
1367195,-0.54072124,9.064259,-3.5691192,-0.312502,-0.182928,-0.22865999,125.100006,-153.3,-12.3,,,,,,
1367274,0.20396675,8.656923,-3.2144203,0.068598,-0.358234,0.426832,120.3,-153.3,-15.900001,,,,,,
1367320,0.39178365,8.586941,-3.393265,0.396344,0.884152,-0.068598,127.50001,-150.90001,-25.500002,,,,,,
1367340,0.17645217,8.696999,-3.5906522,0.92988396,1.33385,-0.449698,117.9,-153.3,-13.500001,,,,,,
1367380,0.14774132,9.033753,-3.8209374,1.044214,1.097568,-1.013726,120.3,-148.5,-16.5,,,,,,
1367400,0.19080761,8.912929,-3.6450832,0.434454,0.92988396,-0.94512796,113.100006,-160.5,-12.3,,,,,,
1367442,0.3995595,8.8256,-3.1904945,-0.69360197,0.67073596,-0.35061198,127.50001,-153.3,-17.7,,,,,,
1367464,0.56285256,9.246094,-3.0529218,-0.769822,0.594516,-0.426832,120.3,-158.1,-19.5,,,,,,
1367504,-0.19020946,8.42604,-3.3190954,-0.67073596,0.7622,-0.960372,115.50001,-153.3,-12.3,,,,,,
1367524,-0.49107537,9.00265,-3.7186549,0.022866,0.297258,-0.80030996,129.90001,-148.5,-16.5,,,,,,
1367544,-0.61130214,9.261645,-4.0356708,0.20579399,-0.33536798,-0.853664,127.50001,-148.5,-14.1,,,,,,
1367584,-0.26258478,8.93506,-3.6331203,-0.22865999,-0.449698,-0.57164997,127.50001,-150.90001,-17.7,,,,,,
1367636,0.0071777157,8.770571,-3.5212677,-0.716468,0.449698,0.198172,120.3,-150.90001,-9.900001,,,x,,,
1367674,-0.004785144,8.640774,-3.4644442,-0.426832,0.07622,0.083841994,134.70001,-148.5,-16.5,,,x,,,
1367735,-0.3259879,8.698793,-3.5338287,-0.221038,-0.47256398,-0.28201398,134.70001,-146.1,-11.1,,,x,,,
1367756,-0.89601815,7.9965734,-3.5122955,-0.434454,-0.160062,0.045732,134.70001,-160.5,-17.1,,,x,,,
1367776,-1.7621292,8.540883,-4.0685687,-0.663114,0.64787,0.93750596,117.9,-148.5,-6.9,,,x,,,
1367796,-2.2896912,8.965565,-4.4083138,-0.55640596,0.746956,0.884152,129.90001,-150.90001,-15.3,,,x,,,
1367861,-6.2607627,7.978629,-5.4395123,-0.82317597,2.843006,-1.554888,120.3,-153.3,-7.5000005,,,x,,,
1367882,-5.656638,9.328638,-6.781147,0.3811,1.9131219,2.43904,122.700005,-153.3,-14.1,,,x,,,
1367902,-4.9275017,10.23004,-5.2977524,-1.966476,-1.48629,3.3079479,108.3,-153.3,-9.900001,,,x,,,
1367926,-4.178627,8.792104,-3.9351826,-2.7820299,-0.320124,2.01983,122.700005,-146.1,-9.900001,,,x,,,
1367986,-2.054023,6.6710887,-2.5325372,0.487808,-1.692084,-2.2865999,127.50001,-153.3,-12.900001,,,x,,,
1368052,0.10228245,6.9169254,-1.2919888,0.80793196,-0.30488,-0.594516,132.3,-155.70001,-11.1,,,x,,,
1368094,1.3942713,7.6263227,-1.9337962,-0.15244,2.111294,3.932952,129.90001,-162.90001,-11.1,,,x,,,
1368156,3.4082186,8.411685,-2.3656554,-1.71495,3.2317278,5.198204,117.9,-165.3,-10.5,,,x,,,
1368176,4.018923,9.867564,-2.86989,-0.33536798,2.2713559,5.762232,113.100006,-165.3,-15.900001,,,x,,,
1368196,4.284498,9.692308,-3.355582,0.030488,1.265252,3.551852,86.700005,-165.3,-17.1,,,x,,,
1368216,4.672693,9.621728,-3.2335608,0.72409,-0.7622,3.140264,77.100006,-162.90001,-12.900001,,,x,,,
1368236,5.3001447,9.724608,-2.932695,0.396344,-1.18141,3.384168,84.3,-162.90001,-18.900002,,,x,,,
1368256,4.93767,9.359143,-3.1581948,0.068598,-0.792688,3.109776,86.700005,-165.3,-18.300001,,,x,,,
1368276,4.582373,9.404602,-3.3322544,0.57164997,-0.983238,2.964958,86.700005,-167.70001,-12.3,,,x,,,
1368296,4.6894407,9.406396,-3.6175687,0.777444,-0.87653,2.157026,86.700005,-170.1,-14.1,,,x,,,
1368320,5.292369,10.037437,-3.8544333,0.449698,-0.884152,2.370442,72.3,-165.3,-17.7,,,x,,,
1368340,5.74935,10.257554,-3.350797,-0.53354,-1.41007,2.32471,79.5,-172.5,-9.900001,,,x,,,
1368360,5.8007903,9.810741,-3.0493329,-1.036592,-0.182928,1.585376,74.700005,-172.5,-18.900002,,,x,,,
1368380,5.2199936,9.619933,-3.4142,-0.67073596,0.91463995,0.70122397,69.9,-172.5,-17.7,,,x,,,
1368401,5.487962,9.930967,-3.1659708,-0.579272,0.891774,-0.121952,72.3,-182.1,-9.3,,,x,,,
1368421,5.4066143,10.136729,-3.3035436,-0.617382,1.5929979,-0.320124,72.3,-174.90001,-19.5,,,x,,,
1368443,4.7534423,9.963865,-3.3669467,-0.884152,1.211898,-0.365856,65.100006,-177.3,-16.5,,,x,,,
1368463,4.40951,9.086988,-3.5338287,-0.716468,1.051836,-1.234764,84.3,-174.90001,-15.900001,,,x,,,
1368485,4.5704103,9.990782,-3.0648847,-0.830798,0.327746,-1.021348,62.7,-177.3,-12.3,,,x,,,
1368505,4.551868,9.7886095,-2.798711,-1.463424,0.64787,-1.013726,60.300003,-167.70001,-18.900002,,,x,,,
1368525,4.230665,9.072633,-2.5540705,-1.478668,0.739334,-0.907018,77.100006,-155.70001,-14.700001,,,x,,,
1368568,4.078139,9.392041,-2.3776183,-0.26677,0.83842,-0.106708,65.100006,-165.3,-14.700001,,,x,,,
1368592,3.824526,9.140223,-2.1108465,-0.579272,0.846042,-0.60976,72.3,-174.90001,-15.3,,,x,,,
1368612,3.496744,9.070838,-2.2400453,-0.617382,0.708846,-0.975616,77.100006,-162.90001,-17.1,,,x,,,
1368632,3.1438394,8.747243,-2.0827339,-0.594516,-0.068598,-1.6158639,72.3,-170.1,-14.700001,,,x,,,
1368654,2.9518356,8.335122,-2.0193307,-0.365856,-0.716468,-2.2713559,77.100006,-167.70001,-12.3,,,x,,,
1368675,2.7927296,8.1473055,-1.9804513,0.091464,-1.3414719,-2.332332,67.5,-167.70001,-12.900001,,,x,,,
1368695,2.3267763,8.139529,-1.9272166,0.40396598,-1.56251,-2.599102,89.100006,-167.70001,-14.1,,,x,,,
1368716,1.8608228,7.597014,-2.0145454,0.49543,-1.707328,-3.384168,96.3,-158.1,-21.300001,,,x,,,
1368737,1.0993868,7.2482967,-1.9068798,0.518296,-1.3490939,-3.2622159,89.100006,-170.1,-18.900002,,,x,,,
1368757,0.045458864,6.830793,-2.405731,0.28201398,-0.365856,-3.399412,91.5,-174.90001,-12.3,,,x,,,
1368777,-0.719566,6.5544505,-2.5319393,0.243904,-0.45731997,-3.102154,96.3,-174.90001,-10.5,,,x,,,
1368797,-1.0018895,7.806962,-2.874675,0.365856,0.121952,-2.103672,105.9,-165.3,-17.7,,,x,,,
1368817,-1.6323322,8.66111,-3.523062,0.083841994,0.541162,-2.317088,108.3,-155.70001,-19.5,,,x,,,
1368841,-1.9272166,7.744157,-3.3292637,-0.541162,-1.1128119,-2.492394,84.3,-160.5,-12.900001,,,x,,,
1368862,-2.049836,7.8105507,-2.9524338,-0.899396,-0.777444,-1.3490939,115.50001,-148.5,-13.500001,,,x,,,
1368882,-1.8195509,8.772963,-3.183317,-0.060976,-0.655492,-0.708846,108.3,-153.3,-11.1,,,x,,,
1368902,-1.8345045,8.681447,-3.3083289,-0.198172,0.358234,-1.516778,110.700005,-155.70001,-14.1,,,x,,,
1368945,-2.513995,9.039137,-4.054213,0.259148,1.074702,-1.532022,120.3,-160.5,-14.700001,,,x,,,
1368965,-2.2681582,8.638979,-3.919631,0.785066,0.26677,-1.06708,117.9,-143.70001,-11.1,,,x,,,
1368986,-2.0013864,8.804067,-3.865798,0.777444,0.251526,-0.792688,125.100006,-146.1,-7.5000005,,,x,,,
1369006,-1.9140575,9.098352,-4.058998,0.708846,0.632626,-0.602138,122.700005,-158.1,-14.1,,,x,,,
1369048,-1.7298294,9.122278,-4.413099,1.1432999,0.182928,-0.57164997,103.50001,-158.1,-11.700001,,,x,,,
1369068,-1.5659384,9.052894,-4.252198,0.868908,-0.23628199,-0.56402797,117.9,-162.90001,-18.300001,,,x,,,
1369088,-1.1394624,9.090577,-4.2492075,0.739334,-0.327746,-0.64787,120.3,-153.3,-12.3,,,,,,
1369108,-1.0993868,9.023585,-4.2366467,0.655492,-0.30488,-0.907018,105.9,-153.3,-20.7,,,,,,
1369128,-0.8792702,8.796888,-4.3455086,0.57164997,-0.449698,-0.95274997,125.100006,-136.5,-14.700001,,,,,,
1369148,-0.60890955,9.130054,-4.175038,0.41921,-1.006104,-0.49543,110.700005,-155.70001,-9.900001,,,,,,
1369168,-0.28351977,9.082203,-4.0308857,-0.15244,-0.83842,-0.487808,110.700005,-153.3,-14.700001,,,,,,
1369188,-0.09450659,8.842347,-3.7007105,-0.510674,-0.586894,-0.243904,117.9,-148.5,-12.900001,,,,,,
1369210,0.1824336,8.997865,-3.5398102,-1.1128119,0.144818,-0.15244,108.3,-158.1,-8.700001,,,,,,
1369230,0.43784064,9.017604,-3.275431,-1.082324,0.327746,-0.449698,105.9,-162.90001,-15.900001,,,,,,
1369250,0.6585554,9.022388,-3.2491126,-0.57164997,0.518296,-0.777444,125.100006,-143.70001,-12.900001,,,,,,
1369270,0.5000475,8.976332,-3.0846233,-0.182928,0.55640596,-1.41007,122.700005,-155.70001,-14.700001,,,,,,
1369290,0.4803088,8.604885,-3.0648847,0.251526,0.57164997,-1.768304,115.50001,-150.90001,-17.1,,,,,,
1369373,0.123815596,9.13125,-3.4369295,-0.030488,-0.07622,-0.769822,125.100006,-146.1,-20.1,,,,,,
1369476,-0.1782466,8.485256,-3.5045197,-0.518296,-0.129574,0.28201398,129.90001,-158.1,-8.700001,,,,,,
1369496,-0.51141226,8.360245,-3.5870633,0.022866,-0.480186,0.396344,129.90001,-146.1,-13.500001,,,,,,
1369536,-1.7645217,9.008033,-4.1397476,-0.777444,-0.40396598,0.792688,127.50001,-160.5,-11.700001,,,,,,
1369557,-2.606109,8.872254,-4.047035,-0.792688,-0.34298998,0.518296,120.3,-158.1,-15.900001,,,,,,
1369577,-4.496839,8.961378,-4.320985,-0.586894,1.158544,-0.579272,125.100006,-153.3,-14.700001,,,,,,
1369598,-5.473606,10.109215,-5.435325,-0.030488,2.446662,-0.960372,117.9,-153.3,-17.1,,,,,,
1369618,-5.626133,9.781432,-5.0561028,-0.525918,1.41007,-1.425314,122.700005,-155.70001,-9.900001,,,x,,,
1369640,-6.0466275,9.176709,-4.490259,-1.730194,2.599102,-1.33385,120.3,-158.1,-11.700001,,,x,,,
1369660,-5.676377,8.039639,-4.572803,-1.6463519,3.58234,-1.33385,125.100006,-158.1,-10.5,,,x,,,
1369680,-4.8497434,7.7298017,-4.117616,-0.975616,2.560992,-0.525918,132.3,-155.70001,-16.5,,,x,,,
1369700,-4.0344744,7.297344,-3.5972319,-0.708846,1.8597679,-0.510674,117.9,-158.1,-11.700001,,,x,,,
1369720,-3.0953898,6.346895,-3.3711338,0.198172,1.006104,0.007622,125.100006,-148.5,-7.5000005,,,x,,,
1369740,-2.0952947,6.213509,-2.7335134,0.525918,-0.3811,1.532022,122.700005,-148.5,-8.1,,,x,,,
1369786,0.8272317,7.555144,-1.9571238,-0.312502,0.007622,2.126538,120.3,-153.3,-14.700001,,,x,,,
1369806,1.1711639,7.330242,-2.0737617,-0.861286,0.861286,1.669218,120.3,-160.5,-14.1,,,x,,,
1369826,1.9648997,7.8601966,-2.4410214,-0.541162,1.6082419,2.89636,120.3,-148.5,-16.5,,,x,,,
1369849,3.405228,9.435107,-2.4021423,-0.754578,1.440558,4.4512477,103.50001,-158.1,-10.5,,,x,,,
1369869,3.9417622,9.50509,-2.279523,-1.539644,1.554888,4.0167937,105.9,-165.3,-12.900001,,,x,,,
1369893,4.057204,9.132447,-2.5379207,-1.250008,1.989342,4.131124,91.5,-158.1,-12.900001,,,x,,,
1369913,4.6499634,10.013512,-2.6545584,-1.1128119,1.29574,4.009172,101.100006,-162.90001,-15.900001,,,x,,,
1369935,4.8120604,9.207214,-2.2011662,-1.21952,0.7622,2.423796,96.3,-162.90001,-11.1,,,x,,,
1369959,4.391566,8.736476,-2.318402,-0.891774,0.975616,2.042696,84.3,-172.5,-11.700001,,,x,,,
1369979,4.638599,8.66111,-2.6258476,-0.17530599,0.92226195,1.958854,84.3,-160.5,-10.5,,,x,,,
1369999,4.727722,9.258655,-2.26756,-0.373478,0.67073596,2.62959,74.700005,-170.1,-8.1,,,x,,,
1370019,4.8958,10.247984,-2.9219284,0.106708,1.059458,2.7362978,79.5,-160.5,-13.500001,,,x,,,
1370039,4.933483,9.79818,-3.2449257,0.34298998,0.68597996,1.966476,72.3,-162.90001,-6.3,,,x,,,
1370059,5.4508767,10.069139,-3.305936,0.45731997,-0.091464,2.2637339,77.100006,-160.5,-21.300001,,,x,,,
1370079,6.239229,10.66788,-2.8256273,-0.55640596,-0.632626,2.347576,65.100006,-160.5,-10.5,,,x,,,
1370099,6.263155,10.305406,-2.9966962,-1.1128119,0.213416,1.310984,55.500004,-174.90001,-14.1,,,x,,,
1370119,5.956906,9.579858,-2.9727705,-0.518296,0.22865999,0.053354,79.5,-167.70001,-13.500001,,,x,,,
1370139,6.6704903,10.740255,-3.0660808,-0.28201398,-0.053354,0.045732,67.5,-170.1,-7.5000005,,,x,,,
1370161,6.43542,10.286862,-2.714971,-1.25763,0.22865999,-0.57164997,57.9,-155.70001,-11.700001,,,x,,,
1370181,5.4646344,9.94293,-2.7209523,-1.036592,0.41921,-1.3948259,74.700005,-170.1,-18.300001,,,x,,,
1370201,5.4664288,10.000352,-2.6850638,-0.518296,-0.068598,-1.958854,77.100006,-177.3,-25.500002,,,x,,,
1370221,5.560337,10.099046,-2.527154,-0.548784,-0.320124,-2.050318,72.3,-165.3,-15.900001,,,x,,,
1370241,5.4317365,9.576269,-2.2777283,-0.907018,-0.480186,-1.814036,72.3,-160.5,-6.3,,,x,,,
1370261,5.0854115,9.310096,-2.037275,-1.082324,-0.632626,-1.18141,84.3,-165.3,-13.500001,,,x,,,
1370281,4.747461,9.176709,-2.1078558,-1.06708,-0.449698,-1.532022,72.3,-160.5,-14.700001,,,x,,,
1370301,4.292274,9.030763,-2.263373,-0.731712,-0.55640596,-2.7591639,74.700005,-172.5,-14.700001,,,x,,,
1370325,3.6444852,8.050406,-1.907478,-0.30488,-1.06708,-4.169234,79.5,-172.5,-17.1,,,x,,,
1370345,3.2664587,7.815336,-2.1150336,0.67835796,-1.227142,-3.7652678,103.50001,-170.1,-18.900002,,,x,,,
1370365,2.849553,7.920011,-2.125202,0.754578,-0.891774,-3.12502,105.9,-158.1,-11.1,,,x,,,
1370386,2.2932801,7.943339,-2.3710387,0.442076,-0.47256398,-2.873494,101.100006,-153.3,-14.700001,,,x,,,
1370406,1.5916585,7.6759686,-2.5762017,0.41921,-0.289636,-2.812518,89.100006,-165.3,-16.5,,,x,,,
1370427,0.46296266,6.9767394,-2.6623344,0.137196,0.099086,-3.0488,98.700005,-162.90001,-17.1,,,x,,,
1370447,-0.65795726,6.717744,-3.0678754,-0.251526,0.67073596,-2.888738,98.700005,-158.1,-21.300001,,,x,,,
1370468,-1.1915008,7.053302,-3.4530795,0.060976,0.388722,-2.522882,113.100006,-158.1,-12.900001,,,x,,,
1370488,-1.9421703,6.9342713,-3.3501987,0.312502,-0.030488,-2.583858,98.700005,-165.3,-18.300001,,,x,,,
1370508,-2.8710864,6.8935976,-3.5541656,0.121952,0.327746,-2.012208,110.700005,-155.70001,-19.5,,,x,,,
1370528,-3.267057,8.0934725,-4.0679703,0.449698,0.586894,-1.013726,105.9,-162.90001,-9.3,,,x,,,
1370548,-3.4381258,9.00923,-4.347303,0.87653,-0.289636,-1.326228,120.3,-153.3,-9.3,,,x,,,
1370568,-3.4530795,8.929078,-4.231263,0.82317597,-0.861286,-1.48629,105.9,-153.3,-16.5,,,x,,,
1370588,-3.3376377,8.160464,-4.0889053,0.320124,-0.69360197,-1.5244,110.700005,-165.3,-15.3,,,x,,,
1370610,-3.2515051,8.522939,-4.039858,0.81555396,-0.67073596,-0.53354,120.3,-158.1,-9.3,,,x,,,
1370630,-3.2676551,8.890199,-4.091298,0.434454,-0.23628199,-0.663114,113.100006,-158.1,-6.9,,,x,,,
1370650,-3.0439496,9.317871,-4.252198,0.121952,-0.07622,-0.586894,122.700005,-150.90001,-6.3,,,x,,,
1370670,-2.6868582,8.90575,-3.9549212,-0.625004,-0.41921,-1.013726,117.9,-160.5,-19.5,,,x,,,
1370691,-2.3608704,8.872853,-3.8992941,-0.426832,-0.487808,-0.716468,117.9,-148.5,-12.3,,,x,,,
1370711,-2.0091622,8.876442,-3.7365992,-0.015244,-0.72409,-0.80030996,120.3,-162.90001,-11.1,,,x,,,
1370731,-1.7088945,8.457144,-3.6151762,0.449698,-0.640248,-0.91463995,132.3,-155.70001,-14.1,,,x,,,
1370751,-1.3242885,8.679054,-3.602615,0.891774,-0.83842,-0.33536798,122.700005,-158.1,-20.7,,,,,,
1370771,-0.8643166,8.964967,-3.543997,0.884152,-0.41921,0.26677,120.3,-146.1,-13.500001,,,,,,
1370791,-0.5963485,9.238318,-3.5398102,0.49543,-0.15244,0.396344,122.700005,-148.5,-14.700001,,,,,,
1370811,-0.51859,9.538586,-3.76531,0.541162,0.022866,0.388722,115.50001,-146.1,-17.1,,,,,,
1370851,-0.36546534,8.684438,-3.442911,-0.480186,-0.541162,0.083841994,122.700005,-155.70001,-19.5,,,,,,
1370871,-0.18781689,8.850123,-3.4823885,-0.68597996,-0.503052,0.33536798,120.3,-162.90001,-14.1,,,,,,
1370891,-0.03469229,9.061866,-3.4901643,-0.56402797,-0.60976,0.23628199,108.3,-160.5,-15.900001,,,,,,
1370911,0.10347874,8.89618,-3.3525913,-0.617382,-0.67073596,-0.213416,113.100006,-158.1,-16.5,,,,,,
1370931,0.29189378,8.452956,-3.2054482,-0.72409,-0.41921,-0.33536798,127.50001,-148.5,-10.5,,,,,,
1370951,0.4635608,8.546267,-3.2957678,-0.358234,-0.060976,-0.17530599,125.100006,-155.70001,-15.900001,,,,,,
1370971,0.4258778,8.530117,-3.3615634,-0.091464,0.16768399,-0.121952,129.90001,-148.5,-11.700001,,,,,,
1371031,0.5915634,8.682643,-3.5882597,0.17530599,0.442076,-0.442076,129.90001,-146.1,-11.1,,,,,,
1371091,0.15372275,8.908143,-3.6755886,-0.221038,0.297258,-1.02897,120.3,-150.90001,-21.900002,,,,,,
1371215,0.16748004,8.699391,-3.3956575,0.137196,0.17530599,-0.60976,127.50001,-141.3,-11.700001,,,,,,
1371279,0.39477435,8.982313,-3.5541656,0.586894,-1.02897,-0.388722,125.100006,-150.90001,-14.700001,,,,,,
1371299,0.5526841,8.987697,-3.426163,0.3811,-1.036592,-0.69360197,132.3,-155.70001,-8.1,,,,,,
1371341,0.10407688,8.522341,-3.5170808,-0.20579399,-0.72409,-0.769822,132.3,-153.3,-14.700001,,,,,,
1371397,-1.5288534,8.617446,-3.7090845,-0.853664,-0.312502,-0.11432999,132.3,-141.3,-15.3,,,,,,
1371417,-2.430255,8.7412615,-3.8556297,-0.792688,0.015244,0.40396598,125.100006,-143.70001,-15.3,,,,,,
1371459,-4.7037964,9.7347765,-5.120104,-0.708846,1.471046,-0.137196,134.70001,-153.3,-15.900001,,,,,,
1371479,-5.38867,9.347778,-5.1781235,-0.716468,0.82317597,-1.189032,127.50001,-150.90001,-23.7,,,x,,,
1371519,-5.684751,9.256861,-5.468821,-1.1128119,0.213416,2.370442,125.100006,-153.3,-15.3,,,x,,,
1371540,-5.161974,8.50978,-4.6583376,-1.699706,0.07622,2.500016,120.3,-148.5,-9.3,,,x,,,
1371560,-4.2527966,8.408694,-4.342518,-1.3719599,0.274392,2.2408679,110.700005,-148.5,-12.900001,,,x,,,
1371580,-3.5918486,7.492937,-3.806582,-1.1204339,-0.213416,0.777444,117.9,-174.90001,-6.9,,,x,,,
1371643,-1.5210776,6.977936,-2.530743,0.57164997,-1.150922,-0.015244,115.50001,-160.5,-12.3,,,x,,,
1371663,-0.9420752,6.7213326,-2.1246037,0.3811,-1.044214,0.80793196,115.50001,-148.5,-11.1,,,x,,,
1371683,-0.46116823,6.4037185,-1.6873614,-0.274392,-0.137196,1.806414,110.700005,-162.90001,-11.1,,,x,,,
1371703,0.3493155,7.175323,-1.7836623,-0.83842,0.83842,3.62045,105.9,-155.70001,-12.900001,,,x,,,
1371726,1.3374476,6.769782,-1.8548414,-2.05794,2.118916,4.5884438,117.9,-155.70001,-11.1,,,x,,,
1371746,2.2101383,8.240616,-2.226288,-1.745438,2.652456,7.0503497,103.50001,-155.70001,-17.7,,,x,,,
1371766,3.8933127,10.752816,-2.5211725,-2.903982,2.644834,7.92688,101.100006,-160.5,-14.1,,,x,,,
1371786,4.9962883,10.166636,-2.6623344,-3.079288,1.303362,5.0228977,93.9,-162.90001,-18.300001,,,x,,,
1371806,4.8670893,8.85431,-1.9020946,-2.408552,0.579272,3.6661818,89.100006,-167.70001,-17.7,,,x,,,
1371826,5.193077,9.877135,-2.1407537,-1.509156,1.303362,3.567096,81.9,-167.70001,-20.1,,,x,,,
1371866,4.4657354,9.219177,-2.8220387,-0.525918,1.074702,1.570132,79.5,-162.90001,-14.700001,,,x,,,
1371889,4.404725,8.994874,-2.782561,0.022866,0.861286,2.050318,79.5,-172.5,-20.7,,,x,,,
1371909,4.3921638,9.590026,-3.1564004,0.26677,1.25763,2.7362978,74.700005,-167.70001,-15.3,,,x,,,
1371929,4.7971067,10.140916,-3.380106,-0.16768399,1.227142,3.0488,74.700005,-170.1,-24.900002,,,x,,,
1371951,4.971166,9.901659,-3.0098555,-0.548784,0.47256398,2.484772,74.700005,-162.90001,-11.700001,,,x,,,
1371971,5.2780137,9.519445,-2.7544484,-0.960372,1.02897,2.126538,65.100006,-162.90001,-10.5,,,x,,,
1371991,5.4233623,9.434509,-2.5403132,-1.3719599,1.509156,2.2561119,57.9,-172.5,-14.700001,,,x,,,
1372013,5.053112,9.212,-2.8962083,-1.082324,2.408552,1.722572,55.500004,-177.3,-19.5,,,x,,,
1372033,5.1733384,9.420752,-2.7323172,-0.82317597,1.67684,1.539644,57.9,-174.90001,-15.900001,,,x,,,
1372053,5.1272817,9.852013,-2.5779963,-1.074702,1.006104,1.3719599,60.300003,-165.3,-21.300001,,,x,,,
1372075,5.5071025,9.784423,-2.233466,-1.554888,0.274392,0.708846,55.500004,-172.5,-18.300001,,,x,,,
1372115,5.41439,9.51466,-2.1945865,-0.213416,-0.69360197,-0.541162,55.500004,-179.70001,-12.900001,,,x,,,
1372135,5.9838223,10.195347,-1.8793652,-0.388722,-1.173788,-0.777444,45.9,-158.1,-17.7,,,x,,,
1372155,6.011935,10.255161,-1.6508746,-0.396344,-0.846042,-1.44818,55.500004,-165.3,-21.300001,,,x,,,
1372178,5.3731184,9.055884,-1.8117751,0.22865999,-0.388722,-2.507638,62.7,-165.3,-20.7,,,x,,,
1372239,4.780359,9.717431,-2.7628224,1.814036,-2.2408679,-3.140264,57.9,-160.5,-18.900002,,,x,,,
1372259,4.4376225,9.12826,-2.7077932,1.280496,-2.423796,-3.2927039,60.300003,-165.3,-21.900002,,,x,,,
1372279,4.0063615,8.609072,-2.72813,1.1051899,-2.446662,-3.612828,81.9,-160.5,-12.3,,,x,,,
1372299,3.8992941,8.256765,-2.5797906,1.074702,-2.507638,-3.7119138,81.9,-172.5,-18.300001,,,x,,,
1372319,3.5248566,8.069547,-2.5875664,0.95274997,-1.806414,-3.6814258,84.3,-160.5,-14.700001,,,x,,,
1372339,3.0002851,7.4379077,-2.4541807,0.72409,-1.509156,-3.7119138,79.5,-165.3,-14.700001,,,x,,,
1372363,2.1766422,7.3858695,-2.6348197,0.510674,-0.60976,-2.980202,110.700005,-170.1,-12.3,,,x,,,
1372383,1.4780113,6.286483,-2.4356382,0.259148,-0.49543,-3.368924,81.9,-155.70001,-18.300001,,,x,,,
1372403,0.112450875,5.798996,-2.6228569,0.358234,0.731712,-3.033556,103.50001,-170.1,-18.900002,,,x,,,
1372424,-1.271652,5.9862146,-3.5577543,0.518296,1.577754,-2.7744079,101.100006,-162.90001,-13.500001,,,x,,,
1372444,-1.8847485,6.8583074,-4.216908,-0.548784,0.487808,-1.8521459,84.3,-162.90001,-13.500001,,,x,,,
1372464,-2.171857,7.425347,-3.9220235,-0.655492,0.67073596,-1.532022,103.50001,-165.3,-11.700001,,,x,,,
1372486,-2.6390069,8.03306,-3.9728656,-0.053354,0.365856,-1.3567159,110.700005,-158.1,-18.900002,,,x,,,
1372507,-2.9213302,8.722719,-4.092494,-0.525918,1.1051899,-1.6006199,115.50001,-160.5,-12.900001,,,x,,,
1372527,-3.0696697,8.899769,-4.041054,-0.49543,1.3719599,-2.050318,98.700005,-160.5,-13.500001,,,x,,,
1372547,-3.317301,9.198841,-4.1995616,-0.396344,1.775926,-2.423796,105.9,-155.70001,-15.900001,,,x,,,
1372567,-3.6199613,8.850721,-4.2025523,-0.16768399,1.6387299,-2.7820299,108.3,-155.70001,-16.5,,,x,,,
1372587,-3.8119652,9.088782,-4.1606827,0.091464,1.1432999,-2.36282,96.3,-177.3,-15.3,,,x,,,
1372607,-3.5661285,9.700085,-4.2013564,0.16768399,0.487808,-1.783548,108.3,-153.3,-9.3,,,x,,,
1372627,-3.2413368,10.018296,-3.8083763,-0.137196,-0.221038,-1.8750119,113.100006,-155.70001,-17.7,,,x,,,
1372650,-2.564837,9.332825,-3.564932,-0.3811,-0.830798,-2.050318,113.100006,-160.5,-10.5,,,x,,,
1372670,-2.1258001,8.8381605,-3.3322544,-0.525918,-1.059458,-1.722572,115.50001,-150.90001,-14.700001,,,x,,,
1372690,-1.9349926,8.680251,-3.4076204,-0.19055,-0.95274997,-0.975616,122.700005,-160.5,-17.7,,,x,,,
1372710,-1.4618614,8.923097,-3.3992465,0.19055,-0.95274997,-0.28201398,132.3,-160.5,-11.700001,,,x,,,
1372731,-1.0886202,9.132447,-3.4088168,0.274392,-0.80030996,-0.15244,127.50001,-155.70001,-16.5,,,x,,,
1372751,-0.8714943,8.957191,-3.401639,0.129574,-0.625004,-0.17530599,115.50001,-148.5,-21.300001,,,x,,,
1372771,-0.5957504,8.777748,-3.38848,-0.053354,-0.426832,-0.053354,120.3,-153.3,-18.300001,,,x,,,
1372834,0.16329303,9.051698,-3.409415,-0.518296,-0.55640596,0.55640596,117.9,-150.90001,-12.3,,,x,,,
1372854,0.22609805,8.934462,-3.2969642,-0.594516,-0.708846,0.3811,122.700005,-148.5,-17.7,,,x,,,
1372874,0.32778236,8.713149,-3.2395422,-0.525918,-0.80030996,0.358234,132.3,-162.90001,-20.1,,,,,,
1372895,0.37324122,8.991883,-3.2239907,-0.182928,-0.716468,0.396344,115.50001,-155.70001,-18.900002,,,,,,
1372915,0.3158195,9.133045,-3.250907,-0.251526,-0.49543,0.121952,129.90001,-155.70001,-16.5,,,,,,
1372936,0.39058736,8.978126,-3.1534097,-0.106708,-0.365856,-0.198172,122.700005,-155.70001,-15.3,,,,,,
1372959,0.34752107,8.822609,-3.1492229,-0.106708,0.045732,-0.26677,127.50001,-153.3,-17.7,,,,,,
1372980,0.26677176,8.765785,-3.0804362,-0.045732,0.35061198,-0.053354,117.9,-155.70001,-11.1,,,,,,
1373000,0.086132586,8.984706,-3.2592812,-0.20579399,0.49543,-0.243904,125.100006,-158.1,-12.900001,,,,,,
1373020,0.16927446,8.814235,-3.363358,0.160062,0.16768399,-0.785066,110.700005,-165.3,-18.900002,,,,,,
1373042,0.2936882,9.098951,-3.3896763,0.22865999,0.0,-0.518296,127.50001,-158.1,-17.1,,,,,,
1373104,0.3200065,9.124671,-3.2975621,-0.137196,-0.579272,-0.022866,113.100006,-158.1,-11.700001,,,,,,
1373154,0.3858022,8.87704,-2.9907148,-0.579272,-0.373478,-0.312502,127.50001,-162.90001,-14.700001,,,,,,
1373274,0.031103434,8.917115,-3.1426432,0.33536798,0.022866,-0.17530599,127.50001,-150.90001,-12.900001,,,,,,
1373319,0.10826388,8.96736,-3.204252,0.33536798,-0.198172,-0.213416,125.100006,-155.70001,-14.700001,,,,,,
1373339,0.16568561,9.076819,-3.1773355,0.41158798,-0.251526,-0.26677,129.90001,-158.1,-18.300001,,,,,,
1373379,-0.11663788,8.983509,-3.3490026,0.34298998,-0.099086,-0.259148,117.9,-158.1,-12.900001,,,x,,,
1373399,-0.30385664,8.898573,-3.410013,0.11432999,-0.083841994,-0.41921,129.90001,-153.3,-10.5,,,x,,,
1373422,-0.50064564,8.841749,-3.485379,0.099086,-0.099086,-0.40396598,125.100006,-153.3,-17.1,,,x,,,
1373442,-1.2118376,8.863881,-3.6989162,-0.297258,0.449698,-0.34298998,129.90001,-165.3,-20.7,,,x,,,
1373463,-1.514498,8.747243,-3.7467675,-0.56402797,0.67835796,-0.297258,129.90001,-153.3,-16.5,,,x,,,
1373483,-2.6162775,8.549855,-3.93279,-0.60976,1.509156,-0.20579399,117.9,-160.5,-20.1,,,x,,,
1373503,-3.7264307,8.568398,-4.40951,-0.60976,2.393308,-0.274392,120.3,-160.5,-14.1,,,x,,,
1373527,-5.133861,8.922499,-5.477793,0.15244,2.7439198,-0.030488,122.700005,-143.70001,-10.5,,,x,,,
1373547,-5.4413066,8.635988,-5.8707733,0.26677,1.8445239,0.716468,117.9,-155.70001,-11.700001,,,x,,,
1373567,-5.2385364,8.649746,-5.426353,-0.274392,0.33536798,2.675322,117.9,-160.5,-12.900001,,,x,,,
1373609,-4.617664,8.742457,-5.0387564,-1.669218,1.814036,4.176856,110.700005,-158.1,-12.3,,,x,,,
1373629,-4.4495854,8.473293,-4.8000975,-1.996964,1.8521459,3.528986,110.700005,-155.70001,-14.700001,,,x,,,
1373670,-3.4572663,6.6997995,-4.0320816,-1.189032,0.70122397,1.021348,98.700005,-177.3,-15.3,,,x,,,
1373690,-2.9291062,5.7954073,-3.5577543,-0.640248,0.45731997,0.891774,103.50001,-170.1,-13.500001,,,x,,,
1373713,-2.1114447,5.4508767,-3.1779337,-0.251526,0.160062,1.98172,103.50001,-165.3,-13.500001,,,x,,,
1373733,-0.8128763,6.50959,-2.7460744,0.015244,-0.20579399,3.460388,84.3,-158.1,-15.900001,,,x,,,
1373753,0.7757914,7.0562925,-1.9134594,-0.518296,-0.99086,3.955818,89.100006,-160.5,-17.7,,,x,,,
1373773,2.3249817,6.2649493,-0.652574,-1.9131219,-1.1432999,4.778994,91.5,-160.5,-9.3,,,x,,,
1373796,5.2247787,9.232935,-0.43484995,-4.550334,0.777444,6.577786,84.3,-160.5,-6.9,,,x,,,
1373816,5.782248,9.416565,-1.0778537,-2.6677,1.44818,4.108258,81.9,-155.70001,-20.1,,,x,,,
1373836,5.7290134,9.051698,-0.9767675,-1.6311079,0.769822,2.97258,77.100006,-177.3,-22.5,,,x,,,
1373876,6.125582,9.973436,-1.5892658,-0.030488,2.560992,3.4299,77.100006,-165.3,-15.900001,,,x,,,
1373916,4.8186398,8.750832,-3.0941937,1.951232,1.02897,2.606724,55.500004,-165.3,-13.500001,,,x,,,
1373936,5.0967765,9.176111,-3.271842,2.050318,-0.46494198,3.536608,55.500004,-172.5,-15.3,,,x,,,
1373980,6.2787066,10.056578,-3.0487347,0.030488,-0.510674,3.8262439,48.300003,-182.1,-18.300001,,,x,,,
1374000,5.991,9.260449,-3.3603673,0.251526,-0.068598,2.446662,43.5,-182.1,-11.700001,,,x,,,
1374020,6.588545,9.922594,-3.1683633,0.11432999,-0.121952,2.59148,41.100002,-167.70001,-14.1,,,x,,,
1374040,6.5993114,9.873546,-2.9817426,-0.19055,-0.221038,2.2332458,43.5,-170.1,-13.500001,,,x,,,
1374060,6.029281,9.142615,-3.0044723,-0.160062,0.41921,1.158544,55.500004,-170.1,-15.3,,,x,,,
1374080,6.406709,10.103233,-3.007463,0.221038,-0.03811,0.92988396,31.500002,-170.1,-12.900001,,,x,,,
1374101,6.1644616,9.597802,-3.0720623,-0.297258,0.106708,-0.137196,31.500002,-165.3,-11.1,,,x,,,
1374121,6.5065994,9.9184065,-2.774187,-0.579272,-0.35061198,0.289636,41.100002,-167.70001,-16.5,,,x,,,
1374141,6.517366,9.700683,-2.78615,-0.602138,0.083841994,-0.442076,36.300003,-165.3,-18.300001,,,x,,,
1374164,6.275118,9.910631,-2.8997972,0.144818,-0.060976,-1.56251,38.7,-170.1,-20.1,,,x,,,
1374184,6.250594,9.83347,-2.5917535,-0.33536798,-0.28201398,-1.951232,38.7,-172.5,-18.300001,,,x,,,
1374206,6.232052,9.954295,-2.5163875,-0.617382,-0.11432999,-2.423796,53.100002,-184.5,-21.300001,,,x,,,
1374226,5.527439,9.017604,-2.3363464,-0.617382,0.15244,-3.2774599,48.300003,-179.70001,-10.5,,,x,,,
1374246,4.4083138,8.585146,-2.2992616,-0.15244,0.053354,-3.62045,50.7,-170.1,-15.900001,,,x,,,
1374267,4.0763445,8.153885,-2.2747378,0.045732,-0.17530599,-3.589962,55.500004,-177.3,-12.3,,,x,,,
1374287,3.8675923,8.501406,-2.0719674,0.022866,-0.846042,-2.40093,65.100006,-167.70001,-17.7,,,x,,,
1374309,3.3537877,8.104837,-1.9900217,0.045732,-1.059458,-2.530504,60.300003,-170.1,-14.1,,,x,,,
1374330,3.176139,8.283084,-1.8865429,0.11432999,-1.44818,-2.454284,57.9,-160.5,-15.3,,,x,,,
1374350,2.9291062,7.9002724,-1.8022047,-0.022866,-1.48629,-3.2850819,69.9,-165.3,-14.1,,,x,,,
1374372,2.5277522,7.3906546,-1.8494581,0.297258,-1.272874,-3.140264,77.100006,-155.70001,-20.1,,,x,,,
1374392,2.0259101,7.158575,-1.8147658,0.289636,-0.777444,-3.041178,77.100006,-170.1,-18.300001,,,x,,,
1374414,1.3015591,6.762604,-2.5080135,-0.67835796,-1.1128119,-2.850628,86.700005,-162.90001,-15.3,,,x,,,
1374435,0.8511574,6.9474306,-2.5678277,0.640248,0.053354,-2.62959,67.5,-160.5,-15.900001,,,x,,,
1374455,0.2338739,7.3834767,-2.7915332,0.80793196,-0.099086,-2.7439198,79.5,-167.70001,-12.3,,,x,,,
1374475,-0.3259879,7.304522,-3.434537,0.47256398,0.7622,-3.1859958,89.100006,-165.3,-20.1,,,x,,,
1374496,-0.63403153,7.399029,-3.4417148,0.579272,0.20579399,-2.7820299,91.5,-160.5,-16.5,,,x,,,
1374517,-0.70640683,8.110819,-3.4088168,0.26677,0.503052,-2.126538,89.100006,-165.3,-19.5,,,x,,,
1374538,-0.96659905,8.485256,-3.5374177,-0.434454,1.1432999,-2.431418,86.700005,-148.5,-12.3,,,x,,,
1374558,-1.2022674,8.309402,-3.5792875,-0.30488,1.554888,-2.59148,101.100006,-158.1,-12.900001,,,x,,,
1374579,-1.5874715,8.357852,-3.7294214,-0.213416,1.814036,-2.2103798,86.700005,-158.1,-11.1,,,x,,,
1374599,-2.0342844,8.113212,-4.0015764,0.007622,1.730194,-2.187514,98.700005,-165.3,-14.1,,,x,,,
1374619,-2.4858823,8.375197,-3.982436,0.47256398,1.021348,-1.6463519,101.100006,-155.70001,-9.3,,,x,,,
1374639,-2.777776,9.3346195,-4.2222915,0.396344,0.548784,-1.463424,98.700005,-160.5,-9.900001,,,x,,,
1374699,-2.8884325,9.126466,-4.6469727,0.518296,-0.17530599,-2.926848,98.700005,-160.5,-15.3,,,x,,,
1374755,-1.7399979,8.960181,-4.101466,0.442076,-0.91463995,-1.6234859,108.3,-160.5,-21.900002,,,x,,,
1374775,-1.5384238,8.918312,-4.028493,0.426832,-0.716468,-1.3872039,113.100006,-150.90001,-14.700001,,,x,,,
1374815,-1.0401707,9.048707,-3.9920063,-0.289636,-0.70122397,-0.81555396,108.3,-148.5,-18.900002,,,x,,,
1374839,-0.5933578,9.085194,-3.7964134,-0.739334,-1.06708,-0.41158798,113.100006,-158.1,-20.1,,,x,,,
1374859,-0.30864176,8.880031,-3.6175687,-1.150922,-1.1051899,-0.17530599,108.3,-165.3,-17.1,,,x,,,
1374879,0.07775859,9.015809,-3.422574,-1.1204339,-1.150922,0.11432999,113.100006,-162.90001,-11.1,,,x,,,
1374899,0.35110992,8.965565,-3.2903845,-1.227142,-0.82317597,-0.045732,110.700005,-153.3,-13.500001,,,,,,
1374941,0.4288685,8.396731,-3.2987585,-0.80793196,-0.106708,-0.182928,110.700005,-162.90001,-10.5,,,,,,
1374963,0.4509998,8.608474,-3.3376377,-0.388722,0.053354,0.07622,108.3,-153.3,-13.500001,,,,,,
1374983,0.5467027,8.817225,-3.30474,-0.312502,0.19055,-0.03811,103.50001,-153.3,-20.1,,,,,,
1375005,0.66214424,8.836366,-3.2867956,-0.41158798,0.396344,-0.259148,113.100006,-160.5,-18.300001,,,,,,
1375025,0.79553014,9.11211,-3.3484044,-0.365856,0.541162,-0.243904,103.50001,-158.1,-13.500001,,,,,,
1375045,0.64360183,8.771169,-3.3747227,-0.655492,0.525918,-0.373478,127.50001,-153.3,-13.500001,,,,,,
1375066,0.5658432,8.181399,-3.2646644,-0.632626,0.46494198,-0.03811,115.50001,-136.5,-12.900001,,,,,,
1375087,0.8278299,9.072633,-3.1803262,-0.365856,0.449698,0.358234,113.100006,-158.1,-15.3,,,,,,
1375107,0.8188577,9.209009,-3.2329628,-0.449698,0.67835796,-0.07622,110.700005,-170.1,-12.3,,,,,,
1375128,0.7171734,8.868666,-3.2186074,-0.487808,0.746956,-0.46494198,115.50001,-150.90001,-15.3,,,,,,
1375168,0.55986184,8.818421,-3.2192054,-0.198172,0.975616,-0.259148,125.100006,-155.70001,-13.500001,,,,,,
1375189,0.5568711,9.02837,-3.3328526,-0.053354,0.846042,-0.47256398,117.9,-153.3,-18.900002,,,,,,
1375209,0.5514878,8.838758,-3.322086,0.0,0.579272,-0.586894,122.700005,-148.5,-14.700001,,,,,,
1375229,0.5221788,8.862684,-3.2969642,0.022866,0.426832,-0.396344,113.100006,-148.5,-23.7,,,x,,,
1375249,0.3050529,8.897377,-3.3501987,-0.015244,0.320124,-0.34298998,115.50001,-158.1,-19.5,,,x,,,
1375270,0.17585403,8.731691,-3.3705356,-0.091464,0.07622,-0.33536798,113.100006,-150.90001,-15.900001,,,x,,,
1375290,-0.0891233,8.579762,-3.3585727,-0.221038,-0.022866,-0.068598,113.100006,-155.70001,-13.500001,,,x,,,
1375311,-0.6824811,8.2442045,-3.3585727,-0.3811,0.068598,0.099086,110.700005,-150.90001,-15.3,,,x,,,
1375331,-1.5001426,8.369217,-3.5571563,-0.53354,0.47256398,0.579272,110.700005,-160.5,-21.300001,,,x,,,
1375351,-2.342926,8.788515,-3.7593286,-0.82317597,1.006104,0.47256398,122.700005,-155.70001,-20.7,,,x,,,
1375371,-4.037465,8.84474,-4.317994,-0.884152,2.012208,-1.173788,117.9,-155.70001,-14.1,,,x,,,
1375393,-5.2385364,8.926087,-5.6321144,0.80793196,3.368924,-1.6082419,110.700005,-162.90001,-11.700001,,,x,,,
1375414,-4.9173336,9.254468,-5.928195,0.594516,0.53354,-0.365856,113.100006,-146.1,-12.3,,,x,,,
1375434,-4.919128,9.382471,-4.9753532,-0.46494198,-0.57164997,0.67835796,113.100006,-162.90001,-9.3,,,x,,,
1375454,-4.434034,9.11869,-5.1679554,-0.739334,0.144818,0.884152,117.9,-155.70001,-15.900001,,,x,,,
1375478,-3.7922266,8.6324,-4.3275642,-0.67835796,-0.960372,0.320124,117.9,-162.90001,-14.1,,,x,,,
1375498,-2.9643965,7.9636755,-4.0296893,-0.30488,-1.455802,-0.518296,110.700005,-158.1,-15.3,,,x,,,
1375559,-0.65317214,6.447383,-2.2221012,0.777444,-1.06708,-1.1128119,115.50001,-155.70001,-20.7,,,x,,,
1375717,5.006457,9.768871,-2.2561953,-1.6006199,0.17530599,2.980202,103.50001,-158.1,-24.900002,,,x,,,
1375739,4.233656,9.256263,-2.8686936,-0.56402797,1.951232,1.928366,91.5,-160.5,-11.1,,,x,,,
1375779,4.4154916,10.28148,-3.3346472,0.022866,1.25763,2.385686,101.100006,-160.5,-4.5,,,x,,,
1375799,3.9268086,9.506885,-3.0774455,-0.083841994,0.92226195,2.157026,91.5,-158.1,-10.5,,,x,,,
1375819,4.112831,10.13314,-3.183317,0.060976,0.92226195,2.599102,93.9,-160.5,-8.1,,,x,,,
1375839,4.2695446,9.974034,-3.3663487,0.19055,1.326228,1.8750119,84.3,-162.90001,-11.700001,,,x,,,
1375859,4.7534423,10.309592,-3.5619414,0.16768399,1.3948259,2.103672,86.700005,-158.1,-15.900001,,,x,,,
1375879,4.7695923,9.582849,-3.0600994,-0.26677,1.006104,1.821658,89.100006,-160.5,-12.900001,,,x,,,
1375899,5.2953596,10.234226,-3.129484,-0.480186,1.707328,1.75306,86.700005,-160.5,-11.700001,,,x,,,
1375919,4.8928094,9.497314,-3.4614534,-0.33536798,2.118916,0.221038,77.100006,-170.1,-6.3,,,x,,,
1375939,5.128478,10.088878,-3.9501362,0.388722,1.33385,0.15244,79.5,-162.90001,-10.5,,,x,,,
1375959,5.7625093,10.289255,-3.6743922,-0.655492,-0.022866,0.26677,77.100006,-158.1,-6.9,,,x,,,
1375981,5.5758886,10.041624,-3.342423,-1.440558,-0.442076,-0.365856,86.700005,-155.70001,-14.700001,,,x,,,
1376001,4.99569,9.716832,-3.1898966,-1.669218,-0.525918,-1.75306,84.3,-165.3,-8.1,,,x,,,
1376025,4.5572515,9.247291,-2.882451,-1.3414719,-1.021348,-2.987824,96.3,-162.90001,-14.1,,,x,,,
1376045,3.8945088,8.527724,-2.7257376,-0.95274997,-1.089946,-2.385686,89.100006,-160.5,-7.5000005,,,x,,,
1376065,3.5188751,8.932667,-2.661138,-0.884152,-1.173788,-1.089946,86.700005,-155.70001,-14.700001,,,x,,,
1376085,3.3065343,8.915919,-2.585772,-0.716468,-1.204276,-0.91463995,96.3,-158.1,-14.700001,,,x,,,
1376109,3.2993567,8.732289,-2.531341,-0.884152,-1.272874,-1.3643379,79.5,-165.3,-14.1,,,x,,,
1376129,3.100773,8.29086,-2.1240058,-1.471046,-1.4024479,-1.56251,91.5,-160.5,-11.700001,,,x,,,
1376150,3.0283978,8.296243,-2.522369,-0.20579399,-0.594516,-1.6158639,96.3,-160.5,-12.900001,,,x,,,
1376170,2.8166552,8.119193,-2.5008357,-0.045732,-0.221038,-1.3490939,84.3,-158.1,-13.500001,,,x,,,
1376190,2.5450983,8.172427,-2.4948545,-0.07622,-0.068598,-1.166166,103.50001,-167.70001,-11.700001,,,x,,,
1376211,2.2496157,8.49064,-2.6288383,-0.03811,0.449698,-1.242386,96.3,-160.5,-21.300001,,,x,,,
1376232,1.8596265,8.333328,-2.6928396,-0.442076,1.074702,-1.669218,110.700005,-162.90001,-8.700001,,,x,,,
1376252,0.81168,7.606584,-3.2180092,-0.579272,1.684462,-2.7515419,84.3,-170.1,-11.1,,,x,,,
1376272,-0.8015116,6.772773,-3.752749,0.41158798,1.821658,-3.025934,103.50001,-146.1,-15.900001,,,x,,,
1376295,-1.1825286,8.073734,-4.486072,0.20579399,0.579272,-0.94512796,103.50001,-158.1,-11.700001,,,x,,,
1376315,-1.4534874,8.558827,-3.8717794,-0.198172,-0.777444,-1.3567159,105.9,-150.90001,-14.700001,,,x,,,
1376336,-2.0091622,8.145511,-3.8107688,-0.998482,-0.251526,-1.974098,101.100006,-153.3,-15.900001,,,x,,,
1376356,-2.594146,7.442095,-3.8735738,-0.998482,-0.358234,-1.798792,108.3,-146.1,-12.3,,,x,,,
1376378,-2.3524964,8.100052,-3.6121855,-0.731712,-0.365856,-0.586894,120.3,-160.5,-15.900001,,,x,,,
1376398,-2.7975147,8.619839,-3.8269188,-0.899396,0.312502,-0.777444,108.3,-158.1,-14.1,,,x,,,
1376438,-3.0367718,8.223269,-3.9148457,-0.60976,-0.015244,-0.33536798,105.9,-155.70001,-19.5,,,x,,,
1376458,-3.2652624,8.492434,-4.1026626,-0.221038,-0.221038,-0.129574,110.700005,-158.1,-18.300001,,,x,,,
1376478,-3.2084389,9.335217,-4.3030405,-0.07622,-0.67073596,0.23628199,113.100006,-162.90001,-17.1,,,x,,,
1376499,-2.5702202,9.2377205,-3.719253,-0.30488,-0.846042,-0.396344,113.100006,-160.5,-20.7,,,,,,
1376519,-2.2059512,9.552941,-3.756936,-0.388722,-0.289636,-0.41921,117.9,-160.5,-12.900001,,,,,,
1376541,-2.0576117,9.044519,-3.6241484,-0.297258,-0.129574,-1.036592,108.3,-143.70001,-18.300001,,,,,,
1376561,-1.5683309,8.857301,-3.3795078,0.015244,-0.16768399,-0.853664,115.50001,-160.5,-11.700001,,,,,,
1376581,-1.2937832,8.5253315,-3.1976724,-0.060976,0.11432999,-1.006104,115.50001,-160.5,-8.700001,,,,,,
1376601,-0.9845433,8.652138,-3.376517,0.144818,0.358234,-0.716468,120.3,-165.3,-15.3,,,,,,
1376621,-0.86611104,9.104334,-3.6498685,0.426832,0.34298998,-0.49543,117.9,-146.1,-17.1,,,,,,
1376641,-0.68128484,9.382471,-3.8729758,0.312502,0.015244,-0.388722,110.700005,-162.90001,-11.1,,,,,,
1376661,-0.60352623,8.562417,-3.6851587,-0.030488,-0.45731997,-0.480186,127.50001,-155.70001,-15.900001,,,,,,
1376681,-0.111852735,9.017005,-3.480594,-0.060976,-0.777444,0.510674,101.100006,-150.90001,-18.900002,,,,,,
1376701,0.12022674,8.948817,-3.4608552,-0.80030996,-0.16768399,0.373478,122.700005,-155.70001,-20.1,,,,,,
1376721,0.21772404,8.9894905,-3.3418248,-0.7622,-0.213416,0.373478,108.3,-162.90001,-17.7,,,,,,
1376741,0.5215807,8.963771,-3.1659708,-0.754578,0.045732,0.16768399,110.700005,-153.3,-19.5,,,,,,
1376765,0.51739365,8.854909,-2.9990888,-0.777444,0.47256398,-0.358234,120.3,-148.5,-11.700001,,,,,,
1376785,0.4827014,8.645558,-3.1121378,-0.41158798,0.64787,-0.625004,115.50001,-158.1,-20.7,,,,,,
1376805,0.56046,8.955995,-3.179728,-0.22865999,0.46494198,-0.320124,113.100006,-160.5,-11.700001,,,,,,
1376825,0.5526841,9.13125,-3.196476,-0.068598,0.297258,-0.40396598,117.9,-160.5,-6.3,,,,,,
1376845,0.48329952,8.756215,-3.237748,0.060976,0.3811,-0.632626,110.700005,-158.1,-23.1,,,,,,
1376865,0.4791125,8.516958,-3.237748,0.548784,0.091464,-0.41158798,103.50001,-162.90001,-19.5,,,,,,
1376889,0.52516955,9.211402,-3.2957678,0.396344,0.19055,0.0,115.50001,-158.1,-13.500001,,,,,,
1376909,0.3229972,8.748439,-3.2580848,0.015244,0.243904,-0.442076,110.700005,-150.90001,-12.900001,,,,,,
1376931,0.26916432,8.85431,-3.383695,0.091464,0.259148,-0.22865999,101.100006,-158.1,-14.1,,,,,,
1376952,-0.0059814295,9.030763,-3.5326324,0.060976,0.11432999,-0.365856,134.70001,-160.5,-14.700001,,,,,,
1376972,-0.12860073,8.964369,-3.7090845,0.121952,-0.449698,-0.289636,105.9,-165.3,-9.3,,,,,,
1376992,0.031701576,8.766981,-3.5493803,-0.045732,-1.051836,0.15244,110.700005,-153.3,-11.700001,,,,,,
1377012,0.24464047,8.84474,-3.4949493,-0.30488,-1.21952,0.868908,113.100006,-146.1,-14.700001,,,,,,
1377032,0.44800907,9.359741,-3.2987585,-0.518296,-1.4024479,1.211898,122.700005,-153.3,-11.1,,,,,,
1377052,0.60472256,9.170728,-3.2532997,-1.044214,-1.059458,0.53354,115.50001,-148.5,-9.900001,,,,,,
1377073,0.5801987,8.650344,-3.1791298,-0.93750596,-0.617382,0.426832,105.9,-153.3,-13.500001,,,,,,
1377093,0.54789895,8.907545,-3.222196,-0.853664,-0.198172,0.35061198,113.100006,-153.3,-15.900001,,,,,,
1377113,0.4258778,8.933864,-3.2365515,-0.548784,-0.007622,0.053354,125.100006,-153.3,-14.1,,,,,,
1377135,0.28232348,8.937452,-3.2215981,-0.41158798,-0.053354,-0.213416,117.9,-160.5,-18.300001,,,,,,
1377196,0.20935003,9.002051,-3.1689615,-0.23628199,0.129574,-0.442076,115.50001,-155.70001,-14.1,,,,,,
1377216,0.18841504,8.822609,-3.1432414,-0.15244,0.23628199,-0.46494198,120.3,-160.5,-14.1,,,,,,
1377236,0.1824336,9.113904,-3.2413368,-0.16768399,0.289636,-0.23628199,125.100006,-153.3,-13.500001,,,,,,
1377279,0.16688189,8.815431,-3.225785,-0.015244,0.35061198,-0.388722,105.9,-150.90001,-17.1,,,x,,,
1377341,0.31641763,8.598904,-3.276029,0.007622,0.015244,-0.17530599,117.9,-160.5,-13.500001,,,x,,,
1377361,0.20157418,8.691615,-3.342423,-0.03811,0.099086,-0.045732,113.100006,-172.5,-16.5,,,x,,,
1377381,0.11484345,8.650344,-3.4363313,-0.19055,0.030488,-0.20579399,110.700005,-160.5,-14.700001,,,x,,,
1377401,-0.04187001,8.510378,-3.3460119,-0.28201398,0.083841994,-0.15244,127.50001,-155.70001,-11.1,,,x,,,
1377423,-0.5861801,8.697597,-3.6151762,-0.46494198,0.41921,0.0,108.3,-160.5,-18.900002,,,x,,,
1377443,-1.7734939,8.862086,-4.233656,-0.640248,0.67835796,0.053354,115.50001,-148.5,-17.7,,,x,,,
1377463,-1.9367869,9.167737,-4.405323,-0.548784,0.663114,0.41158798,115.50001,-165.3,-11.1,,,x,,,
1377483,-2.8052905,9.256263,-4.468726,-0.853664,0.655492,0.35061198,115.50001,-150.90001,-16.5,,,x,,,
1377507,-4.338929,9.319666,-4.9304924,-0.579272,2.2637339,-0.11432999,110.700005,-150.90001,-14.1,,,x,,,
1377527,-4.853332,9.944127,-5.4664288,-0.548784,2.59148,-0.20579399,120.3,-162.90001,-15.3,,,x,,,
1377547,-5.597422,9.597802,-5.531626,-1.166166,2.93447,-0.243904,122.700005,-153.3,-17.7,,,x,,,
1377568,-5.6123757,9.274805,-5.702695,-1.8597679,2.93447,0.41921,120.3,-162.90001,-13.500001,,,x,,,
1377588,-5.287584,8.252579,-5.067467,-2.065562,1.501534,0.640248,125.100006,-160.5,-14.700001,,,x,,,
1377610,-4.2222915,7.8039713,-3.9926043,-2.370442,0.243904,1.021348,127.50001,-155.70001,-12.3,,,x,,,
1377630,-3.1426432,7.1860895,-3.188102,-2.355198,-0.03811,0.594516,117.9,-160.5,-15.900001,,,x,,,
1377651,-2.200568,6.7039866,-2.6144829,-1.8750119,-0.625004,0.602138,96.3,-158.1,-17.1,,,x,,,
1377672,-1.3171108,6.024496,-2.1180243,-1.75306,-1.29574,0.899396,98.700005,-170.1,-20.1,,,x,,,
1377692,-0.029907148,6.0310755,-1.5737141,-1.554888,-1.996964,2.157026,105.9,-160.5,-20.7,,,x,,,
1377713,1.953535,8.296842,-0.7853617,-2.2561119,-2.370442,4.4055157,101.100006,-160.5,-14.1,,,x,,,
1377733,2.9554243,8.028873,-0.13876916,-3.346058,-1.3567159,2.55337,103.50001,-162.90001,-18.300001,,,x,,,
1377755,3.3496006,7.204034,-0.72076225,-1.94361,0.396344,2.446662,98.700005,-172.5,-21.300001,,,x,,,
1377775,3.9387715,8.251382,-0.9606176,-0.525918,1.318606,4.245454,93.9,-158.1,-15.900001,,,x,,,
1377795,4.6703005,10.152281,-2.0259101,0.579272,3.071666,5.3658876,93.9,-179.70001,-17.1,,,x,,,
1377815,4.434034,10.143907,-2.7670095,0.830798,1.737816,3.910086,89.100006,-165.3,-13.500001,,,x,,,
1377835,4.342518,9.75631,-2.4374325,0.160062,0.373478,3.033556,86.700005,-170.1,-23.1,,,x,,,
1377858,4.2228894,9.293945,-2.5887628,0.144818,0.34298998,2.43904,86.700005,-179.70001,-15.900001,,,x,,,
1377878,4.243226,9.5403805,-2.9009933,0.70122397,0.106708,2.301844,91.5,-167.70001,-22.5,,,x,,,
1377899,4.3311534,9.547558,-3.2748327,0.899396,-0.091464,2.027452,86.700005,-179.70001,-14.1,,,x,,,
1377919,4.9609976,10.256956,-3.1569986,0.396344,-0.739334,2.850628,74.700005,-170.1,-23.1,,,x,,,
1377939,5.5447855,10.260545,-2.4948545,-0.41158798,-1.1204339,2.644834,65.100006,-165.3,-17.7,,,x,,,
1377959,5.493943,9.941734,-2.5612483,-0.388722,0.617382,1.745438,77.100006,-170.1,-19.5,,,x,,,
1377979,5.371922,9.444677,-2.5145931,-0.26677,0.640248,1.318606,62.7,-170.1,-27.900002,,,x,,,
1377999,5.720639,9.534997,-2.187409,-0.15244,0.503052,1.3414719,62.7,-170.1,-12.900001,,,x,,,
1378021,5.4108014,9.576269,-2.5331354,0.053354,1.798792,1.3795819,77.100006,-174.90001,-18.900002,,,x,,,
1378042,5.0668693,10.020689,-2.97935,0.746956,1.303362,0.68597996,53.100002,-162.90001,-21.300001,,,x,,,
1378062,4.8300047,9.251477,-2.7341115,0.82317597,0.099086,-1.196654,60.300003,-165.3,-21.300001,,,x,,,
1378082,5.074645,9.426733,-2.5175838,0.81555396,-0.548784,-1.250008,67.5,-177.3,-21.900002,,,x,,,
1378103,5.008251,9.467407,-2.7065969,0.30488,-0.33536798,-0.67835796,57.9,-165.3,-11.1,,,x,,,
1378123,5.0979724,9.447668,-2.7688038,0.388722,-0.663114,-0.442076,60.300003,-162.90001,-18.300001,,,x,,,
1378143,4.761218,9.056482,-2.9021897,0.72409,-0.663114,-1.532022,60.300003,-167.70001,-16.5,,,x,,,
1378166,5.091991,9.645654,-2.7915332,0.95274997,-1.3719599,-1.707328,79.5,-162.90001,-17.1,,,x,,,
1378186,5.212218,9.5619135,-2.6031182,-0.198172,-0.967994,-1.79117,72.3,-165.3,-16.5,,,x,,,
1378206,5.2080307,9.729394,-2.6216607,-0.891774,-0.60976,-1.768304,79.5,-167.70001,-18.900002,,,x,,,
1378226,4.673291,8.958985,-2.108454,-1.1128119,-0.19055,-2.873494,89.100006,-174.90001,-15.3,,,x,,,
1378247,4.3496957,8.838758,-2.0558174,-0.853664,0.022866,-3.16313,84.3,-162.90001,-14.1,,,x,,,
1378267,3.9890156,8.563613,-2.0911078,-0.53354,0.15244,-3.612828,84.3,-165.3,-21.900002,,,x,,,
1378287,3.610989,8.170034,-1.8919262,0.083841994,0.015244,-3.567096,69.9,-160.5,-20.1,,,x,,,
1378307,2.6892507,7.853617,-2.0336862,0.64787,-0.068598,-3.35368,93.9,-165.3,-15.3,,,x,,,
1378327,2.3207948,7.648454,-2.0390694,0.67073596,-0.20579399,-3.2164838,84.3,-162.90001,-17.7,,,x,,,
1378347,1.761531,7.0491147,-2.0067697,0.55640596,-0.40396598,-3.147886,91.5,-160.5,-24.300001,,,x,,,
1378368,0.4551868,6.5030103,-2.2412417,0.68597996,0.11432999,-3.033556,86.700005,-170.1,-18.300001,,,x,,,
1378388,-1.0814425,6.5323195,-3.0062666,0.92226195,0.632626,-2.7972739,86.700005,-162.90001,-11.700001,,,x,,,
1378408,-1.6389117,7.335027,-3.4961457,0.434454,-0.289636,-2.500016,96.3,-165.3,-17.1,,,x,,,
1378428,-2.2878969,7.5862474,-3.4327426,-0.35061198,-0.80793196,-2.13416,105.9,-155.70001,-12.3,,,x,,,
1378452,-2.962004,9.014014,-3.9094625,-0.64787,0.41158798,-1.1051899,101.100006,-158.1,-22.5,,,x,,,
1378472,-2.7556446,8.397927,-3.142045,-0.57164997,-0.243904,-1.509156,105.9,-170.1,-11.700001,,,x,,,
1378535,-2.9380782,8.799879,-3.6289334,-0.41921,0.82317597,-1.1204339,101.100006,-158.1,-18.900002,,,x,,,
1378556,-2.8052905,9.239514,-3.669009,-0.198172,0.55640596,-1.1204339,115.50001,-160.5,-18.900002,,,x,,,
1378576,-2.7179615,9.287964,-3.6385038,-0.137196,0.34298998,-0.99086,103.50001,-155.70001,-20.7,,,x,,,
1378598,-2.0923042,9.572082,-3.589456,-0.23628199,0.20579399,-0.983238,110.700005,-155.70001,-13.500001,,,x,,,
1378658,-1.2100432,9.170728,-3.5039215,0.480186,-0.17530599,-1.204276,115.50001,-153.3,-12.900001,,,x,,,
1378681,-0.7548564,9.454846,-3.363358,0.548784,0.07622,-0.548784,117.9,-155.70001,-9.3,,,x,,,
1378701,-0.70640683,9.085792,-3.3609653,0.121952,0.792688,-0.884152,115.50001,-153.3,-14.700001,,,x,,,
1378722,-0.76083785,9.00923,-3.539212,0.221038,0.82317597,-0.586894,117.9,-160.5,-20.1,,,x,,,
1378742,-0.6059188,8.832777,-3.4183872,0.068598,0.525918,-0.41921,120.3,-158.1,-13.500001,,,x,,,
1378764,-0.42707407,8.606679,-3.4112093,-0.129574,0.41921,-0.015244,110.700005,-150.90001,-14.1,,,x,,,
1378784,-0.07835673,8.789113,-3.3101232,-0.221038,0.129574,0.480186,110.700005,-162.90001,-20.1,,,x,,,
1378804,0.053234726,8.819618,-3.250907,-0.28201398,0.121952,0.434454,108.3,-165.3,-24.900002,,,x,,,
1378845,0.5215807,8.7843275,-3.1940835,-0.594516,0.373478,0.30488,105.9,-158.1,-11.700001,,,,,,
1378865,0.6214706,8.4816675,-3.0020795,-0.56402797,0.518296,0.373478,113.100006,-150.90001,-19.5,,,,,,
1378885,0.75605273,8.874049,-3.007463,-0.198172,0.72409,0.442076,105.9,-153.3,-19.5,,,,,,
1378927,0.46296266,8.972144,-3.2652624,0.083841994,0.67835796,-0.320124,96.3,-158.1,-12.3,,,,,,
1378958,0.37503564,8.859096,-3.3866856,0.03811,0.49543,-0.365856,105.9,-150.90001,-23.1,,,,,,
1378978,0.38640037,9.010426,-3.4793978,0.19055,0.22865999,-0.23628199,113.100006,-143.70001,-15.3,,,,,,
1379018,0.51559925,8.979322,-3.2778234,0.030488,0.022866,-0.022866,113.100006,-158.1,-16.5,,,,,,
1379038,0.5233751,9.00265,-3.3202915,-0.26677,0.26677,0.03811,113.100006,-165.3,-12.3,,,,,,
1379058,0.45458865,8.830384,-3.343619,-0.3811,0.3811,0.0,108.3,-155.70001,-15.900001,,,,,,
1379078,0.40853164,9.206018,-3.3519933,-0.083841994,0.198172,0.16768399,103.50001,-160.5,-15.3,,,,,,
1379101,0.45458865,8.807655,-3.237748,-0.49543,0.22865999,-0.07622,120.3,-170.1,-18.900002,,,,,,
1379142,0.57660985,8.971546,-3.1462321,-0.28201398,0.060976,0.34298998,113.100006,-160.5,-14.700001,,,,,,
1379162,0.5425157,8.88661,-3.1019695,-0.312502,0.060976,0.160062,117.9,-148.5,-14.700001,,,,,,
1379182,0.5401231,8.82859,-3.1115398,-0.091464,0.03811,-0.007622,108.3,-158.1,-17.1,,,,,,
1379204,0.4091298,8.909938,-3.204252,0.144818,0.045732,-0.541162,113.100006,-158.1,-17.7,,,,,,
1379245,0.72794,8.941041,-3.1312785,0.083841994,0.083841994,-0.17530599,113.100006,-160.5,-20.1,,,,,,
1379265,0.635826,8.820814,-3.1617837,-0.007622,0.426832,-0.060976,108.3,-162.90001,-17.7,,,,,,
1379285,0.61429286,8.775355,-3.3005528,0.129574,0.503052,0.0,113.100006,-170.1,-11.700001,,,,,,
1379308,0.6543684,8.957789,-3.3232822,0.388722,0.320124,0.091464,96.3,-155.70001,-11.1,,,,,,
1379328,0.6962384,9.055884,-3.2814124,0.129574,0.16768399,0.091464,101.100006,-158.1,-17.7,,,,,,
1379348,0.68606997,8.936256,-3.2365515,-0.160062,0.129574,0.022866,101.100006,-160.5,-11.700001,,,,,,
1379371,0.54072124,8.824403,-3.2060463,-0.243904,0.03811,-0.068598,108.3,-153.3,-12.3,,,x,,,
1379391,0.4874865,8.819618,-3.1982706,-0.312502,-0.121952,-0.07622,113.100006,-158.1,-16.5,,,x,,,
1379412,0.56703955,8.912929,-2.9883223,-0.41921,-0.34298998,0.137196,110.700005,-153.3,-14.700001,,,x,,,
1379432,0.17465775,8.950611,-2.7951221,-0.80793196,0.060976,-0.030488,86.700005,-150.90001,-17.7,,,x,,,
1379452,-0.10706759,8.65154,-2.7676075,-1.059458,0.274392,-0.129574,113.100006,-155.70001,-13.500001,,,x,,,
1379472,-1.4259728,8.671877,-3.305936,-0.92988396,1.310984,0.365856,110.700005,-165.3,-12.900001,,,x,,,
1379492,-1.8799634,8.717934,-3.4985383,-0.907018,1.5244,0.388722,103.50001,-153.3,-10.5,,,x,,,
1379514,-3.4183872,9.147999,-4.317994,-0.396344,1.745438,0.83842,101.100006,-162.90001,-18.900002,,,x,,,
1379596,-4.949633,9.744348,-5.4831767,-0.83842,0.594516,1.6463519,103.50001,-150.90001,-14.700001,,,x,,,
1379621,-4.5536623,9.177906,-5.4538674,-1.71495,1.8673899,1.059458,96.3,-158.1,-23.1,,,x,,,
1379642,-3.7348046,8.30043,-5.242723,-1.33385,0.602138,-0.739334,91.5,-158.1,-15.3,,,x,,,
1379683,-2.08393,5.77507,-2.5917535,0.19055,-3.7424018,-4.169234,101.100006,-158.1,-15.3,,,x,,,
1379703,-0.640013,5.1326647,-0.9558325,0.449698,-3.88722,-2.62959,108.3,-160.5,-13.500001,,,x,,,
1379743,2.0653877,7.4869556,-0.41271865,-1.532022,0.72409,1.02897,117.9,-153.3,-15.900001,,,x,,,
1379763,2.564239,7.7280073,-0.9576269,-1.478668,1.44818,1.8826339,108.3,-150.90001,-15.900001,,,x,,,
1379786,3.522464,8.411086,-1.1621917,-1.272874,1.722572,3.2164838,101.100006,-160.5,-20.7,,,x,,,
1379806,4.2139173,9.092371,-1.6341265,-0.541162,2.2027578,3.902464,113.100006,-165.3,-20.7,,,x,,,
1379826,4.843762,9.392639,-1.6574541,-0.297258,1.8750119,4.359784,93.9,-162.90001,-17.1,,,x,,,
1379849,4.725928,10.039231,-2.1521184,0.03811,3.338436,4.923812,96.3,-172.5,-11.700001,,,x,,,
1379869,4.899987,10.723507,-3.015837,0.449698,3.376546,4.664664,81.9,-158.1,-16.5,,,x,,,
1379910,5.091393,9.737169,-3.091801,0.708846,1.06708,3.2241058,72.3,-162.90001,-14.1,,,x,,,
1379931,6.055599,10.710348,-2.9225266,-0.15244,1.1051899,3.079288,77.100006,-162.90001,-14.700001,,,x,,,
1379951,5.5077004,9.557128,-2.8375902,-0.15244,1.074702,1.75306,69.9,-167.70001,-15.3,,,x,,,
1379971,5.4771953,9.008033,-2.639605,0.07622,0.960372,1.5244,74.700005,-170.1,-16.5,,,x,,,
1379991,5.6871433,9.879527,-2.7723927,-0.091464,1.1051899,1.3948259,62.7,-153.3,-18.900002,,,x,,,
1380011,5.275621,9.380078,-2.8094776,-0.449698,1.21952,0.777444,67.5,-172.5,-18.900002,,,x,,,
1380034,4.839575,9.265833,-2.9279099,-0.19055,0.716468,0.518296,53.100002,-177.3,-12.900001,,,x,,,
1380057,5.078832,9.271814,-2.6742973,-0.40396598,-0.060976,0.373478,57.9,-170.1,-8.1,,,x,,,
1380077,5.275023,9.3890505,-2.6910453,-0.67073596,-0.22865999,0.320124,62.7,-162.90001,-13.500001,,,x,,,
1380097,5.638096,9.836461,-2.6503716,-0.64787,-0.663114,0.15244,69.9,-174.90001,-13.500001,,,x,,,
1380160,6.5412917,10.326939,-2.4697323,-0.7622,-0.830798,-1.577754,74.700005,-167.70001,-20.1,,,x,,,
1380180,6.4414015,10.502792,-2.8148608,-0.41921,-1.173788,-3.056422,69.9,-167.70001,-17.7,,,x,,,
1380202,5.9969816,9.30232,-2.385394,-0.617382,-2.59148,-4.176856,69.9,-158.1,-15.900001,,,x,,,
1380222,5.8133516,8.77715,-1.4995444,-1.509156,-3.08691,-3.7424018,84.3,-167.70001,-17.7,,,x,,,
1380245,4.790527,8.008536,-1.0772555,-1.821658,-1.989342,-3.452766,67.5,-174.90001,-9.900001,,,x,,,
1380265,3.8681905,7.555144,-1.2214079,-1.303362,-1.097568,-3.407034,77.100006,-160.5,-14.700001,,,x,,,
1380285,3.0595014,7.589238,-1.2818204,-0.525918,-0.785066,-3.323192,86.700005,-162.90001,-12.900001,,,x,,,
1380305,2.070771,7.4331226,-1.3296719,-0.160062,-0.388722,-3.50612,79.5,-174.90001,-15.3,,,x,,,
1380325,1.3147182,7.3643365,-1.8189528,-0.221038,-0.41158798,-3.140264,96.3,-155.70001,-13.500001,,,x,,,
1380345,0.44621465,7.2967463,-1.4445152,-0.868908,0.15244,-3.08691,89.100006,-165.3,-21.900002,,,x,,,
1380365,-0.5449082,7.183697,-2.451788,0.60976,0.640248,-2.62959,113.100006,-158.1,-17.1,,,x,,,
1380405,-1.1035738,8.3201685,-2.7203543,1.02897,-0.754578,-1.669218,101.100006,-162.90001,-16.5,,,x,,,
1380426,-1.2393522,8.30043,-2.7460744,0.853664,-0.41921,-1.814036,101.100006,-153.3,-18.300001,,,x,,,
1380446,-1.7591385,8.507986,-3.2120278,0.503052,0.47256398,-1.783548,103.50001,-165.3,-18.300001,,,x,,,
1380486,-2.6085014,7.995975,-3.3759189,0.221038,0.34298998,-1.730194,117.9,-158.1,-18.300001,,,x,,,
1380518,-3.5834746,8.535501,-4.0314837,-0.030488,0.541162,-1.440558,108.3,-165.3,-15.3,,,x,,,
1380539,-3.6283352,8.729299,-4.448389,0.099086,-0.060976,-1.158544,110.700005,-165.3,-6.9,,,x,,,
1380580,-2.9344895,9.74973,-3.9268086,0.060976,-1.585376,-0.365856,120.3,-155.70001,-16.5,,,x,,,
1380600,-2.8429735,9.334021,-3.9985857,-0.144818,-1.074702,-0.899396,117.9,-165.3,-17.1,,,x,,,
1380624,-2.643792,9.304712,-3.7557397,0.16768399,-1.059458,-0.594516,120.3,-160.5,-18.300001,,,x,,,
1380644,-2.346515,9.517651,-3.8723776,0.045732,-0.80030996,-0.53354,108.3,-162.90001,-15.900001,,,x,,,
1380684,-1.7310258,9.250281,-3.9609027,0.55640596,-0.87653,-0.960372,113.100006,-148.5,-17.1,,,x,,,
1380704,-1.4020472,9.41477,-3.778469,0.68597996,-0.967994,-0.785066,115.50001,-155.70001,-14.1,,,x,,,
1380727,-1.0282078,9.136634,-3.5595489,-0.137196,-0.769822,-1.044214,113.100006,-155.70001,-8.700001,,,x,,,
1380747,-0.9869359,8.916517,-3.5493803,-0.40396598,-0.480186,-0.67073596,120.3,-153.3,-14.1,,,x,,,
1380811,-0.39417621,8.850721,-3.3669467,-0.518296,-0.480186,0.739334,108.3,-153.3,-21.900002,,,x,,,
1380871,0.17585403,8.823805,-3.1809244,-0.434454,0.07622,0.57164997,125.100006,-148.5,-17.1,,,x,,,
1380893,0.22071476,8.991883,-3.142045,-0.16768399,0.213416,0.739334,120.3,-155.70001,-15.3,,,,,,
1380914,0.35410064,9.082801,-3.0577068,-0.259148,0.3811,0.708846,125.100006,-155.70001,-12.3,,,,,,
1380934,0.5634507,8.913527,-3.1737466,-0.297258,0.53354,0.297258,110.700005,-150.90001,-14.1,,,,,,
1380956,0.6992291,8.588137,-3.095988,0.053354,0.33536798,0.160062,129.90001,-160.5,-18.900002,,,,,,
1380976,0.836802,8.723915,-3.008061,0.327746,0.221038,0.198172,108.3,-155.70001,-18.300001,,,,,,
1380999,0.94327146,9.015809,-2.978154,0.23628199,0.358234,-0.060976,108.3,-158.1,-15.900001,,,,,,
1381059,0.49944937,8.992481,-3.2018592,-0.07622,0.7622,-0.487808,113.100006,-158.1,-13.500001,,,,,,
1381082,0.44142953,8.957191,-3.1396525,-0.106708,0.632626,-0.541162,115.50001,-155.70001,-19.5,,,,,,
1381102,0.32359535,8.850123,-3.267057,0.0,0.663114,-0.45731997,115.50001,-146.1,-17.1,,,,,,
1381122,0.3062492,8.726906,-3.2694495,0.251526,0.434454,-0.243904,127.50001,-155.70001,-15.900001,,,,,,
1381142,0.33077306,8.812441,-3.242533,0.60976,0.251526,-0.007622,117.9,-155.70001,-12.900001,,,,,,
1381162,0.5126085,8.841749,-3.23057,0.792688,0.099086,0.297258,113.100006,-160.5,-11.700001,,,,,,
1381182,0.53115094,8.953602,-3.2676551,0.72409,0.129574,0.55640596,120.3,-150.90001,-11.700001,,,,,,
1381202,0.47552365,8.978126,-3.2778234,0.518296,0.182928,0.289636,110.700005,-148.5,-15.900001,,,,,,
1381222,0.5054308,8.718532,-3.1689615,0.41921,0.16768399,-0.11432999,105.9,-150.90001,-15.3,,,,,,
1381242,0.3002678,8.903956,-3.5410063,0.099086,0.518296,-0.106708,117.9,-153.3,-13.500001,,,,,,
1381306,0.3564932,8.869863,-3.5996244,-0.579272,-0.19055,-0.160062,125.100006,-155.70001,-14.700001,,,,,,
1381326,0.21772404,8.726308,-3.5410063,-0.594516,-0.28201398,-0.251526,108.3,-150.90001,-9.900001,,,,,,
1381346,0.3786245,8.987697,-3.4985383,-0.26677,-0.480186,-0.388722,110.700005,-158.1,-20.7,,,,,,
1381366,0.3493155,8.920106,-3.421378,-0.35061198,-0.34298998,-0.487808,127.50001,-158.1,-20.7,,,,,,
1381389,0.27753833,8.875245,-3.5212677,-0.518296,-0.053354,-0.396344,110.700005,-155.70001,-15.900001,,,x,,,
1381409,0.20935003,8.900966,-3.3771152,-0.426832,-0.03811,-0.22865999,120.3,-162.90001,-15.900001,,,x,,,
1381429,0.037084863,8.850721,-3.4734163,-0.731712,0.11432999,-0.26677,108.3,-155.70001,-13.500001,,,x,,,
1381449,-0.12620817,8.520547,-3.5469878,-0.503052,0.099086,-0.274392,108.3,-155.70001,-14.700001,,,x,,,
1381471,-0.30266035,8.534304,-3.4644442,-0.33536798,-0.007622,0.0,129.90001,-148.5,-17.7,,,x,,,
1381491,-0.88704604,8.540883,-3.6444852,-0.40396598,0.548784,0.160062,113.100006,-158.1,-15.900001,,,x,,,
1381574,-5.547178,9.921397,-5.843259,0.28201398,0.487808,0.40396598,120.3,-167.70001,-13.500001,,,x,,,
1381601,-6.310408,9.947716,-6.3235674,-0.853664,2.538126,0.57164997,120.3,-150.90001,-13.500001,,,x,,,
1381621,-6.4742994,9.09297,-7.035956,-0.60976,2.17227,0.106708,115.50001,-162.90001,-16.5,,,x,,,
1381663,-3.2066445,7.4068046,-3.0822308,-1.242386,-5.8613176,-1.006104,108.3,-158.1,-20.1,,,x,,,
1381683,-2.2077458,6.622639,-1.9146557,-1.318606,-4.5579557,-0.137196,117.9,-146.1,-15.900001,,,x,,,
1381703,-1.1717621,6.288277,-1.2854092,-1.71495,-2.6829438,0.548784,120.3,-153.3,-14.700001,,,x,,,
1381723,-0.65317214,6.218294,-1.0270115,-0.853664,-1.29574,1.250008,129.90001,-153.3,-21.300001,,,x,,,
1381743,0.006579573,6.3869705,-0.81467074,-0.121952,-0.373478,1.974098,103.50001,-148.5,-21.300001,,,x,,,
1381783,1.5138998,7.87515,-1.3189052,-0.868908,2.454284,4.161612,117.9,-162.90001,-20.1,,,x,,,
1381803,2.9374802,9.217981,-1.2315763,-1.71495,2.2103798,4.969544,98.700005,-160.5,-14.1,,,x,,,
1381823,3.5739043,9.088184,-1.4839927,-1.745438,3.7805119,4.321674,98.700005,-162.90001,-22.5,,,x,,,
1381843,4.0769424,9.668982,-2.3608704,-1.196654,4.30643,4.413138,103.50001,-165.3,-15.3,,,x,,,
1381883,4.8431635,10.276096,-2.907573,-0.899396,2.164648,2.6905658,91.5,-170.1,-18.900002,,,x,,,
1381903,4.815649,9.813732,-2.715569,-0.960372,1.432936,1.920744,79.5,-177.3,-15.3,,,x,,,
1381927,4.87008,9.502099,-2.886638,-0.34298998,0.983238,1.8445239,77.100006,-170.1,-17.7,,,x,,,
1381948,4.742676,9.2592535,-2.6336236,0.129574,0.541162,1.958854,72.3,-172.5,-15.3,,,x,,,
1381968,4.6421876,9.439893,-2.8597217,0.297258,0.579272,2.2408679,77.100006,-167.70001,-10.5,,,x,,,
1381988,4.6613283,9.435107,-2.7981129,0.251526,-0.030488,2.2789779,72.3,-165.3,-18.300001,,,x,,,
1382008,5.3019395,9.829882,-2.3513,-0.11432999,-0.23628199,2.507638,74.700005,-177.3,-16.5,,,x,,,
1382028,5.285191,9.265235,-2.3118227,0.20579399,0.548784,2.004586,74.700005,-172.5,-14.1,,,x,,,
1382048,4.912548,8.826796,-2.3423278,0.586894,1.021348,1.699706,65.100006,-165.3,-17.7,,,x,,,
1382072,5.0602894,9.555932,-2.6390069,0.586894,1.516778,0.785066,60.300003,-167.70001,-16.5,,,x,,,
1382092,5.300743,9.534399,-2.6156793,0.20579399,1.6082419,0.586894,53.100002,-170.1,-17.7,,,x,,,
1382112,4.8874264,8.659914,-2.820244,0.15244,1.745438,0.449698,62.7,-165.3,-19.5,,,x,,,
1382132,4.987316,9.164148,-2.9919112,0.40396598,1.227142,0.41921,67.5,-170.1,-13.500001,,,x,,,
1382152,5.2618637,10.012914,-3.0947917,0.23628199,0.7622,-0.47256398,60.300003,-172.5,-14.1,,,x,,,
1382172,5.5310283,9.7886095,-2.882451,-0.396344,-0.19055,-1.33385,62.7,-165.3,-13.500001,,,x,,,
1382193,5.714658,9.475183,-2.459564,-1.051836,-0.365856,-1.318606,67.5,-162.90001,-14.700001,,,x,,,
1382213,5.5740943,9.447668,-2.2268863,-1.036592,-0.007622,-1.699706,67.5,-170.1,-9.900001,,,x,,,
1382233,5.527439,9.959081,-2.171259,-0.785066,0.40396598,-2.7210538,69.9,-179.70001,-14.1,,,x,,,
1382253,5.0602894,9.449463,-2.1999698,-0.625004,0.602138,-3.635694,77.100006,-162.90001,-16.5,,,x,,,
1382273,4.4023323,8.981715,-2.0468452,-0.541162,0.320124,-3.414656,79.5,-172.5,-6.9,,,x,,,
1382293,3.862209,9.176709,-2.0271065,-0.160062,-0.007622,-2.507638,72.3,-172.5,-15.3,,,x,,,
1382313,3.2640662,8.832179,-1.8261305,-0.099086,-0.663114,-2.47715,79.5,-162.90001,-14.1,,,x,,,
1382333,2.9984908,8.562417,-1.5162925,0.19055,-1.303362,-2.408552,77.100006,-167.70001,-18.300001,,,x,,,
1382353,2.7879443,8.435611,-1.5198812,0.72409,-1.173788,-2.6905658,81.9,-165.3,-19.5,,,x,,,
1382373,2.3363464,8.229849,-1.681978,1.234764,-1.1051899,-2.949714,93.9,-158.1,-21.300001,,,x,,,
1382395,1.91645,8.413479,-2.216718,1.768304,-0.80793196,-2.606724,91.5,-158.1,-14.1,,,x,,,
1382415,1.4953574,8.357852,-2.5259578,1.6006199,-0.907018,-2.40093,77.100006,-162.90001,-10.5,,,x,,,
1382435,1.3559902,7.928983,-2.682073,1.44818,-0.861286,-2.080806,91.5,-160.5,-10.5,,,x,,,
1382456,0.98215073,7.641875,-2.9003952,1.204276,-0.449698,-1.8445239,96.3,-155.70001,-12.900001,,,x,,,
1382477,0.012561003,7.597612,-3.5697172,0.388722,-0.099086,-1.082324,96.3,-165.3,-11.700001,,,x,,,
1382497,-0.5078234,7.597014,-3.5176787,-0.525918,-0.17530599,-1.303362,96.3,-155.70001,-17.7,,,x,,,
1382517,-0.8768776,7.611369,-4.1493177,1.189032,-0.525918,-1.3490939,101.100006,-160.5,-18.300001,,,x,,,
1382537,-1.0515354,7.7381754,-3.9818377,0.663114,-0.769822,-1.1432999,101.100006,-167.70001,-11.1,,,x,,,
1382557,-1.4582726,7.358355,-3.9501362,0.518296,-0.655492,-1.48629,103.50001,-158.1,-9.900001,,,x,,,
1382577,-1.8685987,7.626921,-4.1870008,1.02897,-0.388722,-0.518296,101.100006,-167.70001,-9.900001,,,x,,,
1382599,-2.146137,8.336319,-4.2892833,0.82317597,0.007622,-0.320124,105.9,-150.90001,-11.1,,,x,,,
1382619,-2.623455,8.151492,-4.526148,0.67073596,0.541162,-0.83842,93.9,-162.90001,-6.9,,,x,,,
1382641,-2.987724,8.704177,-4.9257073,1.074702,0.594516,-0.487808,108.3,-143.70001,-13.500001,,,x,,,
1382662,-3.117521,8.815431,-5.067467,0.891774,0.11432999,-0.82317597,108.3,-153.3,-8.700001,,,x,,,
1382682,-3.0953898,9.127662,-4.9681754,0.92226195,-0.525918,-0.655492,101.100006,-150.90001,-15.3,,,x,,,
1382745,-2.1150336,9.146204,-4.296461,-0.213416,-0.94512796,-0.907018,105.9,-158.1,-9.900001,,,x,,,
1382785,-1.2931851,8.6868305,-3.6115873,0.198172,-0.746956,-1.303362,105.9,-150.90001,-9.3,,,x,,,
1382805,-0.9845433,8.743654,-3.74916,0.617382,-0.34298998,-1.044214,105.9,-150.90001,-14.1,,,x,,,
1382825,-0.43365365,9.291553,-3.8472557,0.68597996,-0.144818,-0.594516,115.50001,-148.5,-11.1,,,x,,,
1382849,-0.30385664,9.078614,-3.975258,0.297258,0.26677,-0.716468,101.100006,-162.90001,-8.700001,,,x,,,
1382872,-0.27454764,8.832777,-4.120607,0.121952,0.49543,-0.56402797,122.700005,-141.3,-6.9,,,x,,,
1382892,-0.08314187,8.78672,-4.230665,-0.007622,0.45731997,-0.23628199,103.50001,-160.5,-17.1,,,x,,,
1382912,0.07775859,8.750832,-4.224086,-0.221038,0.33536798,0.091464,120.3,-150.90001,-6.3,,,,,,
1382932,0.2087519,8.54208,-4.066176,-0.46494198,0.11432999,0.327746,113.100006,-150.90001,-12.900001,,,,,,
1382952,0.4498035,8.434414,-3.7258325,-0.594516,0.083841994,0.617382,115.50001,-165.3,-5.1000004,,,,,,
1382972,0.72435117,8.738271,-3.5619414,-0.708846,0.365856,0.617382,125.100006,-153.3,-8.1,,,,,,
1383035,0.42707407,8.558229,-3.5326324,-0.365856,0.20579399,0.015244,117.9,-158.1,-14.1,,,,,,
1383055,0.5221788,8.774159,-3.480594,-0.312502,0.198172,0.099086,103.50001,-155.70001,-13.500001,,,,,,
1383077,0.5425157,9.132447,-3.4817903,-0.289636,0.19055,-0.053354,113.100006,-158.1,-16.5,,,,,,
1383097,0.44322395,8.875245,-3.4423127,-0.55640596,0.289636,-0.548784,120.3,-150.90001,-14.1,,,,,,
1383117,0.28172535,8.49064,-3.5505767,-0.632626,0.327746,-0.708846,115.50001,-158.1,-12.900001,,,,,,
1383137,0.30146405,8.656923,-3.719253,-0.289636,0.16768399,-0.518296,113.100006,-158.1,-10.5,,,,,,
1383157,0.3104362,9.026576,-3.7342067,-0.121952,-0.083841994,-0.426832,117.9,-146.1,-14.700001,,,,,,
1383180,0.24105161,8.782534,-3.7557397,-0.40396598,-0.11432999,-0.56402797,110.700005,-158.1,-17.1,,,,,,
1383200,0.3881948,8.608474,-3.6887476,-0.30488,-0.091464,-0.289636,113.100006,-148.5,-11.1,,,,,,
1383220,0.5072252,8.649746,-3.7300196,-0.30488,0.121952,0.015244,120.3,-155.70001,-12.3,,,,,,
1383280,0.7410991,8.720326,-3.6408963,-0.045732,0.129574,0.030488,115.50001,-153.3,-17.1,,,,,,
1383456,-0.4151112,8.621633,-4.1469254,-0.40396598,0.69360197,0.03811,98.700005,-150.90001,-11.700001,,,x,,,
1383476,-1.0862277,8.855507,-4.380201,-0.49543,0.975616,0.20579399,117.9,-150.90001,-11.700001,,,x,,,
1383517,-2.7478688,8.785524,-4.808471,-0.67073596,1.577754,-0.289636,115.50001,-148.5,-15.3,,,x,,,
1383537,-3.518277,9.08938,-5.325267,-0.259148,2.103672,-0.525918,110.700005,-150.90001,-9.900001,,,x,,,
1383557,-4.179225,9.299329,-5.7385836,-0.060976,2.111294,-0.41921,113.100006,-153.3,-8.1,,,x,,,
1383577,-4.723535,9.766479,-6.2057333,-0.625004,2.7210538,-0.091464,117.9,-165.3,-8.700001,,,x,,,
1383597,-4.9466424,9.567297,-6.2978473,-1.288118,1.9054999,0.251526,120.3,-141.3,-7.5000005,,,x,,,
1383617,-4.971166,8.808851,-5.734995,-1.775926,1.006104,0.060976,110.700005,-150.90001,-17.7,,,x,,,
1383639,-4.469324,8.637783,-5.305528,-1.6387299,0.45731997,-0.045732,98.700005,-162.90001,-12.900001,,,x,,,
1383701,-1.9547312,6.1321616,-2.584576,-0.67073596,-0.853664,-2.576236,122.700005,-153.3,-7.5000005,,,x,,,
1383721,-1.5952473,6.269735,-2.3985534,-0.434454,0.015244,-1.493912,122.700005,-155.70001,-13.500001,,,x,,,
1383741,-1.5653402,5.882138,-2.1999698,-0.586894,0.259148,-1.18141,115.50001,-162.90001,-11.1,,,x,,,
1383761,-0.7751933,6.6178536,-2.0982854,-0.320124,0.053354,0.41158798,127.50001,-160.5,-12.900001,,,x,,,
1383784,0.38640037,7.8243084,-2.0851264,-1.006104,-0.083841994,2.05794,125.100006,-155.70001,-14.700001,,,x,,,
1383804,1.547994,7.762101,-1.6700152,-2.012208,0.23628199,2.332332,120.3,-158.1,-12.3,,,x,,,
1383826,2.2460268,7.81414,-1.9780588,-2.416174,1.204276,3.7271578,117.9,-162.90001,-15.900001,,,x,,,
1383846,3.5260527,9.043921,-1.9966012,-3.1783738,1.3795819,4.9161897,117.9,-158.1,-8.1,,,x,,,
1383866,4.4364266,9.225758,-1.6921464,-3.7347798,1.425314,4.5731997,98.700005,-160.5,-16.5,,,x,,,
1383887,4.255189,9.064857,-1.7453812,-2.957336,2.385686,4.34454,101.100006,-155.70001,-12.3,,,x,,,
1383907,4.401136,10.059568,-2.4440122,-1.996964,2.7439198,4.5274677,108.3,-172.5,-14.700001,,,x,,,
1383927,4.3114147,9.657019,-2.3824034,-1.166166,1.1280559,3.2164838,96.3,-162.90001,-17.1,,,x,,,
1383949,4.794714,9.428528,-2.2358584,-1.158544,0.503052,3.841488,91.5,-167.70001,-18.900002,,,x,,,
1383990,4.891015,10.0476055,-2.5762017,-0.160062,0.663114,3.589962,67.5,-158.1,-14.1,,,x,,,
1384012,5.2899766,9.935155,-2.5235653,-0.099086,-0.099086,2.82014,84.3,-170.1,-12.900001,,,x,,,
1384033,5.9712615,10.210898,-2.1939883,-0.525918,-0.03811,3.056422,57.9,-167.70001,-9.900001,,,x,,,
1384057,5.980233,9.936351,-2.2388492,-0.56402797,0.69360197,2.6677,67.5,-165.3,-14.1,,,x,,,
1384077,5.4072123,9.811339,-2.659942,0.40396598,0.7622,1.8826339,60.300003,-179.70001,-9.900001,,,x,,,
1384097,5.4490824,9.75332,-2.8399827,0.777444,-0.503052,0.099086,67.5,-177.3,-11.1,,,x,,,
1384117,5.7260227,9.899864,-2.677886,0.480186,-0.7622,0.053354,67.5,-170.1,-17.7,,,x,,,
1384138,5.548972,9.512268,-2.5983331,0.07622,-0.320124,0.251526,62.7,-162.90001,-15.3,,,x,,,
1384159,5.117711,9.079212,-2.8214405,0.449698,-0.106708,-0.92226195,65.100006,-189.3,-18.900002,,,x,,,
1384179,4.777966,9.291553,-3.0224164,0.907018,-0.312502,-2.065562,62.7,-165.3,-17.1,,,x,,,
1384201,5.1894884,9.494922,-3.0433514,0.41921,-0.777444,-2.2865999,84.3,-165.3,-11.700001,,,x,,,
1384221,5.1870956,9.319068,-2.936882,-0.487808,-0.830798,-1.493912,62.7,-165.3,-13.500001,,,x,,,
1384241,4.935876,9.056482,-2.6007257,-0.708846,-0.975616,-1.036592,81.9,-174.90001,-11.700001,,,x,,,
1384261,5.075243,9.567895,-2.5062191,-0.449698,-0.731712,-1.966476,81.9,-165.3,-16.5,,,x,,,
1384282,5.0979724,9.533203,-2.205353,-0.434454,-0.525918,-2.873494,67.5,-167.70001,-15.900001,,,x,,,
1384302,4.7917233,8.875245,-2.1114447,-0.20579399,-0.259148,-2.560992,69.9,-165.3,-18.300001,,,x,,,
1384363,3.8879292,9.067847,-2.1443427,0.746956,-1.059458,-2.423796,79.5,-170.1,-15.3,,,x,,,
1384386,3.576895,8.972144,-2.2155216,0.967994,-1.432936,-2.89636,89.100006,-158.1,-20.7,,,x,,,
1384407,3.2688513,8.345291,-1.8913281,0.967994,-2.355198,-3.4299,101.100006,-158.1,-15.900001,,,x,,,
1384427,2.874675,8.153287,-1.7346146,0.68597996,-1.821658,-3.0488,77.100006,-162.90001,-15.900001,,,x,,,
1384447,2.1688664,7.7298017,-1.7537552,0.34298998,-1.1204339,-3.147886,105.9,-158.1,-10.5,,,x,,,
1384468,0.74528617,6.5532546,-1.87458,0.358234,-0.365856,-3.7881339,84.3,-155.70001,-19.5,,,x,,,
1384488,-0.8798683,6.2643514,-2.6623344,0.541162,1.211898,-3.376546,103.50001,-158.1,-14.1,,,x,,,
1384510,-1.9361888,7.229754,-4.084718,0.525918,1.150922,-2.6981878,110.700005,-158.1,-18.900002,,,x,,,
1384530,-2.7508595,6.969562,-3.6995144,-2.042696,-0.861286,-2.51526,110.700005,-155.70001,-15.3,,,x,,,
1384551,-3.3286657,7.2476983,-4.469324,0.68597996,-0.274392,-1.3795819,101.100006,-153.3,-11.700001,,,x,,,
1384571,-3.5027251,8.125772,-4.3897715,-0.274392,-0.7622,-0.503052,101.100006,-160.5,-11.1,,,x,,,
1384591,-3.4841828,8.255569,-4.4729133,-0.708846,-0.80030996,-0.72409,98.700005,-150.90001,-9.900001,,,x,,,
1384613,-3.4692292,8.286075,-4.3162,-0.56402797,-0.716468,-0.35061198,108.3,-150.90001,-16.5,,,x,,,
1384633,-3.5535674,8.167643,-4.1307755,-0.846042,-0.022866,-0.586894,113.100006,-153.3,-18.300001,,,x,,,
1384653,-3.509903,8.475088,-4.2228894,-0.426832,0.510674,-0.358234,113.100006,-148.5,-10.5,,,x,,,
1384673,-3.459061,9.013416,-4.2958627,-0.510674,0.67835796,-0.259148,110.700005,-160.5,-13.500001,,,x,,,
1384693,-3.12111,9.122278,-4.3790045,-0.365856,0.846042,-0.365856,122.700005,-165.3,-12.3,,,x,,,
1384716,-2.6725028,9.214393,-4.1020646,-0.068598,0.373478,-0.259148,117.9,-160.5,-16.5,,,x,,,
1384736,-2.3907773,9.4536495,-4.118214,-0.068598,0.19055,0.060976,103.50001,-162.90001,-9.900001,,,x,,,
1384756,-2.0109568,9.342395,-3.9351826,0.083841994,-0.07622,-0.28201398,115.50001,-160.5,-16.5,,,x,,,
1384776,-1.6867632,8.869264,-3.8340964,0.213416,-0.259148,-0.64787,120.3,-148.5,-8.700001,,,x,,,
1384796,-1.1783416,8.975734,-3.7013087,0.640248,-0.594516,-0.480186,117.9,-148.5,-11.1,,,x,,,
1384818,-0.91934574,9.124073,-3.8203392,0.518296,-0.365856,-0.45731997,113.100006,-138.90001,-17.1,,,x,,,
1384842,-0.72076225,9.329236,-3.9591084,0.47256398,-0.449698,-0.30488,127.50001,-167.70001,-9.900001,,,x,,,
1384882,-0.27514577,8.420657,-3.618167,-0.198172,-0.548784,-0.106708,117.9,-153.3,-14.1,,,x,,,
1384902,0.21592961,8.666493,-3.4536774,-0.213416,-0.510674,0.55640596,115.50001,-150.90001,-13.500001,,,,,,
1384965,0.7339214,8.483461,-3.2120278,0.137196,-0.95274997,0.20579399,125.100006,-148.5,-17.1,,,,,,
1384985,0.803306,8.827992,-3.2443275,-0.045732,-0.67835796,0.518296,117.9,-155.70001,-17.7,,,,,,
1385007,0.59694666,9.4321165,-3.6074002,-0.053354,-0.320124,0.46494198,113.100006,-158.1,-13.500001,,,,,,
1385027,0.54789895,9.416565,-3.756936,-0.106708,-0.49543,-0.182928,113.100006,-155.70001,-12.900001,,,,,,
1385047,0.51739365,8.811842,-3.4082186,-0.289636,-0.55640596,-0.518296,115.50001,-155.70001,-17.1,,,,,,
1385067,0.6657331,9.117494,-3.3029454,-0.40396598,-0.045732,-0.30488,108.3,-153.3,-15.900001,,,,,,
1385087,0.49944937,8.921901,-3.3280675,-0.67835796,0.510674,-0.70122397,110.700005,-158.1,-18.300001,,,,,,
1385148,0.2853142,8.464919,-3.1875038,-0.16768399,0.754578,-0.396344,113.100006,-160.5,-10.5,,,,,,
1385198,0.22729433,8.955397,-3.4668367,0.327746,0.221038,0.022866,120.3,-155.70001,-15.3,,,,,,
1385219,0.21951847,8.6766615,-3.3807042,0.221038,0.045732,0.053354,105.9,-155.70001,-14.1,,,,,,
1385259,0.28172535,8.917713,-3.5332305,0.129574,-0.07622,0.243904,120.3,-146.1,-17.7,,,,,,
1385279,0.27394947,9.033753,-3.580484,0.121952,-0.16768399,0.144818,117.9,-143.70001,-8.700001,,,,,,
1385299,0.3911855,8.906947,-3.5158844,0.07622,-0.243904,-0.045732,110.700005,-155.70001,-10.5,,,,,,
1385319,0.29548264,8.5791645,-3.4153965,-0.160062,-0.129574,-0.182928,103.50001,-153.3,-11.700001,,,,,,
1385343,0.32658607,8.9464245,-3.4961457,-0.015244,0.007622,-0.091464,125.100006,-153.3,-14.1,,,,,,
1385363,0.29608077,8.983509,-3.6301296,-0.198172,0.0,-0.40396598,113.100006,-165.3,-19.5,,,x,,,
1385383,0.19798532,8.638381,-3.6139798,-0.144818,-0.160062,-0.3811,120.3,-150.90001,-12.900001,,,x,,,
1385403,0.1961909,8.630605,-3.5194733,-0.144818,-0.28201398,-0.327746,105.9,-162.90001,-11.1,,,x,,,
1385423,0.059216153,8.6647,-3.5039215,-0.30488,0.007622,-0.518296,115.50001,-155.70001,-9.900001,,,x,,,
1385465,-0.5861801,8.264542,-3.2742345,-0.106708,0.34298998,-1.3795819,103.50001,-148.5,-15.900001,,,x,,,
1385496,-2.1072576,8.344094,-3.4662385,-0.899396,2.149404,-2.17227,127.50001,-158.1,-6.3,,,x,,,
1385516,-3.7455714,8.323757,-4.334144,-0.56402797,3.7424018,-3.0488,115.50001,-158.1,-17.7,,,x,,,
1385556,-5.879147,8.753224,-6.093282,0.846042,3.2850819,-2.09605,108.3,-143.70001,-15.900001,,,x,,,
1385580,-5.5447855,9.267627,-5.8588104,0.11432999,0.259148,2.355198,122.700005,-150.90001,-12.900001,,,x,,,
1385600,-5.2080307,9.406995,-5.5447855,-0.327746,0.060976,3.117398,110.700005,-153.3,-11.1,,,x,,,
1385624,-3.9142475,9.225758,-5.0178213,-1.097568,0.81555396,3.62045,110.700005,-158.1,-9.3,,,x,,,
1385644,-2.8716843,9.010426,-4.6164675,-1.021348,0.967994,2.7744079,113.100006,-148.5,-8.1,,,x,,,
1385685,-1.6006306,7.860795,-3.8418722,0.259148,1.56251,0.144818,108.3,-153.3,-14.1,,,x,,,
1385706,-1.2070525,7.387066,-3.4758089,0.983238,1.41007,-0.777444,103.50001,-155.70001,-7.5000005,,,x,,,
1385727,-1.0975924,6.7972965,-3.3442173,1.158544,1.29574,-1.8750119,120.3,-155.70001,-10.5,,,x,,,
1385747,-0.63403153,6.133358,-2.8860397,1.5244,0.480186,-1.692084,113.100006,-148.5,-12.900001,,,x,,,
1385767,1.0443577,8.06536,-2.6701102,0.160062,0.28201398,0.92988396,110.700005,-160.5,-6.9,,,x,,,
1385788,1.1233125,8.178409,-2.64439,-0.548784,0.480186,0.716468,122.700005,-141.3,-7.5000005,,,x,,,
1385808,0.9049903,6.833185,-2.9919112,-1.082324,0.998482,0.373478,108.3,-143.70001,-5.7000003,,,x,,,
1385828,1.8644116,7.9235997,-3.1767373,-0.7622,-0.365856,2.6905658,101.100006,-150.90001,-12.3,,,x,,,
1385849,2.987126,8.303421,-3.117521,-0.983238,-0.754578,3.7881339,110.700005,-153.3,-15.3,,,x,,,
1385869,3.49794,9.113904,-3.158793,-0.47256398,-1.189032,4.61131,98.700005,-160.5,-5.7000003,,,x,,,
1385892,3.9100606,9.61754,-3.070268,-0.442076,-1.684462,4.504602,96.3,-165.3,-11.1,,,x,,,
1385913,4.1636734,9.052296,-3.1061563,0.11432999,-1.71495,4.375028,89.100006,-162.90001,-10.5,,,x,,,
1385933,4.8132563,8.8579,-2.5624444,0.0,-2.01983,5.5030837,86.700005,-153.3,-12.3,,,x,,,
1385953,5.3862777,9.625915,-2.3955626,-0.47256398,-0.72409,5.929916,57.9,-177.3,-17.7,,,x,,,
1385973,4.93767,9.518847,-3.0283978,0.251526,0.594516,4.15399,72.3,-170.1,-13.500001,,,x,,,
1385994,5.1422353,9.613354,-3.1276896,0.754578,0.15244,3.147886,72.3,-165.3,-16.5,,,x,,,
1386014,5.402427,9.223365,-2.7263358,0.251526,0.11432999,2.6677,81.9,-155.70001,-11.1,,,x,,,
1386034,5.579478,9.317871,-2.8603196,-0.015244,0.716468,2.89636,69.9,-179.70001,-8.1,,,x,,,
1386054,5.266051,9.145606,-2.9380782,0.289636,1.265252,2.416174,69.9,-160.5,-12.3,,,x,,,
1386077,4.9346795,9.329236,-3.4249666,0.594516,1.547266,1.013726,72.3,-150.90001,-17.1,,,x,,,
1386097,5.3563704,8.973341,-3.3346472,0.655492,0.92988396,0.46494198,50.7,-172.5,-8.1,,,x,,,
1386117,5.3755107,8.948219,-3.3561802,0.388722,1.051836,1.310984,57.9,-167.70001,-9.3,,,x,,,
1386137,5.333641,9.686327,-3.4997346,0.297258,1.097568,1.547266,67.5,-155.70001,-10.5,,,x,,,
1386157,5.170946,9.381274,-3.5583525,-0.053354,0.731712,-0.3811,55.500004,-158.1,-11.700001,,,x,,,
1386177,5.3282576,9.140223,-3.5535674,0.045732,0.297258,-0.92988396,72.3,-160.5,-10.5,,,x,,,
1386200,5.6680026,9.416565,-3.0606976,-1.417692,-0.23628199,-0.289636,60.300003,-155.70001,-8.700001,,,x,,,
1386220,5.576487,9.329236,-2.7030082,-1.79117,-0.3811,-0.503052,53.100002,-162.90001,-13.500001,,,x,,,
1386240,5.8121552,9.502697,-2.4320493,-1.806414,-0.33536798,-0.891774,53.100002,-160.5,-9.3,,,x,,,
1386260,5.6817603,9.08938,-1.9571238,-2.2103798,-0.45731997,-0.625004,62.7,-162.90001,-4.5,,,x,,,
1386280,6.1477137,9.543969,-1.4845909,-2.126538,-0.33536798,-0.518296,69.9,-158.1,-16.5,,,x,,,
1386304,5.727817,8.737673,-1.4283655,-1.669218,1.044214,-2.2408679,65.100006,-162.90001,-12.3,,,x,,,
1386324,4.944848,8.1251745,-1.8566358,-0.358234,1.6234859,-3.4299,69.9,-167.70001,-16.5,,,x,,,
1386344,4.253993,7.927189,-2.1742496,0.868908,1.33385,-3.2927039,72.3,-160.5,-14.700001,,,x,,,
1386364,3.4937532,7.7800455,-2.7095876,1.044214,0.67073596,-2.507638,77.100006,-165.3,-6.9,,,x,,,
1386384,2.447601,7.9397497,-2.9955,0.518296,0.67073596,-1.577754,77.100006,-158.1,-14.700001,,,x,,,
1386424,1.4343468,7.830888,-3.8059838,0.487808,-1.1432999,-1.9131219,77.100006,-162.90001,-13.500001,,,x,,,
1386473,0.38939106,7.1938653,-4.1564956,-0.23628199,-0.480186,-1.41007,79.5,-160.5,-15.3,,,x,,,
1386518,-0.7105939,7.221978,-4.4160895,-0.80793196,0.975616,-2.301844,84.3,-160.5,-10.5,,,x,,,
1386538,-1.0521334,7.995377,-4.6248417,-0.716468,1.02897,-1.8750119,93.9,-160.5,-10.5,,,x,,,
1386578,-1.9325999,8.076725,-4.7043943,-0.68597996,0.53354,-2.01983,84.3,-153.3,-9.900001,,,x,,,
1386598,-1.7687088,8.61924,-4.279713,-0.60976,0.213416,-2.050318,101.100006,-155.70001,-7.5000005,,,x,,,
1386618,-2.3160095,8.838758,-4.459754,-1.455802,1.6006199,-2.309466,84.3,-158.1,-12.3,,,x,,,
1386642,-2.9458542,9.056482,-5.070458,-1.8292799,2.32471,-2.599102,86.700005,-162.90001,-23.7,,,x,,,
1386662,-3.2275794,8.732887,-4.907165,-1.56251,1.051836,-2.576236,91.5,-153.3,-10.5,,,x,,,
1386684,-3.142045,8.903956,-4.655945,-1.8826339,0.53354,-1.775926,103.50001,-150.90001,-15.900001,,,x,,,
1386704,-2.705999,9.11869,-3.949538,-2.09605,-0.17530599,-1.3872039,101.100006,-150.90001,-14.1,,,x,,,
1386725,-2.6725028,9.006837,-4.1977673,-1.935988,1.1356779,-1.310984,110.700005,-153.3,-14.1,,,x,,,
1386745,-2.3530943,9.042726,-4.2157116,-0.777444,0.144818,-0.746956,105.9,-150.90001,-16.5,,,x,,,
1386767,-1.556368,9.399219,-3.8394797,-0.198172,-0.70122397,0.015244,113.100006,-165.3,-16.5,,,x,,,
1386807,-0.77758586,9.299329,-3.6755886,-0.884152,-0.83842,-0.160062,115.50001,-167.70001,-14.700001,,,x,,,
1386827,-0.5431138,8.768776,-3.5398102,-0.7622,-1.158544,-0.28201398,105.9,-162.90001,-15.3,,,x,,,
1386847,-0.093310304,9.1515875,-3.4925568,-0.60976,-1.326228,0.327746,101.100006,-158.1,-20.7,,,x,,,
1386869,0.2254999,9.1838875,-3.196476,-0.899396,-1.173788,0.243904,115.50001,-158.1,-12.3,,,x,,,
1386889,0.55746925,9.072633,-2.9596114,-1.06708,-0.716468,0.11432999,103.50001,-150.90001,-17.7,,,x,,,
1386909,0.51978624,8.649147,-2.9727705,-1.1051899,-0.091464,-0.251526,103.50001,-155.70001,-17.7,,,x,,,
1386932,0.6083114,8.779543,-2.8543382,-0.67835796,0.068598,-0.068598,110.700005,-158.1,-17.7,,,,,,
1386954,0.5072252,8.685036,-3.0283978,-0.655492,0.07622,-0.33536798,113.100006,-167.70001,-20.7,,,,,,
1386974,0.53234726,8.423648,-3.007463,-0.030488,-0.358234,0.11432999,91.5,-165.3,-11.1,,,,,,
1386994,1.1562104,8.787916,-2.6790824,0.15244,-0.80030996,0.487808,101.100006,-165.3,-14.1,,,,,,
1387056,1.4457116,8.769374,-2.6629324,0.396344,-0.320124,-0.312502,108.3,-155.70001,-17.7,,,,,,
1387078,1.1765472,8.783132,-2.9225266,0.221038,0.007622,-0.358234,91.5,-150.90001,-19.5,,,,,,
1387098,1.0940034,8.850123,-2.9057786,0.56402797,-0.22865999,-0.34298998,105.9,-155.70001,-13.500001,,,,,,
1387120,1.0963961,9.158765,-3.012248,0.449698,-0.106708,-0.426832,108.3,-160.5,-17.1,,,,,,
1387141,0.8858497,8.812441,-3.1982706,0.26677,0.060976,-0.69360197,96.3,-158.1,-15.900001,,,,,,
1387161,0.6824811,8.865077,-3.3729281,0.632626,0.0,-0.55640596,103.50001,-167.70001,-17.1,,,,,,
1387181,0.63462967,9.052296,-3.3238804,0.716468,-0.182928,-0.40396598,108.3,-146.1,-20.1,,,,,,
1387201,0.79792273,9.061268,-3.1863077,0.358234,0.045732,-0.35061198,108.3,-148.5,-15.3,,,,,,
1387221,0.8152689,9.211402,-3.2556922,0.022866,0.46494198,-0.442076,105.9,-150.90001,-11.1,,,,,,
1387245,0.74528617,8.760402,-3.196476,-0.274392,0.602138,-0.541162,115.50001,-155.70001,-10.5,,,,,,
1387266,0.8056986,8.86089,-3.1725502,-0.060976,0.57164997,-0.243904,117.9,-155.70001,-13.500001,,,,,,
1387286,0.8601296,8.9141245,-3.1528115,0.03811,0.45731997,-0.274392,103.50001,-150.90001,-6.9,,,,,,
1387306,0.74229544,8.957191,-3.2437294,0.297258,0.35061198,-0.19055,91.5,-155.70001,-12.900001,,,x,,,
1387327,0.5640488,8.890797,-3.2485144,0.20579399,0.297258,-0.396344,103.50001,-162.90001,-12.900001,,,x,,,
1387347,0.44322395,8.737673,-3.4560702,0.045732,0.099086,-0.53354,113.100006,-165.3,-16.5,,,x,,,
1387367,0.35948393,8.64496,-3.4644442,0.259148,-0.060976,-0.41158798,110.700005,-165.3,-17.1,,,x,,,
1387387,0.025122005,8.747841,-3.5493803,0.129574,0.0,-0.33536798,103.50001,-136.5,-19.5,,,x,,,
1387410,-0.8798683,8.178409,-3.7605247,-0.274392,0.56402797,-0.259148,101.100006,-148.5,-10.5,,,x,,,
1387432,-1.6520709,8.640175,-4.1397476,-0.243904,1.082324,0.373478,122.700005,-155.70001,-12.900001,,,x,,,
1387453,-2.622259,9.2054205,-4.6846557,-0.510674,1.6234859,-0.07622,113.100006,-158.1,-10.5,,,x,,,
1387473,-4.5153813,8.702382,-5.023205,-0.259148,2.2103798,-1.760682,113.100006,-158.1,-12.3,,,x,,,
1387493,-5.324669,8.892591,-6.1883874,1.25763,3.376546,-1.493912,120.3,-165.3,-6.3,,,x,,,
1387517,-4.739685,10.471689,-6.2787066,0.3811,0.792688,0.3811,113.100006,-153.3,-15.900001,,,x,,,
1387540,-4.537513,9.28617,-5.785837,0.053354,1.471046,-0.480186,98.700005,-165.3,-9.900001,,,x,,,
1387560,-4.063783,8.890199,-5.37252,0.640248,-0.11432999,-0.99086,105.9,-148.5,-14.1,,,x,,,
1387580,-3.3878818,7.811149,-4.5165777,0.91463995,-1.577754,-1.8369019,117.9,-153.3,-8.1,,,x,,,
1387600,-2.4452085,6.5729933,-3.7258325,0.792688,-2.2484899,-1.173788,122.700005,-150.90001,-14.700001,,,x,,,
1387620,-1.1992767,6.762604,-2.9356856,-0.083841994,-1.760682,0.899396,117.9,-160.5,-12.3,,,x,,,
1387640,-0.33735263,7.329046,-2.5157893,-0.846042,-0.426832,1.097568,105.9,-153.3,-10.5,,,x,,,
1387660,0.043664437,7.733989,-2.7688038,-0.434454,0.891774,0.72409,108.3,-146.1,-9.3,,,x,,,
1387680,-0.026318291,7.201043,-2.7203543,-0.053354,0.967994,-0.26677,103.50001,-153.3,-8.1,,,x,,,
1387700,0.57421726,6.887616,-2.5558648,0.846042,0.602138,0.16768399,105.9,-153.3,-9.900001,,,x,,,
1387723,1.0138524,7.480376,-2.3710387,0.861286,0.640248,0.92226195,108.3,-155.70001,-11.1,,,x,,,
1387743,1.8715893,8.701784,-2.9602096,-0.213416,0.95274997,2.050318,120.3,-162.90001,-15.3,,,x,,,
1387763,2.8728807,9.30232,-3.4572663,-0.17530599,1.250008,2.660078,108.3,-155.70001,-8.1,,,x,,,
1387783,4.078139,10.018895,-3.267057,-0.81555396,-0.289636,3.323192,108.3,-160.5,-9.3,,,x,,,
1387806,4.5416994,9.9507065,-2.6055107,-1.737816,-0.68597996,2.545748,103.50001,-155.70001,-4.5,,,x,,,
1387826,4.261769,8.947022,-2.4906673,-1.966476,-0.053354,1.532022,103.50001,-167.70001,-9.900001,,,x,,,
1387846,3.2574866,8.492434,-2.8160572,-0.442076,0.19055,0.868908,93.9,-146.1,-15.3,,,x,,,
1387866,3.2832067,8.747243,-3.0463421,0.28201398,0.03811,0.967994,110.700005,-165.3,-13.500001,,,x,,,
1387886,2.9775558,9.297534,-3.1564004,1.074702,-0.586894,1.71495,86.700005,-162.90001,-15.900001,,,x,,,
1387906,2.9608078,8.760402,-3.2371497,0.388722,-0.861286,2.118916,89.100006,-158.1,-13.500001,,,x,,,
1387948,3.698318,9.210804,-2.9309006,-0.30488,0.731712,1.6311079,81.9,-155.70001,-11.1,,,x,,,
1387968,3.6779811,8.688026,-3.1564004,-0.716468,1.98172,1.532022,74.700005,-172.5,-11.700001,,,x,,,
1387988,3.68157,9.011622,-3.434537,-0.663114,2.423796,2.027452,81.9,-160.5,-7.5000005,,,x,,,
1388008,3.8209374,9.683336,-3.4710236,-0.853664,2.2789779,2.2865999,77.100006,-170.1,-11.1,,,x,,,
1388030,3.6516628,9.317273,-3.405228,-1.3795819,1.699706,1.6158639,91.5,-160.5,-11.700001,,,x,,,
1388051,3.7120752,9.412377,-3.3418248,-1.211898,0.708846,1.051836,77.100006,-174.90001,-12.900001,,,x,,,
1388072,3.9309957,9.385462,-3.1390543,-0.769822,-0.19055,0.327746,79.5,-167.70001,-10.5,,,x,,,
1388092,4.2767224,9.727001,-3.1988685,-0.26677,-0.739334,0.221038,69.9,-167.70001,-12.900001,,,x,,,
1388112,4.6374025,10.027867,-2.9955,-0.449698,-1.204276,0.091464,67.5,-170.1,-11.1,,,x,,,
1388132,4.504615,9.419556,-2.8818529,-0.80030996,-1.089946,-0.518296,72.3,-170.1,-5.1000004,,,x,,,
1388152,4.831799,9.965062,-2.8220387,-0.92226195,-1.089946,-0.182928,72.3,-162.90001,-9.3,,,x,,,
1388172,5.298949,10.1451025,-2.5558648,-1.745438,-0.93750596,-0.396344,65.100006,-162.90001,-14.1,,,x,,,
1388195,5.176329,10.128953,-2.3794127,-1.417692,-0.525918,-0.602138,79.5,-170.1,-8.700001,,,x,,,
1388215,4.9173336,9.667785,-2.1766422,-1.158544,-0.17530599,-1.21952,74.700005,-167.70001,-15.900001,,,x,,,
1388235,4.803088,9.758104,-2.3824034,-0.617382,-0.160062,-1.425314,72.3,-162.90001,-13.500001,,,x,,,
1388255,4.698413,9.871752,-2.217316,-0.548784,-0.80793196,-2.347576,96.3,-170.1,-18.900002,,,x,,,
1388316,3.4560702,8.463723,-2.0289009,0.091464,-1.1204339,-2.2408679,91.5,-160.5,-15.3,,,x,,,
1388336,3.1115398,8.397927,-2.0253122,0.625004,-0.93750596,-2.01983,98.700005,-170.1,-3.3000002,,,x,,,
1388357,2.940471,8.217288,-2.0797431,0.884152,-0.754578,-2.370442,89.100006,-165.3,-12.3,,,x,,,
1388377,2.493658,7.9116373,-2.2370548,1.3719599,-0.510674,-2.55337,96.3,-162.90001,-14.700001,,,x,,,
1388397,2.208942,8.235232,-2.5540705,1.326228,-0.22865999,-2.2103798,101.100006,-174.90001,-15.3,,,x,,,
1388418,1.6879594,7.629912,-2.467938,0.053354,-0.41921,-2.431418,108.3,-158.1,-11.1,,,x,,,
1388438,0.9229346,6.8439517,-2.9847333,1.074702,0.449698,-2.621968,96.3,-153.3,-8.1,,,x,,,
1388458,0.033496007,6.2410235,-2.9632003,1.1432999,0.289636,-2.2713559,115.50001,-153.3,-11.700001,,,x,,,
1388478,-0.61847985,6.948627,-3.6151762,1.18141,0.632626,-1.3872039,113.100006,-148.5,-15.900001,,,x,,,
1388502,-0.96420646,7.573088,-4.1403456,1.3719599,0.33536798,-1.539644,101.100006,-160.5,-5.1000004,,,x,,,
1388522,-1.3422328,7.5049,-4.285096,1.211898,0.137196,-1.775926,117.9,-153.3,-14.700001,,,x,,,
1388544,-1.6072102,7.815934,-4.7953124,1.326228,0.07622,-1.173788,101.100006,-155.70001,-11.1,,,x,,,
1388564,-1.9068798,8.151492,-4.727722,1.570132,-0.53354,-0.53354,105.9,-158.1,-11.1,,,x,,,
1388584,-2.0923042,8.097659,-4.589551,0.510674,-0.091464,-0.274392,120.3,-148.5,-13.500001,,,x,,,
1388604,-2.3979552,8.176016,-4.8300047,0.312502,0.121952,-0.503052,110.700005,-155.70001,-17.1,,,x,,,
1388624,-2.527154,8.196353,-4.72832,0.388722,-0.121952,-0.243904,113.100006,-153.3,-14.700001,,,x,,,
1388644,-2.723345,8.743654,-4.9932976,-0.35061198,0.083841994,-0.11432999,120.3,-143.70001,-6.9,,,x,,,
1388664,-2.8357959,8.658718,-5.0806265,-0.64787,-0.358234,-0.35061198,110.700005,-146.1,-7.5000005,,,x,,,
1388688,-2.5157893,8.832777,-4.652356,-0.853664,-1.082324,-0.213416,115.50001,-153.3,-13.500001,,,x,,,
1388729,-2.0797431,8.971546,-4.217506,-1.684462,0.091464,-0.518296,108.3,-150.90001,-11.700001,,,x,,,
1388749,-1.999592,9.070838,-4.1828136,-1.059458,0.259148,-0.56402797,110.700005,-138.90001,-17.1,,,x,,,
1388769,-1.8189528,9.301124,-4.18401,-0.625004,0.22865999,-0.541162,115.50001,-150.90001,-10.5,,,x,,,
1388789,-1.7986159,9.013416,-4.073354,-0.388722,0.007622,-0.548784,110.700005,-153.3,-9.3,,,x,,,
1388809,-1.4947593,9.172523,-3.999184,0.083841994,-0.45731997,-0.221038,113.100006,-146.1,-9.3,,,x,,,
1388849,-0.99889874,8.922499,-3.9148457,-0.007622,-0.792688,0.091464,105.9,-155.70001,-7.5000005,,,x,,,
1388909,-0.16568561,8.891396,-3.5906522,-0.853664,-0.487808,0.20579399,103.50001,-160.5,-9.900001,,,x,,,
1388929,0.12979703,8.873451,-3.6397,-1.150922,-0.160062,-0.030488,120.3,-158.1,-9.900001,,,x,,,
1388949,0.28471604,8.725112,-3.656448,-0.754578,0.33536798,-0.35061198,120.3,-155.70001,-15.900001,,,x,,,
1388969,0.28471604,8.177213,-3.5972319,-0.518296,0.579272,-0.746956,108.3,-146.1,-18.300001,,,x,,,
1388989,0.46415895,8.31658,-3.6516628,-0.083841994,0.625004,-0.312502,125.100006,-162.90001,-7.5000005,,,,,,
1389010,0.49466425,8.87704,-3.6307278,-0.510674,0.731712,-0.03811,125.100006,-160.5,-19.5,,,,,,
1389030,0.3397452,9.036744,-3.6833644,-0.510674,1.013726,-0.739334,105.9,-146.1,-14.700001,,,,,,
1389050,0.0077758585,8.847731,-3.9932024,-0.358234,0.967994,-1.318606,105.9,-153.3,-17.1,,,,,,
1389070,0.10108616,8.677858,-3.6887476,-0.69360197,0.091464,-1.089946,115.50001,-146.1,-14.700001,,,,,,
1389092,0.51021594,8.6001,-3.1821206,-0.975616,0.20579399,-0.769822,108.3,-153.3,-10.5,,,,,,
1389112,0.62984455,8.829786,-3.347208,-0.548784,0.708846,-0.33536798,120.3,-143.70001,-11.1,,,,,,
1389132,0.556273,8.866872,-3.2694495,-0.259148,0.80030996,-0.56402797,108.3,-153.3,-15.3,,,,,,
1389156,0.47372922,8.840553,-3.4913604,0.007622,1.006104,-0.853664,125.100006,-153.3,-5.7000003,,,x,,,
1389176,0.27993092,8.595913,-3.5087066,0.045732,0.87653,-0.891774,108.3,-131.70001,-11.1,,,x,,,
1389196,0.26258478,8.688026,-3.6546535,0.083841994,0.69360197,-0.716468,125.100006,-141.3,-5.7000003,,,x,,,
1389260,0.11304902,8.545669,-3.7001123,-0.182928,0.28201398,0.0,115.50001,-148.5,-13.500001,,,x,,,
1389280,0.025122005,8.454751,-3.7790673,-0.129574,0.274392,0.045732,117.9,-150.90001,-8.1,,,x,,,
1389300,-0.1363766,8.58395,-3.9489398,-0.091464,0.20579399,0.16768399,108.3,-153.3,-11.700001,,,x,,,
1389344,-1.1221162,8.796888,-4.5159793,-0.15244,0.16768399,0.708846,125.100006,-148.5,-14.700001,,,x,,,
1389364,-1.7382035,8.717934,-4.8264155,-0.34298998,0.106708,0.41158798,122.700005,-148.5,-14.1,,,x,,,
1389384,-2.301056,8.433816,-4.899987,-0.3811,-0.106708,0.396344,117.9,-150.90001,-14.700001,,,x,,,
1389404,-2.8692918,8.479275,-4.910156,-0.449698,0.160062,0.503052,110.700005,-148.5,-14.1,,,x,,,
1389446,-4.6990113,9.017005,-5.7995944,-0.785066,2.187514,-0.22865999,117.9,-155.70001,-15.3,,,x,,,
1389466,-4.5554566,9.729394,-6.279305,-0.46494198,1.79117,-0.388722,110.700005,-153.3,-12.3,,,x,,,
1389489,-4.0057635,8.761599,-5.1637683,-0.40396598,-0.625004,-2.2256238,129.90001,-155.70001,-12.3,,,x,,,
1389509,-3.534427,7.6544356,-4.3825936,-0.358234,-1.02897,-2.919226,127.50001,-148.5,-11.1,,,x,,,
1389530,-2.882451,7.0850034,-3.7288232,-0.099086,-1.532022,-2.492394,117.9,-153.3,-15.3,,,x,,,
1389550,-2.3871887,6.6507516,-3.0947917,-0.26677,-1.6234859,-2.103672,117.9,-150.90001,-19.5,,,x,,,
1389570,-1.8464674,6.446187,-2.7502613,-0.144818,-1.455802,-1.3719599,129.90001,-143.70001,-8.1,,,x,,,
1389590,-1.0658908,7.0144224,-2.4816952,0.3811,-1.56251,-0.434454,134.70001,-155.70001,-20.1,,,x,,,
1389610,-0.47971067,7.1053405,-2.1850162,0.56402797,-0.716468,0.03811,117.9,-148.5,-9.900001,,,x,,,
1389633,0.21533147,8.098856,-2.3279724,0.81555396,-0.358234,1.509156,125.100006,-146.1,-12.900001,,,x,,,
1389653,0.53832865,7.6616135,-1.9038891,0.510674,0.68597996,1.082324,127.50001,-160.5,-9.3,,,x,,,
1389694,2.0241158,10.103831,-2.4571714,-0.83842,2.583858,2.446662,115.50001,-146.1,-14.700001,,,x,,,
1389714,2.1156316,9.701879,-2.5235653,-1.204276,2.888738,1.3719599,115.50001,-153.3,-15.900001,,,x,,,
1389734,2.2292788,9.258655,-3.0451458,-0.40396598,2.957336,1.539644,122.700005,-146.1,-8.1,,,x,,,
1389755,2.7203543,10.044615,-3.24672,-0.11432999,2.2180018,2.606724,113.100006,-146.1,-12.3,,,x,,,
1389775,3.0690715,9.79818,-3.058305,-0.442076,0.830798,1.737816,113.100006,-148.5,-11.1,,,x,,,
1389795,3.0816326,8.581557,-2.815459,-0.083841994,0.327746,1.760682,98.700005,-170.1,-8.700001,,,x,,,
1389815,3.284403,9.320862,-3.2192054,0.45731997,0.068598,2.835384,91.5,-160.5,-9.3,,,x,,,
1389835,3.3406284,9.3998165,-3.4823885,0.907018,-0.442076,2.6981878,101.100006,-148.5,-10.5,,,x,,,
1389858,3.6696072,9.009828,-3.5751004,1.1128119,-1.3719599,2.7972739,89.100006,-150.90001,-9.3,,,x,,,
1389878,4.2408338,9.760497,-3.55596,0.297258,-1.3414719,3.384168,101.100006,-158.1,-9.3,,,x,,,
1389940,4.8048825,9.706066,-3.777273,-0.67835796,0.297258,2.012208,77.100006,-160.5,-10.5,,,x,,,
1389960,5.131469,9.784423,-3.2658606,-1.326228,0.327746,1.75306,89.100006,-162.90001,-9.900001,,,x,,,
1389980,4.910156,9.250281,-3.1635783,-1.5244,1.4024479,1.189032,79.5,-170.1,-10.5,,,x,,,
1390001,4.33235,8.880031,-3.4207797,-0.95274997,1.75306,0.503052,81.9,-162.90001,-11.700001,,,x,,,
1390022,3.8663962,9.493725,-3.831704,-0.007622,0.998482,0.45731997,74.700005,-158.1,-9.900001,,,x,,,
1390046,3.8059838,9.406396,-3.606204,-0.625004,-1.1356779,0.510674,96.3,-153.3,-12.900001,,,x,,,
1390066,3.9716694,9.49851,-3.4375277,-0.830798,-1.509156,0.70122397,79.5,-155.70001,-17.7,,,x,,,
1390086,4.243226,9.20243,-3.2233925,-1.3719599,-2.073184,0.525918,74.700005,-162.90001,-8.700001,,,x,,,
1390106,4.856323,9.295142,-3.299955,-1.074702,-2.2865999,0.17530599,81.9,-167.70001,-5.1000004,,,x,,,
1390126,5.6913304,10.041026,-2.8262255,-1.4024479,-2.347576,0.129574,81.9,-170.1,-10.5,,,x,,,
1390146,5.174535,9.124671,-2.5277522,-1.8369019,-0.83842,-1.1051899,91.5,-167.70001,-10.5,,,x,,,
1390167,4.8664913,9.122876,-2.7903368,-1.425314,-0.442076,-1.1204339,86.700005,-148.5,-19.5,,,x,,,
1390187,4.5668216,9.486547,-2.765215,-0.891774,-0.320124,-1.8902559,81.9,-162.90001,-17.1,,,x,,,
1390207,4.2252817,9.391443,-2.8722825,-0.449698,-0.442076,-2.599102,86.700005,-153.3,-19.5,,,x,,,
1390227,3.7617211,8.93506,-2.6784842,-0.40396598,-0.899396,-2.7210538,89.100006,-160.5,-6.3,,,x,,,
1390270,3.1396525,8.764589,-2.3710387,-0.373478,-1.1280559,-2.13416,103.50001,-158.1,-11.700001,,,x,,,
1390298,2.179633,8.448172,-2.2956727,-0.365856,-0.243904,-2.355198,103.50001,-153.3,-14.1,,,x,,,
1390318,1.7280351,8.01392,-2.3710387,-0.49543,0.129574,-2.888738,89.100006,-160.5,-9.900001,,,x,,,
1390359,-0.52277696,7.0820127,-2.932695,-0.106708,1.935988,-2.6905658,122.700005,-153.3,-15.3,,,x,,,
1390379,-1.5037315,6.965375,-3.5320342,-0.251526,1.6234859,-2.957336,103.50001,-150.90001,-10.5,,,x,,,
1390399,-2.2831118,7.0676575,-3.6588407,0.388722,1.8292799,-2.55337,108.3,-148.5,-16.5,,,x,,,
1390419,-2.950041,8.021097,-3.9507344,0.87653,0.960372,-2.2103798,108.3,-150.90001,-13.500001,,,x,,,
1390439,-3.1773355,7.8476357,-4.0721574,0.289636,0.87653,-2.89636,125.100006,-158.1,-14.700001,,,x,,,
1390459,-3.070268,7.5629196,-4.100868,0.70122397,0.41158798,-2.317088,108.3,-153.3,-20.1,,,x,,,
1390479,-3.2431312,8.127566,-4.1923842,0.28201398,0.56402797,-1.196654,122.700005,-146.1,-16.5,,,x,,,
1390544,-3.0194256,8.338711,-4.526746,-0.03811,-0.243904,0.068598,113.100006,-158.1,-15.3,,,x,,,
1390564,-2.6079032,8.755617,-4.4741096,-0.060976,-0.487808,0.259148,113.100006,-150.90001,-18.300001,,,x,,,
1390585,-2.443414,8.661709,-4.204945,-0.49543,-0.182928,0.007622,103.50001,-155.70001,-14.1,,,x,,,
1390605,-2.2358584,8.707766,-4.34192,-0.640248,0.106708,-0.015244,127.50001,-158.1,-15.900001,,,x,,,
1390665,-1.5402181,9.663,-4.179225,-0.213416,0.541162,0.045732,122.700005,-153.3,-15.3,,,x,,,
1390688,-1.3506068,9.215589,-4.0314837,-0.106708,0.15244,-0.92988396,115.50001,-153.3,-15.900001,,,x,,,
1390708,-1.0150486,8.790907,-3.8137596,0.20579399,-0.07622,-0.625004,122.700005,-155.70001,-11.1,,,x,,,
1390728,-0.8589333,9.2377205,-3.9226215,0.289636,0.03811,-0.373478,115.50001,-146.1,-6.3,,,x,,,
1390750,-0.9618139,9.162354,-4.079335,0.297258,-0.221038,-0.57164997,134.70001,-150.90001,-9.900001,,,x,,,
1390770,-0.8882423,8.900368,-4.0763445,-0.129574,-0.56402797,-0.106708,125.100006,-148.5,-11.700001,,,x,,,
1390830,-0.22430362,8.6868305,-3.673196,-0.868908,-0.251526,0.251526,120.3,-153.3,-17.1,,,x,,,
1390850,0.056225438,8.685036,-3.480594,-0.868908,-0.060976,0.221038,120.3,-158.1,-13.500001,,,,,,
1390870,0.26378104,9.030763,-3.57211,-1.204276,0.41158798,0.28201398,110.700005,-155.70001,-11.1,,,,,,
1390890,0.22490175,8.78373,-3.6749904,-1.67684,0.480186,0.160062,122.700005,-158.1,-9.3,,,,,,
1390910,0.39716694,9.012818,-3.6211576,-1.463424,-0.099086,0.60976,117.9,-153.3,-8.700001,,,,,,
1390951,0.60472256,9.409387,-3.241935,-1.8826339,0.17530599,0.510674,105.9,-146.1,-14.700001,,,,,,
1391013,0.6657331,8.961378,-3.1270914,0.56402797,-0.3811,-0.708846,125.100006,-155.70001,-18.900002,,,,,,
1391033,0.7123883,8.903956,-3.0355756,0.144818,0.19055,-1.21952,132.3,-153.3,-10.5,,,,,,
1391053,0.5054308,8.553445,-3.1061563,-0.28201398,0.87653,-1.1204339,117.9,-150.90001,-18.300001,,,,,,
1391073,0.10467502,8.379983,-3.3286657,-0.34298998,1.3795819,-0.72409,117.9,-162.90001,-13.500001,,,,,,
1391093,-0.07596416,8.447573,-3.5433989,-0.19055,1.272874,-0.442076,120.3,-148.5,-9.900001,,,,,,
1391136,0.021533147,8.961378,-3.6672146,0.289636,0.34298998,-0.03811,113.100006,-155.70001,-18.900002,,,x,,,
1391156,-0.08732887,8.7627945,-3.80718,0.0,-0.007622,-0.297258,127.50001,-146.1,-20.1,,,x,,,
1391178,0.19140574,8.604885,-3.6540554,0.213416,-0.40396598,0.07622,117.9,-143.70001,-13.500001,,,x,,,
1391198,0.30266035,8.850721,-3.5864654,0.099086,-0.503052,0.442076,113.100006,-150.90001,-14.700001,,,x,,,
1391218,0.32778236,8.845338,-3.6002226,-0.091464,-0.327746,0.22865999,127.50001,-150.90001,-9.3,,,x,,,
1391242,-0.027514577,8.906349,-3.7413843,-0.289636,-0.221038,-0.274392,120.3,-150.90001,-11.1,,,x,,,
1391264,-0.49346796,8.595913,-3.9094625,-0.68597996,-0.144818,-0.45731997,113.100006,-155.70001,-15.3,,,x,,,
1391284,-1.2854092,8.315982,-4.003371,-0.754578,-0.007622,-0.213416,120.3,-153.3,-15.3,,,x,,,
1391304,-2.1688664,8.80945,-4.242628,-1.1128119,0.396344,0.15244,120.3,-148.5,-9.900001,,,x,,,
1391325,-3.020622,9.319666,-4.685852,-1.204276,0.861286,-0.28201398,108.3,-160.5,-14.1,,,x,,,
1391346,-4.371827,8.692214,-4.4741096,-1.242386,0.87653,-1.6311079,115.50001,-153.3,-12.3,,,x,,,
1391366,-5.6410866,8.487649,-5.374315,-0.365856,3.102154,-1.6158639,120.3,-141.3,-18.900002,,,x,,,
1391387,-5.6494603,9.732385,-6.269735,0.358234,2.2027578,0.19055,127.50001,-153.3,-13.500001,,,x,,,
1391447,-4.224086,8.100052,-4.342518,0.365856,-1.8826339,-1.29574,108.3,-150.90001,-14.1,,,x,,,
1391554,-0.3200065,7.0425353,-2.075556,0.594516,-0.16768399,0.099086,122.700005,-146.1,-5.7000003,,,x,,,
1391578,0.75605273,7.757316,-2.0360787,0.23628199,0.518296,0.716468,125.100006,-167.70001,-11.700001,,,x,,,
1391619,1.6658282,8.366824,-2.6342216,-0.129574,2.644834,3.58234,115.50001,-155.70001,-14.700001,,,x,,,
1391679,3.33046,8.927882,-2.3231874,-2.347576,1.8292799,2.637212,103.50001,-155.70001,-15.3,,,x,,,
1391699,4.238441,10.087681,-2.217316,-2.408552,2.51526,3.856732,98.700005,-148.5,-12.900001,,,x,,,
1391723,4.157692,10.095457,-2.6090996,-2.355198,3.513742,3.16313,108.3,-158.1,-14.1,,,x,,,
1391746,3.6672146,9.356153,-2.8914232,-1.166166,2.7439198,2.530504,101.100006,-165.3,-9.900001,,,x,,,
1391766,3.9010885,9.425537,-3.1139324,0.083841994,1.6311079,2.416174,98.700005,-165.3,-6.9,,,x,,,
1391786,4.417286,10.563205,-3.1348674,0.22865999,0.67835796,3.155508,93.9,-162.90001,-14.700001,,,x,,,
1391806,4.495044,10.221067,-3.061894,-0.20579399,-0.137196,2.469528,91.5,-167.70001,-11.700001,,,x,,,
1391827,4.347303,9.50509,-2.836394,0.55640596,0.030488,1.928366,93.9,-160.5,-14.700001,,,x,,,
1391847,4.0727553,9.480566,-3.1910927,1.074702,0.243904,0.785066,81.9,-165.3,-12.900001,,,x,,,
1391867,4.292274,9.7993765,-3.1522136,0.846042,0.160062,0.46494198,91.5,-162.90001,-14.1,,,x,,,
1391909,3.267057,9.00923,-3.5511749,0.87653,0.480186,0.602138,86.700005,-162.90001,-11.1,,,x,,,
1391929,3.1366618,9.124073,-3.5930448,0.899396,0.30488,0.30488,91.5,-158.1,-6.3,,,x,,,
1391949,3.421378,9.37649,-3.5930448,0.160062,0.015244,0.510674,84.3,-167.70001,-14.700001,,,x,,,
1391973,3.6205595,9.199439,-3.3621616,-0.731712,-0.091464,1.227142,81.9,-160.5,-15.900001,,,x,,,
1391993,3.5930448,8.739467,-3.1037638,-1.082324,-0.015244,0.94512796,86.700005,-172.5,-17.1,,,x,,,
1392013,3.5786893,9.3998165,-3.2180092,-0.632626,-0.022866,0.221038,77.100006,-170.1,-11.1,,,x,,,
1392034,3.8006005,9.797582,-3.0002851,-0.655492,-0.55640596,-0.69360197,79.5,-170.1,-5.1000004,,,x,,,
1392054,3.6917384,9.435107,-2.5630426,-1.06708,-0.525918,-1.158544,86.700005,-160.5,-14.700001,,,x,,,
1392074,3.3543859,9.005641,-2.4158995,-0.548784,-0.426832,-1.1051899,84.3,-160.5,-12.3,,,x,,,
1392097,3.112736,9.079212,-2.610894,0.487808,-0.129574,-1.6006199,98.700005,-141.3,-20.7,,,x,,,
1392117,3.1683633,9.454247,-2.9105637,0.830798,-0.07622,-1.455802,86.700005,-170.1,-7.5000005,,,x,,,
1392137,3.16298,9.5403805,-3.0272017,0.60976,-0.182928,-1.089946,96.3,-150.90001,-14.1,,,x,,,
1392157,3.1575968,9.219776,-3.1821206,0.35061198,-0.15244,-0.594516,84.3,-160.5,-16.5,,,x,,,
1392177,3.3603673,9.387854,-3.1982706,-0.068598,-0.091464,-0.503052,86.700005,-155.70001,-10.5,,,x,,,
1392197,3.4088168,9.122876,-3.263468,-0.49543,0.121952,-0.746956,96.3,-167.70001,-14.1,,,x,,,
1392217,3.401639,9.100147,-3.271842,-0.617382,-0.137196,-0.70122397,96.3,-165.3,-10.5,,,x,,,
1392237,3.2945714,8.906947,-3.2162147,-0.708846,-0.3811,-0.746956,89.100006,-160.5,-14.700001,,,x,,,
1392258,3.1605875,8.876442,-2.9667892,-0.67073596,-0.92988396,-0.891774,91.5,-150.90001,-10.5,,,x,,,
1392278,3.2156167,8.969153,-2.7891407,-0.80030996,-1.288118,-1.211898,93.9,-155.70001,-11.1,,,x,,,
1392298,3.062492,8.396731,-2.4045348,-0.975616,-1.6006199,-1.966476,98.700005,-160.5,-15.900001,,,x,,,
1392318,2.9775558,8.2549715,-2.083332,-1.013726,-1.288118,-2.027452,96.3,-158.1,-10.5,,,x,,,
1392338,2.736504,8.54208,-2.1975772,-0.137196,-0.7622,-2.179892,101.100006,-160.5,-9.900001,,,x,,,
1392361,2.18382,7.994779,-2.0911078,-0.373478,-0.30488,-3.01069,101.100006,-160.5,-13.500001,,,x,,,
1392421,-1.041965,6.828998,-3.2233925,0.0,0.853664,-2.042696,108.3,-153.3,-11.1,,,x,,,
1392458,-2.1622868,6.9139347,-3.9949968,0.434454,0.015244,-2.01983,120.3,-153.3,-20.1,,,x,,,
1392478,-2.8842454,7.518657,-4.6086917,0.67835796,-0.053354,-1.21952,115.50001,-150.90001,-17.1,,,x,,,
1392518,-2.7430837,8.59352,-4.6027102,1.1280559,-1.234764,-1.196654,108.3,-150.90001,-14.700001,,,x,,,
1392542,-2.9213302,8.579762,-4.5626345,0.625004,-0.144818,-2.065562,117.9,-153.3,-11.1,,,x,,,
1392562,-3.133671,8.168241,-4.6673098,0.55640596,0.510674,-2.393308,115.50001,-146.1,-14.1,,,x,,,
1392582,-3.1677651,8.256167,-4.454969,0.297258,0.67073596,-2.149404,120.3,-153.3,-8.1,,,x,,,
1392622,-3.1653726,8.893787,-4.8856316,-0.777444,1.425314,-1.463424,132.3,-150.90001,-14.700001,,,x,,,
1392646,-2.7969165,9.306506,-4.878454,-0.33536798,0.975616,-0.49543,129.90001,-155.70001,-11.1,,,x,,,
1392666,-2.4464047,9.380078,-4.580579,-0.503052,0.594516,-0.137196,127.50001,-143.70001,-14.1,,,x,,,
1392706,-1.7088945,9.31189,-3.9985857,-0.617382,0.69360197,0.289636,125.100006,-158.1,-9.900001,,,x,,,
1392726,-1.6771929,8.880629,-4.04225,-0.83842,1.1432999,0.083841994,125.100006,-150.90001,-18.900002,,,x,,,
1392746,-1.6496783,8.76399,-4.066176,-0.365856,0.746956,0.327746,122.700005,-146.1,-6.9,,,x,,,
1392767,-1.4786094,8.452956,-3.9722674,-0.221038,0.243904,0.34298998,122.700005,-148.5,-9.3,,,x,,,
1392787,-1.1376679,8.625221,-3.7503564,-0.160062,-0.20579399,0.87653,132.3,-162.90001,-12.3,,,x,,,
1392807,-0.6208724,8.883619,-3.7581322,-0.731712,-0.20579399,1.021348,110.700005,-146.1,-11.700001,,,x,,,
1392827,-0.53115094,8.696401,-3.5009308,-0.830798,-0.46494198,1.1051899,127.50001,-153.3,-17.1,,,x,,,
1392847,-0.2619866,8.912331,-3.711477,-0.754578,-0.480186,1.082324,117.9,-153.3,-16.5,,,,,,
1392867,-0.15970418,8.665895,-3.5667264,-0.602138,-0.81555396,1.021348,129.90001,-146.1,-14.700001,,,,,,
1392887,0.1309933,8.786122,-3.426163,-0.518296,-1.02897,1.1128119,117.9,-153.3,-11.700001,,,,,,
1392907,0.5999374,9.07981,-3.2832067,-0.579272,-0.93750596,0.510674,113.100006,-150.90001,-9.900001,,,,,,
1392927,0.6687238,8.832179,-3.33046,-0.579272,-0.617382,-0.137196,134.70001,-153.3,-19.5,,,x,,,
1392947,0.6585554,8.633595,-3.3370397,-0.449698,-0.510674,-0.3811,117.9,-143.70001,-7.5000005,,,x,,,
1393010,0.5275621,9.383069,-3.580484,0.320124,0.327746,-0.739334,117.9,-146.1,-8.700001,,,x,,,
1393139,0.11663788,8.764589,-3.2712438,-0.289636,0.083841994,-0.503052,120.3,-148.5,-7.5000005,,,x,,,
1393356,-5.9844203,10.037437,-6.142928,-0.594516,0.03811,-0.594516,115.50001,-153.3,-8.700001,,,x,,,
1393378,-5.532224,8.940443,-5.9461393,-0.95274997,1.417692,-0.426832,110.700005,-146.1,-14.700001,,,x,,,
1393420,-3.2778234,8.22626,-4.3496957,-1.5244,0.769822,1.242386,122.700005,-146.1,-15.900001,,,x,,,
1393440,-2.1263983,6.819428,-3.610989,-1.509156,-0.251526,1.3795819,108.3,-150.90001,-21.300001,,,x,,,
1393460,-0.8296243,6.851728,-2.3967588,-1.3567159,-0.792688,2.2637339,132.3,-153.3,-14.1,,,x,,,
1393480,0.35589507,8.09407,-2.1054633,-1.75306,-0.327746,1.775926,120.3,-155.70001,-14.700001,,,x,,,
1393500,0.8015116,7.5084887,-1.9553294,-1.3795819,0.198172,-0.160062,113.100006,-155.70001,-14.1,,,x,,,
1393523,0.9588232,7.3577566,-1.8093824,-0.785066,-0.182928,-0.243904,115.50001,-158.1,-14.700001,,,x,,,
1393543,1.4289635,7.943339,-1.9020946,-0.213416,-0.274392,0.41921,113.100006,-153.3,-8.1,,,x,,,
1393563,1.6628375,8.362637,-1.8620191,-0.259148,-0.53354,0.731712,105.9,-153.3,-12.3,,,x,,,
1393583,2.2191105,8.982911,-2.0420601,-0.289636,-0.388722,1.280496,110.700005,-153.3,-12.3,,,x,,,
1393603,2.7466726,9.195251,-2.2017643,-0.060976,0.03811,0.754578,108.3,-146.1,-10.5,,,x,,,
1393623,2.719158,8.674868,-2.3112245,0.053354,0.34298998,0.46494198,110.700005,-158.1,-12.3,,,x,,,
1393647,2.8130665,8.54208,-2.9524338,0.594516,0.899396,1.455802,105.9,-148.5,-14.1,,,x,,,
1393667,2.9715743,9.149195,-3.145634,0.967994,0.861286,1.814036,98.700005,-153.3,-12.3,,,x,,,
1393688,2.8968065,9.122278,-3.2024574,0.632626,0.68597996,1.48629,108.3,-153.3,-9.3,,,x,,,
1393708,2.6766899,8.810646,-3.2790198,0.358234,0.632626,1.318606,110.700005,-155.70001,-17.1,,,x,,,
1393728,2.887236,8.994874,-3.250907,0.35061198,0.60976,1.532022,89.100006,-160.5,-9.900001,,,x,,,
1393751,3.2742345,9.700085,-3.0236127,-0.182928,0.525918,2.141782,103.50001,-160.5,-12.3,,,x,,,
1393771,3.2162147,9.4321165,-2.819048,-0.92226195,1.097568,1.669218,98.700005,-158.1,-14.1,,,x,,,
1393833,3.4351351,9.563708,-2.7843556,-0.28201398,1.9054999,1.554888,98.700005,-158.1,-11.1,,,x,,,
1393855,3.5081086,9.484155,-2.6605399,-0.47256398,1.8445239,1.455802,91.5,-155.70001,-6.9,,,x,,,
1393875,3.4165926,9.174317,-2.6455863,-0.17530599,1.8902559,1.432936,96.3,-150.90001,-17.1,,,x,,,
1393895,3.380106,9.426733,-2.8555346,0.099086,2.012208,1.051836,79.5,-172.5,-10.5,,,x,,,
1393916,2.9482467,8.971546,-3.3860874,-0.099086,1.806414,0.11432999,79.5,-160.5,-11.700001,,,x,,,
1393936,2.7574391,9.342395,-3.6241484,0.30488,0.853664,0.274392,89.100006,-162.90001,-9.900001,,,x,,,
1393956,2.7251394,9.660009,-3.6223538,0.45731997,0.11432999,-0.045732,86.700005,-167.70001,-9.3,,,x,,,
1393978,2.8310106,9.875938,-3.7683008,0.388722,-0.503052,-0.33536798,98.700005,-153.3,-16.5,,,x,,,
1393999,3.0361738,9.36333,-3.359171,0.182928,-1.1432999,-0.30488,89.100006,-165.3,-8.1,,,x,,,
1394020,3.262272,9.412377,-3.3842928,-0.243904,-0.830798,0.0,86.700005,-162.90001,-0.90000004,,,x,,,
1394082,3.8992941,9.631298,-3.4249666,0.022866,-0.739334,-0.060976,89.100006,-155.70001,-9.900001,,,x,,,
1394102,4.0063615,9.004444,-3.1952798,-0.68597996,-0.891774,-0.160062,89.100006,-153.3,-3.3000002,,,x,,,
1394122,4.1875987,8.988893,-3.058305,-0.655492,-0.891774,0.26677,96.3,-160.5,-15.3,,,x,,,
1394146,4.14872,9.252673,-3.23057,-0.28201398,-0.792688,-0.83842,98.700005,-150.90001,-13.500001,,,x,,,
1394166,4.2181044,9.377088,-3.099577,-0.007622,-1.097568,-1.3567159,86.700005,-160.5,-8.700001,,,x,,,
1394186,3.8586204,8.637184,-2.707195,-0.53354,-1.18141,-1.6311079,89.100006,-165.3,-15.3,,,x,,,
1394206,3.7473657,8.706569,-2.4996395,-0.40396598,-1.006104,-1.250008,98.700005,-155.70001,-10.5,,,x,,,
1394226,3.4070225,8.561818,-2.4942563,-0.80793196,-0.53354,-1.760682,105.9,-162.90001,-12.900001,,,x,,,
1394246,3.049931,8.446377,-2.5983331,-0.579272,-0.320124,-1.8902559,84.3,-162.90001,-12.900001,,,x,,,
1394266,2.643792,7.948124,-2.4930599,-0.45731997,-0.23628199,-2.05794,103.50001,-167.70001,-9.3,,,x,,,
1394286,2.3985534,8.280691,-2.6916435,-0.221038,0.007622,-1.29574,103.50001,-162.90001,-6.9,,,x,,,
1394306,2.1174262,8.315982,-2.8668993,-0.083841994,0.083841994,-1.532022,110.700005,-150.90001,-12.3,,,x,,,
1394326,1.6496783,8.536696,-3.1330729,0.20579399,0.16768399,-1.570132,93.9,-153.3,-15.3,,,x,,,
1394346,1.2226043,8.518752,-3.4417148,-0.137196,-0.16768399,-1.707328,110.700005,-155.70001,-12.900001,,,x,,,
1394366,1.0323948,7.554546,-3.1217082,-0.312502,-0.792688,-1.958854,103.50001,-155.70001,-4.5,,,x,,,
1394386,0.6388167,7.4397025,-2.9853315,-0.28201398,-0.655492,-1.326228,101.100006,-153.3,-12.3,,,x,,,
1394429,-0.49346796,8.94463,-4.1026626,-0.47256398,-0.967994,-1.6158639,120.3,-153.3,-12.3,,,x,,,
1394449,-0.44800907,7.823112,-3.3101232,-0.884152,-2.027452,-2.2332458,115.50001,-153.3,-11.700001,,,x,,,
1394473,-1.5055258,7.441497,-3.259879,-1.3643379,-0.80030996,-1.3719599,117.9,-162.90001,-9.900001,,,x,,,
1394493,-2.1844182,8.0845,-3.6977198,-1.493912,-0.320124,-0.129574,115.50001,-150.90001,-10.5,,,x,,,
1394513,-2.380609,8.141324,-3.7001123,-1.684462,-0.449698,-0.20579399,117.9,-150.90001,-17.1,,,x,,,
1394575,-3.3890781,9.232337,-4.2139173,-0.998482,0.41158798,-0.274392,113.100006,-148.5,-11.1,,,x,,,
1394615,-3.4656403,8.988893,-4.452576,-0.26677,0.19055,-1.250008,105.9,-148.5,-9.900001,,,x,,,
1394635,-3.058305,9.146204,-4.51897,0.15244,-0.045732,-0.632626,125.100006,-153.3,-18.300001,,,x,,,
1394675,-2.5618463,9.686926,-4.6445804,0.586894,-0.274392,-0.92226195,117.9,-153.3,-11.700001,,,x,,,
1394718,-1.9403758,8.497219,-4.0338764,0.64787,-1.288118,-1.150922,129.90001,-158.1,-11.700001,,,x,,,
1394738,-1.5557699,8.25856,-3.8221335,-0.03811,-0.975616,-0.64787,139.5,-150.90001,-15.3,,,x,,,
1394758,-1.2620816,8.576772,-3.8651998,-0.320124,-0.40396598,-0.030488,122.700005,-150.90001,-14.700001,,,x,,,
1394798,-0.4133168,9.13125,-3.7503564,-0.792688,0.022866,0.198172,101.100006,-150.90001,-17.1,,,,,,
1394818,-0.25720146,8.972144,-3.6211576,-0.92226195,0.11432999,0.221038,122.700005,-146.1,-12.3,,,,,,
1394838,0.11603974,9.090577,-3.442911,-0.716468,0.259148,0.34298998,132.3,-160.5,-5.1000004,,,,,,
1394858,0.1489376,9.191663,-3.4835846,-0.754578,0.53354,-0.007622,120.3,-162.90001,-11.1,,,,,,
1394880,0.037084863,8.955995,-3.3962557,-0.594516,0.442076,-0.373478,125.100006,-153.3,-14.1,,,,,,
1394924,0.118432306,8.494826,-3.2556922,-0.160062,0.16768399,-0.434454,125.100006,-155.70001,-14.700001,,,,,,
1394945,0.123815596,8.782534,-3.2861974,0.007622,0.160062,-0.091464,117.9,-148.5,-18.900002,,,,,,
1394965,0.16867632,8.7950945,-3.2431312,-0.213416,0.251526,-0.007622,122.700005,-162.90001,-13.500001,,,,,,
1394985,0.22071476,8.680251,-3.1869059,-0.365856,0.40396598,-0.099086,125.100006,-155.70001,-5.1000004,,,,,,
1395005,0.37503564,8.694606,-3.2018592,-0.259148,0.47256398,-0.198172,129.90001,-150.90001,-14.700001,,,,,,
1395065,0.41092423,8.997865,-3.2921789,0.20579399,0.015244,-0.274392,117.9,-162.90001,-14.1,,,,,,
1395099,0.4360462,9.031361,-3.301151,0.22865999,-0.388722,-0.754578,132.3,-150.90001,-14.1,,,,,,
1395119,0.3343619,8.925489,-3.4189851,-0.182928,-0.28201398,-0.69360197,125.100006,-150.90001,-8.700001,,,,,,
1395159,0.33316565,9.259851,-3.6044095,0.099086,-0.365856,-0.20579399,129.90001,-143.70001,-15.900001,,,,,,
1395179,0.2865105,9.3029175,-3.6426907,-0.099086,-0.22865999,-0.49543,122.700005,-136.5,-8.700001,,,,,,
1395200,0.24523862,9.060072,-3.552371,-0.312502,-0.07622,-0.739334,117.9,-150.90001,-10.5,,,,,,
1395242,0.10646945,8.533706,-3.3842928,-0.640248,0.30488,-0.579272,122.700005,-155.70001,-18.300001,,,x,,,
1395292,-0.43664438,8.67068,-3.4219759,-0.53354,0.33536798,-0.72409,122.700005,-155.70001,-17.1,,,x,,,
1395338,-1.4062341,9.094764,-3.7994041,-0.33536798,0.17530599,-0.068598,127.50001,-148.5,-15.3,,,x,,,
1395358,-2.2938783,9.158765,-4.313209,-0.663114,0.274392,-0.525918,120.3,-148.5,-14.1,,,x,,,
1395398,-5.119506,8.456545,-4.662524,-0.830798,1.6463519,-1.455802,122.700005,-141.3,-18.300001,,,x,,,
1395439,-5.690134,9.796984,-6.5658154,0.510674,0.480186,-0.739334,120.3,-150.90001,-21.300001,,,x,,,
1395459,-5.22119,8.7735615,-5.5148783,0.716468,-1.768304,-1.8597679,127.50001,-148.5,-12.900001,,,x,,,
1395479,-4.572803,7.443889,-4.4232674,0.853664,-1.8750119,-2.2942219,137.1,-148.5,-11.700001,,,x,,,
1395519,-3.1324747,6.852326,-3.6349149,-0.67835796,0.327746,0.030488,139.5,-146.1,-10.5,,,x,,,
1395540,-2.5050228,6.9510193,-3.421378,-0.160062,0.655492,1.1280559,132.3,-148.5,-23.1,,,x,,,
1395560,-1.9511424,7.208221,-3.2443275,0.297258,0.998482,0.830798,127.50001,-160.5,-18.300001,,,x,,,
1395581,-1.5168905,7.1549864,-3.1426432,1.1280559,0.899396,-0.015244,134.70001,-146.1,-4.5,,,x,,,
1395601,-1.1370698,7.345196,-2.802898,1.661596,0.33536798,-0.853664,122.700005,-138.90001,-9.3,,,x,,,
1395624,0.03409415,7.8201213,-2.5546687,1.516778,-0.449698,-0.602138,120.3,-148.5,-15.900001,,,x,,,
1395644,0.36426908,7.1549864,-1.8596265,0.41921,-0.03811,-0.099086,137.1,-155.70001,-8.1,,,x,,,
1395665,0.5891708,7.2895684,-2.0923042,-0.716468,1.547266,1.9054999,137.1,-146.1,-15.3,,,x,,,
1395685,1.2052581,9.081007,-2.8435717,-1.044214,2.469528,4.4664917,125.100006,-148.5,-7.5000005,,,x,,,
1395705,1.5629476,9.937548,-3.3824985,-1.1280559,2.7820299,4.237832,110.700005,-155.70001,-9.900001,,,x,,,
1395725,2.6174736,9.487743,-3.217411,-0.442076,0.55640596,4.138746,105.9,-146.1,-8.1,,,x,,,
1395745,3.915444,10.71633,-2.4960506,-1.75306,0.106708,4.596066,105.9,-158.1,-13.500001,,,x,,,
1395767,4.0482316,10.067943,-2.5163875,-2.637212,1.41007,2.881116,103.50001,-153.3,-13.500001,,,x,,,
1395788,3.7970116,9.262842,-2.7000175,-2.111294,1.509156,2.606724,105.9,-153.3,-12.900001,,,x,,,
1395809,4.131972,9.839452,-2.7012136,-0.67835796,0.967994,2.942092,101.100006,-155.70001,-20.1,,,x,,,
1395833,3.8340964,9.353162,-2.5558648,-0.525918,0.975616,2.408552,91.5,-158.1,-12.3,,,x,,,
1395853,3.7413843,9.750329,-2.8214405,-0.015244,0.960372,2.7362978,89.100006,-162.90001,-14.700001,,,x,,,
1395874,3.5009308,9.471594,-2.8770678,-0.182928,0.80793196,1.98172,93.9,-158.1,-6.9,,,x,,,
1395894,3.673196,9.530212,-2.9751632,0.060976,0.55640596,1.94361,84.3,-160.5,-12.3,,,x,,,
1395917,3.6217556,8.990687,-2.9063766,-0.007622,0.518296,1.71495,93.9,-155.70001,-11.1,,,x,,,
1395938,3.488968,8.97693,-2.9422653,0.07622,0.716468,1.3872039,86.700005,-153.3,-4.5,,,x,,,
1395962,3.350797,9.051698,-3.2323647,0.30488,0.87653,0.746956,77.100006,-165.3,-10.5,,,x,,,
1395982,3.3519933,9.341199,-3.3567784,0.373478,0.373478,0.365856,77.100006,-158.1,-8.1,,,x,,,
1396002,3.3202915,9.256861,-3.271842,0.091464,-0.07622,0.518296,77.100006,-162.90001,-6.3,,,x,,,
1396026,3.183317,9.066651,-3.2413368,-0.137196,-0.35061198,0.22865999,79.5,-158.1,-15.3,,,x,,,
1396046,3.3292637,9.2484865,-3.1827188,-0.182928,-0.487808,-0.007622,91.5,-167.70001,-9.3,,,x,,,
1396066,3.4004428,9.522436,-3.1121378,-0.518296,-0.57164997,-0.17530599,74.700005,-158.1,-16.5,,,x,,,
