time,sensor_accX,sensor_accY,sensor_accZ,sensor_gyroX,sensor_gyroY,sensor_gyroZ,sensor_magX,sensor_magY,sensor_magZ,label_Boxing_slip_left,label_Boxing_slip_right,label_Boxing_pullback,label_Boxing_roll_left,label_Boxing_roll_right,label_Boxing_recording_cut
84575,1.1843231,8.658119,-3.669009,0.3811,0.23628199,-2.36282,108.3,-148.5,-17.1,,,,,,
84595,0.5508897,7.660417,-3.426163,0.3811,-0.07622,-1.9131219,113.100006,-162.90001,-18.900002,,,,,,
84615,0.0077758585,6.991693,-3.142045,0.198172,-0.23628199,-1.3567159,105.9,-146.1,-16.5,,,,,,
84635,-0.3343619,6.90257,-3.0481365,0.07622,-0.15244,-0.792688,115.50001,-148.5,-12.900001,,,,,,
84655,-0.20635933,8.173025,-3.3077307,0.33536798,0.251526,-0.3811,113.100006,-146.1,-12.3,,,,,,
84675,1.0018895,11.454438,-4.472315,1.3948259,0.625004,0.053354,103.50001,-158.1,-20.7,,,,,,
84696,-0.5676377,8.189176,-4.1433363,0.594516,-1.021348,-2.942092,108.3,-160.5,-13.500001,,,,,,
84737,-0.15252645,8.820216,-3.5326324,1.06708,-1.722572,0.480186,117.9,-158.1,-9.900001,,,,,,
84757,-0.42109266,9.784423,-3.949538,0.960372,-1.3643379,0.45731997,103.50001,-148.5,-12.900001,,,,,,
84777,-0.55029154,10.375986,-4.233656,0.899396,-1.242386,-0.46494198,115.50001,-146.1,-13.500001,,,,,,
84799,-0.99889874,9.098951,-3.9830341,0.259148,-1.006104,-1.227142,122.700005,-141.3,-13.500001,,,,,,
84819,-0.98095447,8.973939,-3.9357808,0.160062,-0.861286,-0.884152,122.700005,-146.1,-18.300001,,,,,,
84841,-0.7333233,8.868068,-3.790432,-0.274392,-0.068598,-0.022866,125.100006,-165.3,-13.500001,,,,,,
84861,-0.5945541,8.379983,-3.7790673,-0.28201398,0.045732,0.373478,108.3,-158.1,-17.1,,,,,,
84881,-0.37383935,7.982218,-3.631326,-0.137196,-0.022866,0.81555396,117.9,-153.3,-10.5,,,,,,
84903,-0.18781689,8.003751,-3.7593286,0.03811,-0.07622,1.242386,105.9,-155.70001,-16.5,,,,,,
84924,0.29189378,9.073231,-3.8753684,0.213416,-0.426832,1.288118,115.50001,-146.1,-17.1,,,,,,
84944,0.4216908,9.2706175,-4.1600842,0.060976,-0.45731997,0.297258,115.50001,-150.90001,-12.900001,,,,,,
84964,0.33316565,9.106727,-4.284498,0.03811,-0.868908,-0.221038,108.3,-155.70001,-14.1,,,,,,
84984,0.15551718,8.800478,-4.16786,-0.053354,-1.272874,-0.365856,113.100006,-148.5,-16.5,,,,,,
85004,0.22011662,9.216785,-3.9357808,-0.297258,-1.455802,-0.259148,132.3,-143.70001,-2.7,,,,,,
85024,0.07476787,9.265833,-3.9064717,-0.69360197,-1.074702,-0.46494198,120.3,-158.1,-17.7,,,,,,
85047,-0.10467502,8.789711,-3.8101707,-0.92988396,-0.83842,-0.56402797,117.9,-155.70001,-9.3,,,,,,
85068,0.028710863,8.742457,-3.6432889,-0.67073596,-0.47256398,-0.213416,110.700005,-162.90001,-12.3,,,,,,
85088,0.23267761,8.743654,-3.4787996,-0.57164997,0.022866,-0.15244,110.700005,-153.3,-11.1,,,,,,
85108,0.32479164,8.647951,-3.4626496,-0.46494198,0.67073596,-0.137196,117.9,-143.70001,-14.700001,,,,,,
85132,0.4521961,8.683242,-3.4417148,-0.45731997,1.1432999,-0.07622,122.700005,-146.1,-11.1,,,,,,
85152,0.573021,8.668886,-3.451883,-0.46494198,1.44818,-0.121952,110.700005,-148.5,-9.900001,,,,,,
85215,0.64659256,8.823805,-3.6151762,-0.213416,1.1356779,-0.503052,120.3,-143.70001,-12.900001,,,,,,
85235,0.5694321,8.905152,-3.5547638,-0.373478,0.960372,-0.69360197,117.9,-150.90001,-8.700001,,,,,,
85275,0.34752107,8.755617,-3.4913604,-0.442076,1.1128119,-1.173788,105.9,-153.3,-6.9,,,,,,
85295,0.21234076,8.7191305,-3.496744,-0.22865999,0.94512796,-1.044214,120.3,-138.90001,-12.3,,,,,,
85319,-0.06280501,8.456545,-3.7120752,-0.396344,0.426832,-0.503052,122.700005,-150.90001,-15.900001,,,,,,
85339,-0.34034336,9.264636,-3.2652624,-0.68597996,0.106708,0.07622,122.700005,-148.5,-9.900001,,,,,,
85359,-0.39477435,8.698793,-3.664822,0.160062,0.769822,-0.861286,113.100006,-150.90001,-14.1,,,,,,
85381,-0.27394947,8.9242935,-3.5882597,0.274392,0.365856,-0.45731997,113.100006,-150.90001,-5.7000003,x,,,,,
85405,-0.1016843,8.827394,-3.636111,0.33536798,0.41921,-0.41921,113.100006,-150.90001,-14.1,x,,,,,
85425,-0.14175989,8.775953,-3.602017,0.45731997,0.434454,-0.16768399,122.700005,-155.70001,-8.1,x,,,,,
85447,-0.062206868,8.912331,-3.626541,0.251526,0.20579399,0.07622,113.100006,-148.5,-15.3,x,,,,,
85467,0.06459944,9.040931,-3.598428,-0.022866,0.015244,0.17530599,117.9,-146.1,-12.900001,x,,,,,
85487,-0.05443101,8.765187,-3.7383935,-0.19055,0.030488,-0.099086,115.50001,-136.5,-18.300001,x,,,,,
85508,0.001196286,8.824403,-3.673196,-0.07622,-0.312502,0.007622,125.100006,-143.70001,-7.5000005,x,,,,,
85528,0.055627298,8.779543,-3.7300196,-0.198172,-0.518296,-0.144818,122.700005,-155.70001,-11.1,x,,,,,
85548,0.2266962,8.695205,-3.664224,-0.20579399,-0.754578,-0.045732,115.50001,-155.70001,-13.500001,x,,,,,
85572,0.30445477,8.772365,-3.7025049,-0.33536798,-0.716468,0.007622,113.100006,-150.90001,-16.5,x,,,,,
85592,0.53115094,8.695205,-3.677383,-0.55640596,-0.541162,-0.221038,117.9,-143.70001,-14.1,x,,,,,
85614,0.614891,8.537294,-3.7096827,-0.56402797,-0.251526,-0.3811,137.1,-138.90001,-8.700001,x,,,,,
85634,0.71418273,8.686233,-3.853835,-0.503052,-0.15244,-0.274392,110.700005,-153.3,-9.3,x,,,,,
85654,0.93429935,8.7933,-3.8269188,-0.731712,-0.106708,-0.480186,115.50001,-148.5,-12.3,x,,,,,
85674,1.117331,8.613857,-3.8963034,-1.036592,0.17530599,-1.1280559,122.700005,-148.5,-11.700001,x,,,,,
85694,1.5156943,8.669484,-4.1313734,-1.1051899,0.67835796,-1.532022,122.700005,-155.70001,-8.700001,x,,,,,
85714,1.9134594,8.7304945,-4.6051025,-1.211898,1.3567159,-1.928366,127.50001,-148.5,-15.3,x,,,,,
85734,1.7896438,7.90745,-4.6583376,-1.5244,1.6082419,-2.500016,129.90001,-134.1,-15.900001,x,,,,,
85754,1.9822458,7.936759,-5.1703477,-1.265252,2.843006,-2.522882,134.70001,-155.70001,-10.5,x,,,,,
85774,2.0115547,7.8386636,-6.0400476,-0.70122397,4.809482,-2.888738,129.90001,-155.70001,-8.1,x,,,,,
85814,2.5080135,7.745353,-6.4599442,-1.539644,6.02138,-3.7500238,137.1,-131.70001,-9.900001,x,,,,,
85836,2.1868107,7.6424727,-6.3367267,-1.935988,7.400962,-4.375028,120.3,-136.5,-20.1,x,,,,,
85856,1.8249342,7.204034,-5.51428,-2.89636,7.957368,-5.343022,132.3,-146.1,-12.3,x,,,,,
85878,1.0605075,6.6627145,-4.657739,-3.407034,9.420792,-6.51681,139.5,-143.70001,-15.900001,x,,,,,
85898,0.40613908,6.8846254,-3.978847,-3.39179,10.243968,-7.210412,137.1,-146.1,-8.1,x,,,,,
85920,-0.4874865,6.1853967,-3.3119175,-3.2164838,12.225688,-9.154022,146.70001,-138.90001,-14.700001,x,,,,,
85940,-1.9230297,4.873669,-3.514688,-1.745438,13.628136,-10.968058,161.1,-146.1,-8.1,x,,,,,
85960,-2.3536925,5.405418,-3.2168128,-0.525918,12.362884,-9.618964,161.1,-134.1,-6.9,x,,,,,
85980,-2.497247,5.966476,-2.705999,-0.449698,12.073248,-9.535122,168.3,-131.70001,-11.700001,x,,,,,
86000,-2.601922,5.9431486,-2.1365666,-0.442076,12.058003,-9.207376,165.90001,-129.3,-6.3,x,,,,,
86020,-3.025407,7.0096374,-1.9966012,-0.518296,13.460452,-8.635726,177.90001,-117.3,-6.3,x,,,,,
86040,-3.7551415,6.762604,-2.8250291,0.23628199,13.003132,-8.407065,182.70001,-117.3,-5.1000004,x,,,,,
86080,-3.0272017,9.752123,-2.6790824,-0.518296,10.36592,-6.02138,185.1,-110.100006,-4.5,x,,,,,
86136,-6.112423,12.169219,-2.874077,-1.539644,4.9771657,-5.8918056,199.50002,-95.700005,-4.5,x,,,,,
86172,-6.8457465,14.961948,-3.1276896,-2.141782,-1.1432999,-3.2164838,182.70001,-102.9,0.3,x,,,,,
86196,-7.2112117,13.329018,-2.3471131,-2.2637339,-3.612828,-2.568614,197.1,-112.50001,-4.5,x,,,,,
86237,-7.3643365,14.328515,-2.8017018,-2.599102,-10.335432,3.155508,185.1,-95.700005,1.5,x,,,,,
86257,-6.5610304,12.014898,-1.1639862,-3.102154,-11.387268,6.265284,192.3,-107.700005,0.90000004,x,,,,,
86277,-6.513179,11.231331,-1.7220536,-2.43904,-11.24245,7.5305357,197.1,-107.700005,-12.900001,x,,,,,
86297,-5.242125,9.995567,-1.380514,-1.783548,-13.673867,9.954331,189.90001,-117.3,-8.700001,x,,,,,
86317,-3.6391017,9.116297,-0.8631203,-0.777444,-14.641862,11.646416,182.70001,-117.3,-9.3,x,,,,,
86377,-0.8655129,7.576677,-2.2645693,1.9054999,-14.02448,10.716532,161.1,-138.90001,-15.3,x,,,,,
86422,0.11424531,7.745353,-2.484686,2.065562,-12.1952,8.567128,153.90001,-141.3,-19.5,x,,,,,
86442,0.73451954,8.122184,-2.1347723,1.44818,-11.478732,6.9741297,134.70001,-146.1,-21.900002,x,,,,,
86484,0.14116174,5.965878,-2.7975147,2.2713559,-8.010722,3.445144,146.70001,-141.3,-21.900002,x,,,,,
86506,0.78595984,7.3081107,-2.5241632,2.599102,-7.256144,3.7042918,127.50001,-153.3,-11.700001,x,,,,,
86526,0.79792273,7.429534,-3.1934853,2.637212,-4.100636,1.775926,132.3,-155.70001,-20.1,x,,,,,
86546,0.44083136,6.1393394,-4.0811296,3.2012398,-3.025934,0.20579399,125.100006,-143.70001,-20.7,x,,,,,
86566,0.4007558,6.2230797,-4.308424,3.452766,-3.056422,0.907018,127.50001,-150.90001,-8.700001,x,,,,,
86586,0.9839452,7.556938,-5.3587627,3.330814,-2.40093,2.2713559,134.70001,-141.3,-17.1,x,,,,,
86606,0.8505593,8.3847685,-5.3097153,2.911604,-2.2637339,1.036592,122.700005,-143.70001,-12.900001,x,,,,,
86668,0.84517604,8.638979,-4.9633904,1.3795819,0.022866,0.213416,117.9,-153.3,-8.700001,x,,,,,
86714,0.072973445,8.728103,-5.0261955,1.173788,1.006104,-0.045732,120.3,-150.90001,-16.5,x,,,,,
86734,0.056225438,8.765187,-4.862304,0.830798,1.41007,-0.160062,141.90001,-150.90001,-17.1,x,,,,,
86775,0.2296869,9.342993,-4.8120604,1.02897,1.318606,-0.07622,134.70001,-158.1,-13.500001,x,,,,,
86795,0.112450875,9.3782835,-4.5913453,0.655492,1.1280559,-0.41158798,129.90001,-143.70001,-14.1,x,,,,,
86817,-0.099889874,8.755617,-4.1875987,0.11432999,0.81555396,-0.91463995,129.90001,-155.70001,-17.7,x,,,,,
86838,-0.16090046,8.673073,-3.890322,-0.320124,0.907018,-0.81555396,129.90001,-155.70001,-8.700001,x,,,,,
86858,-0.25959405,8.399722,-4.024306,-0.41921,0.830798,-0.625004,127.50001,-148.5,-12.3,x,,,,,
86878,-0.20157418,8.530715,-3.857424,-0.083841994,0.106708,-0.121952,137.1,-148.5,-9.900001,x,,,,,
86900,0.1740596,8.587539,-3.618167,-0.121952,-0.358234,0.099086,125.100006,-134.1,-17.1,,,,,,
86980,1.0533298,8.597109,-3.585269,-1.272874,0.0,-0.72409,127.50001,-141.3,-7.5000005,x,,,,,
87015,0.96241206,8.44877,-4.005165,-1.775926,0.907018,-1.265252,127.50001,-138.90001,-9.900001,x,,,,,
87035,1.3852991,9.0217905,-4.506409,-1.6082419,1.928366,-2.01983,129.90001,-143.70001,-13.500001,x,,,,,
87075,1.3757288,8.74485,-7.092779,1.3719599,5.9832697,-1.6234859,139.5,-148.5,-14.1,x,,,,,
87115,2.1174262,9.704271,-6.258968,-0.617382,6.608274,-3.39179,137.1,-136.5,-15.3,x,,,,,
87259,0.42707407,6.710566,-3.853237,0.487808,21.455929,-9.580853,149.1,-126.9,-6.3,x,,,,,
87279,-0.99471176,5.3892684,-4.4771004,0.68597996,20.815681,-11.920808,151.5,-114.9,-8.1,x,,,,,
87321,-2.8280199,4.9466424,-4.204347,1.730194,15.70132,-10.93757,156.3,-100.50001,2.1000001,x,,,,,
87341,-2.7418873,6.9593935,-4.1098404,0.967994,13.7577095,-9.1463995,146.70001,-117.3,7.5000005,x,,,,,
87361,-3.380106,9.200635,-2.9632003,-0.785066,12.248553,-9.291218,168.3,-107.700005,13.500001,x,,,,,
87385,-5.727817,8.680849,-4.285096,-0.49543,12.50008,-8.582372,161.1,-100.50001,5.1000004,x,,,,,
87405,-5.659629,13.668763,-4.393958,-0.7622,9.321706,-5.29729,168.3,-90.9,5.1000004,x,,,,,
87425,-6.0609827,13.385243,-3.4333405,-2.484772,4.9619217,-6.311016,168.3,-102.9,12.900001,x,,,,,
87445,-6.9145327,13.385841,-3.5912504,-1.935988,2.873494,-4.550334,192.3,-98.100006,11.1,x,,,,,
87465,-7.019806,14.802244,-4.188795,-2.187514,-0.739334,-2.2865999,163.5,-81.3,9.900001,x,,,,,
87485,-6.986908,14.967332,-3.8957052,-2.6905658,-4.4055157,-1.310984,177.90001,-90.9,9.900001,x,,,,,
87505,-8.2454,13.768055,-4.6051025,-1.5929979,-7.4238276,-0.312502,180.3,-83.700005,8.700001,x,,,,,
87525,-7.4827685,13.451637,-4.2270765,-2.13416,-12.439104,2.957336,180.3,-100.50001,6.9,x,,,,,
87545,-6.552656,12.401896,-3.6151762,-2.652456,-14.359848,5.807964,173.1,-88.5,4.5,x,,,,,
87565,-6.0047574,10.821603,-3.7641137,-3.0488,-15.640344,8.140296,173.1,-110.100006,-0.90000004,x,,,,,
87585,-5.0291862,9.380078,-3.7090845,-2.865872,-17.271452,10.1372595,177.90001,-114.9,-0.3,x,,,,,
87625,-2.3447204,7.518059,-2.7807667,-2.2484899,-19.733358,12.606788,185.1,-126.9,-8.700001,x,,,,,
87646,-1.359579,7.291961,-2.3710387,-1.44818,-19.184574,12.675385,170.70001,-129.3,-7.5000005,x,,,,,
87666,-0.8134744,6.974347,-2.6922414,-0.602138,-18.048895,12.065626,168.3,-126.9,-12.900001,x,,,,,
87688,0.08194559,6.699201,-2.1407537,-0.373478,-17.972675,11.227205,153.90001,-136.5,-9.900001,x,,,,,
87708,0.6430037,6.857111,-1.6939409,-0.03811,-16.341568,10.182992,141.90001,-146.1,-8.700001,x,,,,,
87728,0.4719348,6.4778886,-1.79084,0.320124,-13.612892,8.208894,146.70001,-155.70001,-26.1,x,,,,,
87789,1.2441374,7.4534597,-2.3782165,1.21952,-7.766818,2.484772,141.90001,-143.70001,-14.1,x,,,,,
87809,0.9755712,6.5777783,-2.9057786,1.8292799,-5.846074,1.501534,139.5,-134.1,-15.3,x,,,,,
87829,0.80809116,6.7500434,-3.518277,2.926848,-4.679908,1.8826339,132.3,-141.3,-9.3,x,,,,,
87852,0.4635608,7.9558997,-4.0859146,3.2622159,-2.942092,1.920744,141.90001,-143.70001,-17.7,x,,,,,
87935,-0.27753833,7.439104,-4.827014,1.692084,0.030488,-0.739334,137.1,-150.90001,-14.1,,,,,,
87980,0.124413736,9.003248,-5.158385,2.179892,-0.060976,1.21952,125.100006,-138.90001,-16.5,,,,,,
88001,0.62565756,9.439893,-4.840173,1.75306,-0.091464,1.051836,127.50001,-148.5,-14.1,,,,,,
88041,0.64120924,9.159962,-4.590149,1.189032,0.83842,0.060976,127.50001,-141.3,-9.3,,,,,,
88063,0.4246815,9.438098,-4.730713,1.006104,1.074702,-0.327746,127.50001,-146.1,-9.900001,,,,,,
88083,0.18602246,8.980518,-4.3526864,0.602138,0.731712,-0.67835796,134.70001,-148.5,-12.3,,,,,,
88103,0.06998273,8.766383,-4.233058,0.099086,0.868908,-0.49543,129.90001,-146.1,-14.700001,,,,,,
88163,-0.0053832866,8.203531,-3.824526,-0.53354,0.198172,-0.312502,129.90001,-150.90001,-14.1,,,,,,
88281,0.5467027,8.649746,-3.4859772,-0.41158798,-0.022866,0.20579399,134.70001,-146.1,-14.700001,,,,,,
88301,0.778184,8.769972,-3.5254548,-0.16768399,0.07622,-0.40396598,127.50001,-146.1,-10.5,x,,,,,
88343,1.1328828,9.46621,-4.082326,-1.044214,1.516778,-1.935988,129.90001,-155.70001,-9.900001,x,,,,,
88363,0.39896137,8.400918,-4.8946037,-1.669218,2.850628,-3.8109999,134.70001,-155.70001,-11.1,x,,,,,
88405,0.17286332,8.5253315,-6.861896,0.67073596,2.301844,-2.507638,132.3,-134.1,-15.900001,x,,,,,
88517,1.0395725,7.6915207,-4.611084,-0.792688,6.875044,-5.0686297,153.90001,-129.3,-10.5,x,,,,,
88537,1.0240208,6.9468327,-4.2372446,-1.928366,8.5899935,-6.9588857,153.90001,-129.3,-9.3,x,,,,,
88580,0.27873462,4.9083614,-3.0349774,-2.347576,11.448244,-9.41317,170.70001,-114.9,-5.7000003,x,,,,,
88634,0.105273165,5.1894884,-2.0940986,-2.560992,16.211994,-9.489389,170.70001,-112.50001,-8.700001,x,,,,,
88676,-1.794429,6.288277,-2.866301,0.72409,16.661692,-7.911636,177.90001,-114.9,0.3,x,,,,,
88696,-1.1119478,9.161756,-2.421881,0.251526,15.01534,-7.614378,168.3,-110.100006,-5.7000003,x,,,,,
88716,-2.9823408,9.84304,-1.8530469,-1.1051899,16.12815,-9.054935,175.5,-100.50001,2.1000001,x,,,,,
88758,-5.621946,11.422736,-3.2628698,-2.7667859,9.123534,-7.1418138,177.90001,-93.3,12.3,x,,,,,
88778,-7.2859797,12.722501,-3.2820106,-2.317088,5.9375377,-4.5274677,185.1,-95.700005,6.3,x,,,,,
88798,-7.0012636,14.003125,-3.6379056,-2.637212,0.655492,-2.2180018,192.3,-98.100006,4.5,x,,,,,
88818,-6.777558,13.773438,-2.8088794,-2.560992,-2.903982,-0.586894,185.1,-90.9,4.5,x,,,,,
88840,-8.213699,13.496498,-4.2222915,-1.158544,-5.746988,1.3872039,185.1,-90.9,8.1,x,,,,,
88860,-7.7160444,13.721998,-4.4352303,-1.166166,-11.074766,3.551852,192.3,-93.3,3.9,x,,,,,
88880,-6.827802,13.756092,-3.8185446,-1.547266,-14.474177,5.137228,180.3,-83.700005,-3.3000002,x,,,,,
88900,-6.450972,12.050188,-3.8514426,-1.669218,-16.379677,6.6158957,194.70001,-114.9,0.3,x,,,,,
88921,-4.916137,11.586628,-2.7975147,-1.996964,-17.820236,9.07018,187.5,-110.100006,-2.7,x,,,,,
88941,-4.0153337,10.035643,-2.3692443,-2.042696,-16.509253,9.878112,185.1,-117.3,0.3,x,,,,,
88963,-3.2556922,8.997267,-2.1287909,-1.8978779,-14.992474,10.807996,185.1,-114.9,-4.5,x,,,,,
88983,-2.0510323,8.436209,-1.4319543,-2.141782,-13.795819,10.632689,168.3,-124.50001,-13.500001,x,,,,,
89003,-1.4869834,7.608977,-1.0617038,-2.164648,-11.272938,9.138778,173.1,-114.9,-8.1,x,,,,,
89023,-1.5049278,7.0227966,-1.434945,-1.669218,-9.138778,7.9649897,165.90001,-126.9,-9.900001,x,,,,,
89043,-1.7681106,6.918122,-2.14195,-1.059458,-8.11743,6.714982,173.1,-138.90001,-16.5,x,,,,,
89066,-1.271652,6.162069,-2.1060615,-0.327746,-9.336949,5.251558,165.90001,-138.90001,-14.1,x,,,,,
89086,-0.8039042,6.0974693,-2.4625547,0.907018,-9.123534,4.862836,149.1,-141.3,-21.300001,x,,,,,
89108,-0.2338739,6.8206244,-2.6641288,1.98172,-9.596098,4.9924097,149.1,-138.90001,-14.1,x,,,,,
89128,0.2033686,7.2901664,-2.259186,2.2637339,-9.535122,4.794238,141.90001,-136.5,-23.1,x,,,,,
89148,0.80510044,7.988199,-2.1078558,1.821658,-7.804928,4.070148,151.5,-148.5,-12.3,x,,,,,
89168,0.5078234,7.090985,-2.6970267,1.71495,-5.343022,2.606724,158.70001,-153.3,-17.7,x,,,,,
89188,0.40554094,6.506001,-3.0720623,2.62959,-4.5122237,2.431418,139.5,-148.5,-14.1,x,,,,,
89208,0.6388167,7.0257874,-3.2969642,3.376546,-4.123502,3.498498,137.1,-143.70001,-16.5,x,,,,,
89228,0.614891,8.29086,-3.5236602,3.551852,-3.4299,3.92533,141.90001,-141.3,-14.1,,,,,,
89248,0.9043922,8.29744,-4.0099506,2.89636,-2.13416,2.522882,132.3,-141.3,-18.900002,,,,,,
89268,1.2279875,9.322059,-4.0111465,2.865872,-2.301844,2.7972739,120.3,-158.1,-21.300001,,,,,,
89288,1.0288059,9.076221,-4.00038,1.1204339,-1.425314,1.272874,134.70001,-153.3,-17.1,,,,,,
89311,0.933103,8.704177,-4.3269663,0.792688,-0.967994,1.173788,125.100006,-158.1,-18.900002,,,,,,
89351,0.698631,8.4278345,-4.6894407,1.509156,-0.49543,0.853664,125.100006,-158.1,-10.5,,,,,,
89371,0.8128763,9.33103,-4.6780763,2.2027578,-0.853664,1.227142,132.3,-153.3,-15.900001,,,,,,
89391,0.78416544,9.147999,-4.621851,1.318606,-0.358234,-0.022866,122.700005,-155.70001,-14.700001,,,,,,
89411,0.916355,9.631896,-4.5076056,1.3643379,-0.07622,0.045732,122.700005,-146.1,-17.1,,,,,,
89431,0.76622117,9.606176,-4.3825936,1.044214,0.129574,-0.213416,127.50001,-158.1,-15.3,,,,,,
89451,0.46116823,9.213795,-4.2061415,0.20579399,0.739334,-0.510674,127.50001,-136.5,-18.900002,,,,,,
89471,0.14833945,8.97992,-4.058998,0.083841994,0.884152,-0.30488,122.700005,-150.90001,-14.1,,,,,,
89491,0.07596416,8.878835,-3.9028828,-0.007622,0.617382,0.106708,134.70001,-143.70001,-19.5,,,,,,
89511,0.08732887,8.700587,-3.5188751,-0.03811,0.053354,0.49543,125.100006,-146.1,-15.900001,,,,,,
89531,0.20994818,8.701186,-3.1067545,-0.23628199,-0.121952,0.67073596,125.100006,-146.1,-13.500001,,,,,,
89551,0.29608077,8.750832,-2.9380782,-0.510674,0.083841994,0.373478,125.100006,-165.3,-15.900001,,,,,,
89574,0.35110992,8.597707,-2.9051805,-0.40396598,0.56402797,-0.015244,125.100006,-146.1,-12.900001,,,,,,
89634,0.36307278,8.777748,-3.1073527,0.243904,0.312502,0.03811,113.100006,-160.5,-15.900001,,,,,,
89661,0.4498035,8.985304,-3.0882123,-0.251526,0.312502,0.022866,117.9,-153.3,-8.1,,,,,,
89681,0.631639,9.0188,-3.4118075,-0.388722,0.46494198,-0.46494198,129.90001,-136.5,-14.1,,,,,,
89725,1.1310884,8.93805,-3.4136019,-0.26677,-0.091464,-0.83842,120.3,-141.3,-7.5000005,,,,,,
89746,1.1346772,8.811244,-3.7042994,-0.92988396,0.68597996,-1.501534,127.50001,-158.1,-18.900002,x,,,,,
89766,0.7476787,8.10065,-4.137355,-1.051836,1.204276,-1.9131219,120.3,-150.90001,-15.3,x,,,,,
89786,0.9797582,8.630605,-4.65116,-0.67835796,1.272874,-1.326228,125.100006,-150.90001,-7.5000005,x,,,,,
89806,0.9893285,8.81603,-5.099169,-1.265252,1.730194,-1.6158639,122.700005,-153.3,-13.500001,x,,,,,
89826,0.9671972,8.182596,-5.4060163,-1.455802,2.2180018,-1.94361,125.100006,-150.90001,-20.7,x,,,,,
89846,1.3996545,8.558827,-5.7003026,-1.06708,2.2408679,-1.25763,127.50001,-148.5,-11.1,x,,,,,
89888,1.3302699,8.363235,-5.6817603,-1.48629,4.53509,-1.44818,129.90001,-148.5,-14.1,x,,,,,
89951,0.8673073,7.4851613,-3.7216456,0.022866,9.6418295,-3.879598,132.3,-138.90001,-14.1,x,,,,,
89971,0.49645868,6.475496,-3.1677651,0.198172,11.821722,-5.29729,129.90001,-134.1,-11.700001,x,,,,,
89993,0.23686461,5.991,-3.4267612,1.3567159,13.673867,-6.204308,141.90001,-155.70001,-16.5,x,,,,,
90013,-0.0807493,6.0902915,-3.5278473,2.149404,14.2531395,-6.82169,132.3,-146.1,-3.3000002,x,,,,,
90034,0.37563378,6.753632,-2.978154,2.195136,13.37661,-7.446694,153.90001,-143.70001,-6.3,x,,,,,
90054,0.4521961,5.9892054,-2.4374325,0.998482,14.649484,-8.993959,134.70001,-134.1,-5.7000003,x,,,,,
90074,-0.44442022,5.071056,-3.015837,1.532022,16.676935,-9.535122,137.1,-146.1,-2.1000001,x,,,,,
90095,-0.8272317,5.61417,-3.7766747,2.065562,16.562605,-8.932983,149.1,-124.50001,-2.1000001,x,,,,,
90115,-2.008564,7.5611253,-3.0612957,1.1204339,16.135773,-7.713464,151.5,-114.9,1.5,x,,,,,
90136,-3.1324747,12.848709,-4.078737,-0.67073596,17.87359,-6.425346,156.3,-119.700005,2.7,x,,,,,
90156,-4.4071174,13.404983,-2.5576594,-5.480218,13.971126,-8.361334,149.1,-107.700005,1.5,x,,,,,
90176,-5.584263,11.184077,-4.2599745,-4.87808,12.888802,-7.08846,161.1,-119.700005,2.7,x,,,,,
90196,-5.6985083,13.650819,-4.1774306,-4.4207597,6.5244317,-3.39179,144.3,-114.9,1.5,x,,,,,
90240,-4.640991,14.871629,-3.3956575,-3.094532,-3.536608,-1.204276,153.90001,-114.9,-0.90000004,x,,,,,
90280,-4.8587155,13.500685,-2.8088794,-2.522882,-12.949778,2.538126,163.5,-129.3,2.7,x,,,,,
90317,-3.9274068,11.524421,-1.3075405,-3.2927039,-16.04431,5.388754,165.90001,-126.9,-4.5,x,,,,,
90338,-3.786843,9.401013,-1.5282553,-3.170752,-16.547361,6.78358,168.3,-141.3,-6.3,x,,,,,
90378,-2.4900692,6.981525,-1.434945,-1.577754,-18.971157,9.154022,161.1,-129.3,-14.700001,x,,,,,
90401,-1.0892184,7.3236628,-1.1897063,-0.80793196,-18.544325,10.083906,156.3,-146.1,-5.1000004,x,,,,,
90421,-0.25301448,7.5742846,-1.0503391,-0.632626,-17.012304,9.283596,141.90001,-143.70001,-12.3,x,,,,,
90445,0.009570288,6.97973,-1.4869834,-0.198172,-14.054968,7.1113257,134.70001,-158.1,-20.1,x,,,,,
90465,-0.04246815,6.460542,-2.1030707,1.150922,-12.149467,5.625036,139.5,-136.5,-18.900002,x,,,,,
90485,0.6800886,7.995377,-2.216718,1.821658,-10.93757,5.655524,125.100006,-134.1,-16.5,x,,,,,
90505,0.715379,7.979227,-2.3471131,1.3795819,-8.978716,4.214966,125.100006,-155.70001,-15.900001,x,,,,,
90526,0.535338,7.882926,-2.1030707,1.06708,-7.972612,3.8033779,122.700005,-153.3,-17.1,x,,,,,
90546,0.34572664,7.6287155,-2.2155216,0.868908,-6.143332,2.8048959,132.3,-138.90001,-19.5,x,,,,,
90569,0.04067372,7.847038,-2.9799483,2.157026,-4.283564,2.317088,117.9,-158.1,-23.7,x,,,,,
90589,0.34752107,8.896778,-3.6612332,3.2927039,-3.2469718,2.454284,115.50001,-153.3,-18.900002,x,,,,,
90651,0.67709786,7.7752604,-3.439322,1.8292799,-1.318606,-0.320124,115.50001,-150.90001,-20.1,x,,,,,
90681,0.60890955,7.7609053,-4.018923,1.814036,0.083841994,0.655492,117.9,-153.3,-14.700001,x,,,,,
90701,0.5287584,8.325552,-4.400538,1.98172,0.503052,0.83842,115.50001,-153.3,-23.1,x,,,,,
90741,0.8768776,8.756813,-4.3867807,1.798792,-1.051836,1.8902559,105.9,-146.1,-16.5,,,,,,
90761,1.2130339,9.395032,-4.3024426,2.05794,-0.03811,0.967994,105.9,-146.1,-13.500001,,,,,,
90781,1.1280977,9.172523,-4.0906997,1.471046,0.434454,0.40396598,110.700005,-150.90001,-15.3,,,,,,
90801,1.1137422,9.328638,-4.1427383,1.150922,0.93750596,0.198172,113.100006,-158.1,-19.5,,,,,,
90823,1.1484345,9.520641,-4.0595965,1.166166,1.006104,0.160062,101.100006,-162.90001,-17.1,,,,,,
90843,1.0563204,9.075026,-3.7982078,0.47256398,1.1280559,-0.106708,115.50001,-153.3,-11.1,,,,,,
90865,1.0563204,8.988295,-3.6241484,0.20579399,1.1051899,0.16768399,103.50001,-141.3,-12.900001,,,,,,
90885,0.9019996,8.582155,-3.5302398,-0.28201398,1.1204339,0.106708,105.9,-158.1,-12.3,,,,,,
90909,0.77938026,8.58395,-3.322086,-0.099086,0.525918,0.442076,110.700005,-150.90001,-19.5,,,,,,
90929,0.89183116,8.530715,-3.0505292,-0.19055,0.34298998,0.30488,117.9,-150.90001,-17.1,,,,,,
90952,0.9426733,8.414676,-3.1115398,-0.137196,0.56402797,0.106708,105.9,-143.70001,-8.700001,,,,,,
90972,0.93609375,8.294449,-3.1785316,-0.045732,0.625004,-0.11432999,117.9,-158.1,-14.700001,,,,,,
90992,1.1873138,8.634792,-3.3896763,0.198172,0.45731997,-0.045732,98.700005,-158.1,-16.5,,,,,,
91015,1.1777436,8.2986355,-3.5625396,-0.22865999,0.55640596,-0.53354,108.3,-160.5,-14.700001,,,,,,
91035,1.1753509,8.312991,-3.7581322,-0.312502,0.41921,-0.480186,110.700005,-162.90001,-19.5,,,,,,
91097,1.5970417,8.929078,-5.5047097,-3.8033779,1.669218,-1.6158639,98.700005,-158.1,-22.5,,,,,,
91117,1.8422804,8.177811,-5.2911725,-4.070148,1.059458,-1.94361,103.50001,-155.70001,-17.1,,,,,,
91139,1.9678904,8.383572,-5.5148783,-3.361302,1.768304,-2.2256238,110.700005,-162.90001,-14.1,x,,,,,
91159,2.125202,8.703578,-5.61417,-2.13416,2.355198,-2.62959,110.700005,-153.3,-18.900002,x,,,,,
91179,2.2083437,8.31,-5.3862777,-1.692084,3.6738038,-3.056422,108.3,-162.90001,-17.7,x,,,,,
91199,2.4260678,8.551052,-5.032775,-1.44818,5.731744,-2.7820299,117.9,-153.3,-18.900002,x,,,,,
91219,2.036677,8.168241,-4.7582273,-2.012208,8.6814575,-3.2241058,117.9,-150.90001,-18.900002,x,,,,,
91242,1.5515828,7.516863,-4.2193007,-1.8750119,10.70891,-3.54423,117.9,-150.90001,-12.3,x,,,,,
91262,1.2321745,7.107733,-3.4710236,-1.814036,12.507702,-4.222588,115.50001,-153.3,-14.700001,x,,,,,
91282,0.5724228,6.330745,-3.1270914,-1.288118,14.497044,-5.769854,117.9,-148.5,-21.300001,x,,,,,
91302,-0.07476787,5.7840424,-2.9596114,-0.022866,15.480282,-6.646384,122.700005,-150.90001,-13.500001,x,,,,,
91322,-0.6292464,6.2021446,-2.7161672,1.3948259,15.381196,-7.5305357,122.700005,-141.3,-7.5000005,x,,,,,
91342,0.31701577,6.9665713,-1.8626173,0.861286,14.992474,-7.8125496,137.1,-138.90001,-9.3,x,,,,,
91362,0.36905423,6.848139,-1.7388016,0.655492,16.036688,-8.353712,127.50001,-153.3,-12.3,x,,,,,
91382,-0.44202766,6.7877264,-2.940471,1.288118,17.789747,-8.5899935,139.5,-143.70001,-9.3,x,,,,,
91402,-0.8152689,7.4947314,-3.0098555,1.044214,16.600716,-8.1250515,137.1,-136.5,-9.3,x,,,,,
91426,-3.2311683,8.739467,-3.0965862,0.92988396,14.687593,-8.605238,144.3,-129.3,-5.1000004,x,,,,,
91446,-4.4627447,8.445779,-2.7723927,-0.602138,11.593061,-8.490908,146.70001,-134.1,3.3000002,x,,,,,
91469,-3.534427,10.986092,-2.342926,-1.951232,8.224138,-5.282046,151.5,-124.50001,-2.7,x,,,,,
91489,-2.6826713,12.953982,-1.7752883,-2.7820299,6.150954,-4.367406,144.3,-131.70001,-5.7000003,x,,,,,
91509,-2.96978,13.227334,-1.4343468,-2.865872,4.5427117,-3.864354,161.1,-124.50001,-5.1000004,x,,,,,
91529,-3.824526,13.464198,-1.5461996,-1.928366,3.12502,-2.957336,156.3,-131.70001,-5.1000004,x,,,,,
91549,-4.735498,14.920676,-1.940974,-0.777444,1.5244,-2.606724,153.90001,-124.50001,0.90000004,x,,,,,
91569,-6.191378,14.867442,-3.1246989,0.388722,-1.6158639,-2.309466,153.90001,-112.50001,0.90000004,x,,,,,
91589,-6.8421574,14.266906,-3.89092,0.243904,-5.83083,-0.70122397,173.1,-122.100006,-2.1000001,x,,,,,
91609,-5.4909525,14.201709,-2.902788,-1.532022,-10.1372595,2.370442,137.1,-119.700005,-5.7000003,x,,,,,
91631,-4.575196,13.641847,-1.9026928,-2.812518,-11.35678,4.740884,161.1,-119.700005,-6.3,x,,,,,
91653,-4.1905894,10.603879,-2.0061715,-3.1783738,-12.698252,6.6006517,151.5,-131.70001,-5.7000003,x,,,,,
91674,-3.2317665,8.71614,-1.6700152,-2.2789779,-13.91015,8.071698,139.5,-136.5,-17.1,x,,,,,
91694,-2.1999698,7.5820603,-1.7507645,-0.91463995,-14.565641,9.1463995,158.70001,-141.3,-5.7000003,x,,,,,
91716,-1.4750205,6.791315,-2.087519,0.03811,-14.489422,9.740916,151.5,-131.70001,-8.1,x,,,,,
91736,-0.74708056,6.1937704,-2.1700628,-0.068598,-14.497044,9.94671,139.5,-143.70001,-17.1,x,,,,,
91756,0.3618765,5.6919284,-2.6132867,-0.586894,-13.391853,9.458901,134.70001,-146.1,-17.7,x,,,,,
91776,0.62745196,5.2176013,-2.1915958,-0.45731997,-13.41472,8.757678,129.90001,-150.90001,-20.1,x,,,,,
91800,0.5849838,5.9886074,-2.0617988,-0.3811,-11.989406,8.224138,120.3,-153.3,-17.7,x,,,,,
91820,0.8015116,7.6921186,-2.418292,-0.388722,-11.128119,8.262248,120.3,-155.70001,-18.300001,x,,,,,
91842,1.3948694,8.57079,-2.8298144,-0.46494198,-9.9086,6.699738,103.50001,-158.1,-16.5,x,,,,,
91862,1.1741546,8.304617,-2.4033384,-0.754578,-9.10829,5.076252,117.9,-158.1,-18.300001,x,,,,,
91885,1.468441,8.34888,-2.8800583,-0.243904,-7.675354,4.718018,103.50001,-153.3,-24.300001,x,,,,,
91905,1.8961133,9.307703,-3.212626,0.87653,-6.577786,4.214966,98.700005,-165.3,-20.7,x,,,,,
91925,1.7693069,9.37649,-3.5320342,1.478668,-5.586926,2.2408679,98.700005,-170.1,-21.300001,x,,,,,
91946,1.5844808,8.307608,-3.7880394,2.09605,-5.464974,0.625004,98.700005,-172.5,-20.7,x,,,,,
91966,1.6945391,8.5576315,-3.4823885,2.7362978,-5.343022,0.327746,91.5,-170.1,-15.3,x,,,,,
91986,1.8099806,8.981715,-3.8418722,2.2408679,-4.38265,-0.19055,98.700005,-170.1,-17.1,x,,,,,
92006,1.5115073,9.118092,-3.6074002,1.768304,-2.7591639,-1.94361,101.100006,-167.70001,-17.7,x,,,,,
92026,1.3625697,8.439199,-3.824526,1.98172,-1.3643379,-2.843006,105.9,-158.1,-17.7,x,,,,,
92046,1.3811121,8.405105,-3.9902117,1.71495,-0.312502,-2.431418,113.100006,-162.90001,-19.5,x,,,,,
92110,0.6477888,8.964369,-4.443604,1.6311079,2.454284,-0.70122397,120.3,-150.90001,-15.900001,x,,,,,
92130,0.7016217,9.187476,-4.443006,1.463424,2.13416,-0.396344,103.50001,-155.70001,-16.5,,,,,,
92150,0.74648243,9.034949,-4.212721,1.158544,1.707328,-0.16768399,108.3,-162.90001,-17.7,,,,,,
92170,0.77997845,8.84474,-4.0308857,0.853664,1.227142,0.045732,98.700005,-153.3,-11.1,,,,,,
92230,1.0491427,8.815431,-2.9267135,-0.23628199,0.487808,-0.26677,105.9,-158.1,-19.5,,,,,,
92250,0.72853816,8.732887,-2.9823408,-0.510674,0.55640596,-0.83842,113.100006,-158.1,-21.300001,,,,,,
92274,0.65317214,8.585744,-3.0002851,-0.53354,0.16768399,-0.95274997,110.700005,-160.5,-17.7,,,,,,
92294,0.593956,8.634193,-2.9189377,-0.617382,-0.22865999,-0.45731997,101.100006,-153.3,-21.900002,,,,,,
92315,0.58318937,8.796888,-2.9596114,-0.663114,-0.525918,-0.15244,127.50001,-150.90001,-18.300001,,,,,,
92335,0.68367743,8.885414,-2.9213302,-0.640248,-0.960372,-0.022866,93.9,-153.3,-18.900002,,,,,,
92356,0.8015116,8.878236,-2.8441699,-0.67073596,-1.059458,-0.083841994,110.700005,-158.1,-21.900002,,,,,,
92376,1.108957,8.856703,-2.761626,-0.739334,-0.975616,-0.068598,115.50001,-153.3,-14.700001,,,,,,
92396,1.393075,9.061268,-2.978752,-0.80793196,-0.49543,-0.144818,101.100006,-160.5,-14.1,,,,,,
92416,1.3589808,8.872853,-3.2024574,-0.67835796,-0.26677,-0.68597996,98.700005,-150.90001,-18.300001,,,,,,
92436,1.6532671,8.742457,-2.986528,-0.3811,-0.327746,-0.83842,115.50001,-155.70001,-21.300001,,,,,,
92456,1.9218334,8.572585,-3.1067545,-1.234764,0.754578,-1.3643379,113.100006,-160.5,-20.7,x,,,,,
92478,1.9672922,8.008536,-4.0249043,-0.442076,2.111294,-1.8521459,103.50001,-146.1,-15.900001,x,,,,,
92498,2.0145454,8.034855,-4.422071,-0.137196,2.47715,-1.707328,113.100006,-148.5,-17.7,x,,,,,
92538,2.3530943,8.445181,-5.480186,0.93750596,3.50612,-1.158544,110.700005,-155.70001,-12.3,x,,,,,
92560,2.1353705,8.152091,-5.3491926,0.70122397,4.0777698,-1.44818,115.50001,-153.3,-17.7,x,,,,,
92580,1.8315138,7.33084,-5.303734,0.625004,5.9222937,-1.920744,127.50001,-150.90001,-14.700001,x,,,,,
92600,1.556368,7.1944637,-5.532224,1.3795819,7.8125496,-1.989342,117.9,-148.5,-14.700001,x,,,,,
92620,1.5156943,7.9636755,-4.8850336,2.065562,7.972612,-2.05794,125.100006,-148.5,-15.900001,x,,,,,
92640,1.6179768,8.209513,-3.9016867,1.02897,9.519877,-3.574718,113.100006,-143.70001,-8.700001,x,,,,,
92660,1.518685,7.538994,-3.6337185,-0.289636,12.27142,-5.8918056,108.3,-146.1,-7.5000005,x,,,,,
92682,1.1029756,6.6692944,-3.560745,-0.91463995,14.115944,-7.759196,120.3,-153.3,-5.1000004,x,,,,,
92702,1.3799158,7.008441,-3.2239907,-1.41007,14.939119,-8.323224,117.9,-148.5,-14.1,x,,,,,
92722,1.0407687,6.0430384,-2.978752,-1.806414,16.23486,-9.931466,125.100006,-148.5,-11.1,x,,,,,
92742,0.5215807,5.764902,-2.8674974,-1.204276,16.341568,-9.824758,127.50001,-131.70001,-9.3,x,,,,,
92764,-0.07177716,5.505906,-2.4063292,-1.3948259,15.625099,-10.373542,139.5,-129.3,-8.1,x,,,,,
92784,-0.26677176,6.8002872,-2.6001275,-0.510674,15.693698,-9.199754,141.90001,-143.70001,-8.700001,x,,,,,
92806,-2.2310734,8.475686,-3.0696697,0.3811,15.038206,-10.221102,153.90001,-138.90001,-1.5,x,,,,,
92826,-3.974062,10.675057,-2.5720148,0.022866,13.429964,-9.542744,158.70001,-117.3,-0.90000004,x,,,,,
92866,-7.12807,12.287651,-4.2139173,-0.358234,7.3171196,-9.07018,139.5,-112.50001,-4.5,x,,,,,
92955,-6.640583,13.479152,-3.2138221,-3.628072,-9.840002,2.118916,163.5,-124.50001,-0.90000004,x,,,,,
92975,-5.0561028,13.198025,-1.9224315,-4.0320377,-12.522945,5.0228977,173.1,-126.9,-2.7,x,,,,,
93015,-4.108046,10.019493,-1.7746902,-2.51526,-12.477214,7.865904,163.5,-143.70001,-6.9,x,,,,,
93036,-3.070866,9.254468,-1.7280351,-1.532022,-14.786679,8.72719,156.3,-136.5,-12.900001,x,,,,,
93056,-2.1736515,8.281888,-1.4337487,-0.92988396,-16.410166,8.1555395,146.70001,-146.1,-2.1000001,x,,,,,
93076,-0.8134744,7.448674,-1.4534874,-0.015244,-18.391886,6.8674216,153.90001,-136.5,-13.500001,x,,,,,
93098,0.70640683,7.451665,-0.15133017,0.373478,-19.89342,5.8918056,153.90001,-143.70001,-13.500001,x,,,,,
93118,0.96420646,7.0975647,0.42527965,1.158544,-17.172365,4.0015497,141.90001,-143.70001,-19.5,x,,,,,
93138,0.16867632,6.790717,-1.0090672,2.09605,-12.835447,3.2850819,144.3,-138.90001,-20.1,x,,,,,
93160,-0.3343619,6.836176,-1.9852365,2.012208,-10.86135,3.2088618,141.90001,-129.3,-17.1,x,,,,,
93200,-0.44800907,6.7093697,-3.2652624,1.204276,-7.0808377,3.414656,139.5,-153.3,-19.5,x,,,,,
93260,0.6794904,8.010929,-2.8375902,2.157026,-4.618932,2.51526,139.5,-148.5,-17.7,x,,,,,
93280,0.47851437,7.8344765,-3.325675,2.446662,-3.346058,1.554888,129.90001,-141.3,-18.300001,x,,,,,
93320,0.21234076,8.696401,-4.634412,3.605206,-2.469528,1.3490939,117.9,-153.3,-17.1,x,,,,,
93340,0.04605701,9.042726,-4.9394646,3.597584,-2.446662,0.67835796,141.90001,-160.5,-17.1,x,,,,,
93360,-0.08972145,8.848329,-4.6086917,3.079288,-2.82014,0.22865999,134.70001,-136.5,-12.900001,x,,,,,
93381,-0.16508746,8.998463,-4.3897715,2.347576,-1.974098,0.0,122.700005,-138.90001,-20.1,x,,,,,
93402,-0.18662061,8.337515,-5.3186874,2.118916,0.068598,-0.297258,127.50001,-150.90001,-14.1,x,,,,,
93422,-0.053832866,8.507387,-5.1494126,2.538126,-0.312502,0.70122397,134.70001,-138.90001,-18.300001,x,,,,,
93442,0.43305552,9.288562,-4.7965083,2.141782,0.068598,2.012208,132.3,-158.1,-12.900001,x,,,,,
93465,0.7524639,9.407593,-4.51897,1.189032,1.1204339,2.050318,134.70001,-160.5,-16.5,x,,,,,
93485,0.933103,9.136036,-4.212721,0.365856,2.035074,2.035074,129.90001,-155.70001,-18.300001,,,,,,
93505,0.67470527,8.9787245,-4.196571,0.0,2.675322,1.974098,108.3,-148.5,-12.900001,,,,,,
93525,0.5024401,8.958985,-4.00696,0.213416,2.32471,1.8978779,122.700005,-148.5,-14.700001,,,,,,
93545,0.677696,9.142615,-3.6014187,0.15244,1.3948259,1.669218,113.100006,-150.90001,-12.3,,,,,,
93565,0.974973,9.014014,-3.1115398,-0.297258,0.94512796,1.1356779,125.100006,-158.1,-13.500001,,,,,,
93588,0.9157569,9.066651,-3.0565107,-0.503052,1.1280559,0.70122397,115.50001,-146.1,-12.900001,,,,,,
93608,0.70760316,8.621035,-2.811272,-0.579272,0.579272,-0.022866,127.50001,-146.1,-13.500001,,,,,,
93628,0.7267437,8.647951,-2.7101858,-0.53354,0.41158798,-0.16768399,122.700005,-143.70001,-15.3,,,,,,
93651,0.64360183,8.92848,-2.715569,-0.442076,0.289636,-0.967994,127.50001,-141.3,-20.1,,,,,,
93671,0.52277696,8.922499,-2.9087694,-0.49543,0.22865999,-1.3872039,122.700005,-158.1,-15.3,,,,,,
93733,0.42228892,8.473293,-2.8812547,-0.106708,-0.731712,-0.769822,120.3,-160.5,-12.3,,,,,,
93755,0.39477435,8.997865,-2.9943037,0.259148,-0.525918,0.045732,127.50001,-153.3,-19.5,,,,,,
93775,0.24822934,9.159962,-3.2198036,0.56402797,-0.480186,0.137196,127.50001,-143.70001,-8.1,,,,,,
93797,0.25421077,9.227551,-3.3992465,0.548784,-0.46494198,-0.144818,120.3,-146.1,-14.1,,,,,,
93817,0.14534874,8.930873,-3.6253445,0.40396598,-0.26677,-0.57164997,125.100006,-136.5,-6.9,,,,,,
93839,0.51739365,8.777748,-3.7706933,0.327746,-0.198172,-0.510674,132.3,-141.3,-16.5,x,,,,,
93860,0.840989,9.0217905,-3.8412743,-0.22865999,0.41921,-0.617382,125.100006,-155.70001,-9.900001,x,,,,,
93880,0.77220255,8.607876,-4.0129414,-1.074702,1.25763,-1.1280559,122.700005,-153.3,-15.3,x,,,,,
93900,0.91097176,8.119791,-4.5554566,-1.150922,2.09605,-1.3719599,122.700005,-141.3,-12.900001,x,,,,,
93920,1.3344569,8.214895,-5.136254,-0.94512796,2.36282,-1.3414719,127.50001,-148.5,-17.7,x,,,,,
93942,1.2082489,7.5318165,-5.669199,-0.3811,3.605206,-2.01983,125.100006,-153.3,-8.700001,x,,,,,
93963,1.0012913,6.9552064,-6.5945263,1.044214,4.237832,-1.9131219,120.3,-146.1,-18.900002,x,,,,,
93983,1.1424531,7.2770076,-7.714848,3.1859958,5.304912,-1.288118,132.3,-150.90001,-12.3,x,,,,,
94046,2.301056,8.438003,-4.6248417,-0.129574,4.131124,-5.0533857,132.3,-138.90001,-10.5,x,,,,,
94066,2.4063292,7.632304,-3.6666164,-3.361302,7.370474,-5.960404,132.3,-148.5,-13.500001,x,,,,,
94086,2.070771,5.9293914,-2.6605399,-6.3719916,11.2195835,-6.722604,141.90001,-150.90001,-9.900001,x,,,,,
94106,1.556368,4.900585,-2.0474434,-8.87963,14.649484,-6.0899777,137.1,-141.3,-12.3,x,,,,,
94126,0.8720924,3.9369771,-1.5802938,-8.940606,16.989437,-5.762232,134.70001,-143.70001,-16.5,x,,,,,
94146,0.13757288,3.9938006,-1.6460894,-6.730226,17.972675,-5.495462,158.70001,-146.1,-12.3,x,,,,,
94210,-1.2596891,8.087491,-2.0653877,-0.49543,16.692179,-8.80341,149.1,-136.5,-5.7000003,x,,,,,
94230,-3.6032133,8.961976,-2.3225892,0.853664,16.211994,-10.487872,153.90001,-129.3,-5.1000004,x,,,,,
94250,-5.4742045,9.397425,-3.4901643,1.6463519,14.108322,-10.838484,163.5,-131.70001,0.3,x,,,,,
94271,-5.7296114,12.562199,-3.9501362,1.501534,10.884215,-7.3323636,153.90001,-124.50001,-0.90000004,x,,,,,
94291,-6.004159,14.44276,-4.6027102,-0.23628199,7.027484,-5.800342,161.1,-117.3,2.1000001,x,,,,,
94313,-5.768491,13.787195,-3.321488,-2.2713559,2.2180018,-4.070148,168.3,-117.3,-0.3,x,,,,,
94334,-5.9503264,14.752,-3.527249,-1.8978779,0.53354,-2.6677,177.90001,-107.700005,2.1000001,x,,,,,
94396,-5.5878515,14.261523,-2.3058412,-1.6158639,-8.772922,1.8292799,177.90001,-119.700005,-2.1000001,x,,,,,
94416,-5.585459,13.760279,-2.3040466,-1.463424,-9.497012,3.079288,173.1,-117.3,-3.9,x,,,,,
94438,-4.03268,11.938335,-1.158603,-1.8445239,-12.774471,6.341504,175.5,-112.50001,-9.900001,x,,,,,
94459,-3.9339864,9.3459835,-0.6059188,-1.1432999,-13.03362,7.0960817,177.90001,-117.3,-18.300001,x,,,,,
94479,-3.1958778,8.687428,-0.99052477,-0.243904,-13.742466,9.009204,156.3,-122.100006,-9.900001,x,,,,,
94520,-1.7220536,7.8171306,-1.041965,0.56402797,-13.346122,9.824758,158.70001,-117.3,-12.3,x,,,,,
94540,-1.5001426,7.17951,-1.7100908,0.83842,-12.667764,9.001582,149.1,-124.50001,-15.3,x,,,,,
94562,-1.3117275,6.4671216,-1.9966012,0.967994,-12.416238,8.224138,139.5,-141.3,-17.1,x,,,,,
94586,-0.8810646,5.7074804,-2.5127985,1.3795819,-11.676904,7.248522,132.3,-153.3,-18.300001,x,,,,,
94607,-0.20815375,6.425252,-2.6725028,2.126538,-11.067143,7.0655937,129.90001,-143.70001,-19.5,x,,,,,
94627,0.3104362,6.9689636,-2.8525438,2.416174,-9.992442,6.379614,129.90001,-146.1,-14.1,x,,,,,
94647,0.8589333,7.3445973,-3.1611855,2.431418,-8.91774,5.724122,122.700005,-158.1,-22.5,x,,,,,
94667,1.1107515,7.57249,-3.0738568,2.32471,-8.346089,4.9466777,127.50001,-153.3,-20.1,x,,,,,
94727,1.5210776,8.361441,-3.6391017,3.109776,-4.748506,1.6539739,110.700005,-146.1,-19.5,x,,,,,
94754,1.4618614,9.272412,-3.9166403,3.147886,-3.8262439,0.3811,120.3,-143.70001,-18.300001,x,,,,,
94777,1.1705658,8.642568,-3.5625396,1.9131219,-3.323192,-1.1128119,110.700005,-155.70001,-12.900001,x,,,,,
94818,0.3744375,7.4313283,-4.48368,1.920744,0.41921,-3.338436,113.100006,-150.90001,-20.7,x,,,,,
94839,-0.008972145,7.283587,-4.910156,2.957336,0.160062,-1.9131219,132.3,-155.70001,-13.500001,x,,,,,
94859,0.44501838,8.661709,-4.5829716,2.637212,-0.55640596,-0.099086,122.700005,-146.1,-17.1,,,,,,
94880,0.7428936,8.598305,-4.4328375,1.3719599,0.46494198,-0.40396598,117.9,-146.1,-14.1,,,,,,
94900,0.9731786,8.539687,-4.614673,1.051836,1.3872039,-0.320124,125.100006,-146.1,-15.900001,,,,,,
94920,0.8487649,8.646156,-4.7253294,1.227142,1.760682,-0.259148,115.50001,-148.5,-15.900001,,,,,,
94940,0.5790024,8.386562,-4.735498,1.18141,1.8750119,-0.26677,125.100006,-141.3,-15.3,,,,,,
94963,0.577208,9.134241,-4.669104,1.6006199,1.471046,0.030488,129.90001,-150.90001,-12.900001,,,,,,
95004,0.3660635,8.924891,-4.3568735,0.510674,0.739334,-0.64787,108.3,-153.3,-14.700001,,,,,,
95025,0.24523862,8.75143,-4.0344744,-0.11432999,0.312502,-0.182928,115.50001,-143.70001,-13.500001,,,,,,
95066,0.2769402,8.836366,-3.7198513,-0.57164997,-0.41158798,0.30488,115.50001,-153.3,-15.3,,,,,,
95086,0.3104362,8.981116,-3.4112093,-0.884152,-0.899396,0.396344,98.700005,-153.3,-11.700001,,,,,,
95106,0.40972793,8.837563,-3.2359536,-1.227142,-0.83842,0.480186,129.90001,-155.70001,-8.1,,,,,,
95126,0.52696395,8.723317,-3.087614,-1.265252,-0.64787,0.442076,127.50001,-155.70001,-14.700001,,,,,,
95146,0.6124984,8.327347,-3.0935955,-1.21952,-0.33536798,0.198172,122.700005,-148.5,-11.1,,,,,,
95166,0.7339214,8.511575,-3.280216,-0.548784,-0.091464,0.20579399,115.50001,-153.3,-17.7,,,,,,
95186,0.9941136,9.013416,-3.5386138,-0.251526,0.068598,-0.19055,110.700005,-150.90001,-8.1,,,,,,
95206,1.2872037,9.217981,-3.7252345,-0.69360197,0.28201398,-0.785066,132.3,-148.5,-8.700001,,,,,,
95226,1.2070525,8.590529,-4.1062517,-1.532022,0.846042,-1.570132,129.90001,-146.1,-12.3,,,,,,
95246,1.3332607,8.162259,-4.8856316,-1.509156,1.554888,-1.94361,117.9,-141.3,-12.3,x,,,,,
95266,1.1334809,7.7507367,-6.1465173,-0.80030996,3.041178,-2.599102,122.700005,-150.90001,-12.900001,x,,,,,
95308,2.0217233,9.589428,-7.5706954,-0.92226195,-1.051836,-2.332332,125.100006,-148.5,-9.900001,x,,,,,
95328,2.3830016,8.344094,-6.3815875,-2.469528,0.015244,-4.618932,132.3,-143.70001,-15.3,x,,,,,
95348,1.9762644,6.9193177,-5.798996,-2.843006,2.164648,-5.8613176,144.3,-143.70001,-14.1,x,,,,,
95370,1.1568085,5.681162,-4.9885125,-2.881116,4.207344,-6.158576,149.1,-141.3,-16.5,x,,,,,
95410,0.8338113,6.80268,-3.1354654,-4.359784,10.122016,-4.093014,149.1,-146.1,-13.500001,x,,,,,
95430,0.8852516,6.687238,-2.6958303,-5.10674,11.181474,-4.702774,134.70001,-134.1,-17.1,x,,,,,
95450,0.073571585,5.3695292,-1.873982,-5.9985137,14.458934,-6.8674216,144.3,-134.1,-11.700001,x,,,,,
95472,-0.92652345,5.3539777,-1.953535,-4.5274677,16.46352,-7.614378,146.70001,-136.5,-17.7,x,,,,,
95492,-0.97796375,5.7385836,-1.1538178,-4.9924097,16.92084,-9.192132,156.3,-146.1,-14.700001,x,,,,,
95515,-2.8591235,4.450184,-1.9631052,-3.6814258,19.664759,-11.006167,153.90001,-141.3,-2.7,x,,,,,
95536,-4.0105486,6.4431963,-3.334049,-1.02897,16.943707,-7.667732,180.3,-129.3,-7.5000005,x,,,,,
95556,-3.4088168,9.560718,-1.991816,-2.408552,11.227205,-6.661628,153.90001,-134.1,-12.900001,x,,,,,
95576,-4.0769424,11.608759,-1.4750205,-2.7820299,11.1890955,-7.210412,161.1,-112.50001,-8.1,x,,,,,
95596,-3.7838523,14.361413,-0.9091773,-4.298808,9.329328,-7.118948,170.70001,-124.50001,-9.900001,x,,,,,
95619,-5.133263,12.135124,-1.3308681,-3.7957559,10.426896,-8.07932,175.5,-119.700005,-12.3,x,,,,,
95639,-6.267342,13.994153,-1.9684886,-2.332332,8.26987,-4.9009457,173.1,-122.100006,-5.7000003,x,,,,,
95659,-5.3779035,16.397491,-2.087519,-3.361302,4.176856,-2.2332458,180.3,-122.100006,-13.500001,x,,,,,
95679,-5.7212377,15.301095,-1.5031333,-3.50612,1.288118,-1.8369019,189.90001,-100.50001,-3.9,x,,,,,
95703,-7.6197433,15.37706,-2.8232348,-1.463424,-6.234796,0.259148,180.3,-110.100006,-12.900001,x,,,,,
95723,-5.5723,15.678524,-1.2955776,-1.928366,-11.410133,1.6539739,185.1,-107.700005,-12.900001,x,,,,,
95747,-4.770788,13.928955,-0.066992015,-1.242386,-11.981784,2.7515419,189.90001,-131.70001,-10.5,x,,,,,
95767,-4.794714,10.46511,-0.35469878,-0.16768399,-11.532085,5.655524,170.70001,-114.9,-15.900001,x,,,,,
95789,-4.120009,8.713747,-0.62984455,0.68597996,-12.614409,7.66011,182.70001,-129.3,-13.500001,x,,,,,
95809,-3.041557,8.00076,-0.9211402,1.44818,-13.346122,9.29884,180.3,-129.3,-11.700001,x,,,,,
95830,-2.0797431,7.4660206,-1.2393522,1.8826339,-13.765331,9.878112,173.1,-131.70001,-19.5,x,,,,,
95850,-1.5258627,6.7853336,-1.3392421,2.027452,-13.894906,9.801891,153.90001,-141.3,-21.900002,x,,,,,
95892,-0.8529519,6.498823,-2.1610906,1.722572,-13.018375,8.597616,144.3,-153.3,-17.1,x,,,,,
95912,-0.21114446,7.233941,-2.045649,0.91463995,-12.53819,7.286632,149.1,-146.1,-18.300001,x,,,,,
95932,0.3271842,7.1938653,-2.1975772,0.312502,-11.493976,5.37351,146.70001,-148.5,-13.500001,x,,,,,
95954,0.25959405,6.9689636,-2.4535825,0.33536798,-10.625068,4.565578,134.70001,-131.70001,-21.900002,x,,,,,
95974,0.24763119,6.6956124,-2.6605399,0.746956,-10.236346,4.123502,129.90001,-146.1,-20.7,x,,,,,
95994,0.42647594,7.3721123,-2.2472231,1.722572,-10.990924,4.603688,132.3,-150.90001,-19.5,x,,,,,
96014,0.75366014,8.00734,-1.9385813,1.280496,-9.207376,3.368924,122.700005,-143.70001,-25.500002,x,,,,,
96099,0.118432306,8.372806,-3.138456,2.652456,-1.8369019,-1.5929979,132.3,-148.5,-21.900002,x,,,,,
96135,0.49526238,9.177308,-3.3382359,3.483254,-0.365856,-1.417692,132.3,-160.5,-25.500002,,,,,,
96198,-0.2171259,8.953602,-4.4418097,3.422278,1.8902559,0.045732,137.1,-150.90001,-15.3,,,,,,
96218,0.0059814295,9.086988,-4.5973268,2.865872,2.05794,0.365856,129.90001,-143.70001,-21.300001,,,,,,
96240,0.16090046,9.213196,-4.827014,2.621968,2.339954,0.327746,137.1,-146.1,-17.1,,,,,,
96260,0.4719348,9.328638,-4.92152,2.416174,1.958854,0.449698,141.90001,-146.1,-16.5,,,,,,
96323,1.23038,9.060072,-3.862209,0.525918,2.2942219,0.160062,129.90001,-143.70001,-19.5,,,,,,
96343,1.070676,8.502005,-3.7096827,0.20579399,2.652456,-0.373478,120.3,-146.1,-21.900002,,,,,,
96363,0.7201641,8.283084,-3.6175687,0.20579399,2.621968,-0.144818,134.70001,-141.3,-15.3,,,,,,
96383,0.6764997,8.327945,-3.5493803,0.26677,2.370442,-0.022866,129.90001,-150.90001,-11.1,,,,,,
96403,0.76083785,8.79629,-3.4835846,0.442076,1.9054999,0.26677,127.50001,-155.70001,-12.3,,,,,,
96444,0.8272317,8.701186,-3.3501987,0.396344,1.272874,0.785066,110.700005,-155.70001,-11.1,,,,,,
96465,0.75844526,9.06067,-3.3310583,0.3811,1.150922,1.166166,120.3,-148.5,-15.900001,,,,,,
96485,0.7716044,9.421948,-3.560745,0.579272,1.021348,0.975616,127.50001,-146.1,-9.900001,,,,,,
96507,0.7105939,9.777843,-3.6402981,0.785066,0.830798,0.655492,132.3,-150.90001,-11.700001,,,,,,
96527,0.48449582,10.062559,-3.6953273,0.55640596,0.67835796,0.426832,127.50001,-148.5,-8.1,,,,,,
96547,0.25899592,10.019493,-3.5511749,0.251526,0.40396598,0.053354,115.50001,-146.1,-12.900001,,,,,,
96611,-1.0682833,8.8058605,-3.451285,-0.091464,0.327746,-1.1204339,122.700005,-146.1,-14.700001,,,,,,
96631,-1.4750205,8.707766,-3.4237704,0.129574,0.091464,-1.1356779,122.700005,-146.1,-14.700001,,,,,,
96651,-1.5635457,8.363833,-3.209037,0.015244,-0.289636,-1.18141,129.90001,-141.3,-14.700001,,,,,,
96675,-1.510311,7.3703175,-3.0780437,-0.099086,0.129574,-1.75306,132.3,-150.90001,-15.900001,,,,,,
96696,-2.0869207,7.0850034,-3.405228,0.503052,0.40396598,-0.960372,134.70001,-143.70001,-15.3,,,,,,
96716,-1.9654979,6.9007754,-3.4596589,0.274392,0.20579399,-0.35061198,132.3,-150.90001,-14.1,,,,,,
96736,-1.4152063,7.0066466,-3.1229045,0.213416,0.144818,0.602138,115.50001,-150.90001,-15.900001,,,,,,
96756,-0.77758586,8.62582,-3.2365515,-0.625004,1.150922,1.29574,127.50001,-153.3,-14.1,,,,,,
96776,-0.5538804,9.052894,-3.7144678,-1.1204339,1.6387299,0.28201398,125.100006,-136.5,-19.5,,,,,,
96797,-0.05203844,8.676064,-3.4614534,-1.1204339,1.227142,-0.099086,117.9,-148.5,-8.1,,,,,,
96818,0.6459944,9.142615,-3.1940835,-0.907018,1.25763,0.55640596,110.700005,-146.1,-14.1,,,,,,
96838,1.1526215,9.72401,-3.1785316,-1.173788,1.661596,0.80793196,120.3,-148.5,-6.3,,,,,,
96858,1.1376679,10.142711,-3.6684108,-0.92988396,1.661596,0.426832,120.3,-155.70001,-18.300001,,,,,,
96878,1.113144,9.332227,-3.811367,0.243904,0.49543,-0.998482,129.90001,-143.70001,-5.7000003,x,,,,,
96898,1.071274,8.996669,-3.8885274,0.259148,0.34298998,-1.204276,120.3,-153.3,-6.9,x,,,,,
96918,1.2148284,8.874049,-4.2904797,0.23628199,0.312502,-1.288118,108.3,-143.70001,-14.1,x,,,,,
96939,1.1603974,8.713747,-4.6080933,0.137196,0.20579399,-1.478668,120.3,-136.5,-12.900001,x,,,,,
96960,1.1597992,8.439797,-4.9472404,-0.30488,-0.068598,-1.3795819,125.100006,-146.1,-15.900001,x,,,,,
96984,0.99889874,7.1813045,-6.2033405,0.16768399,1.097568,-1.166166,115.50001,-153.3,-11.1,x,,,,,
97004,1.1233125,6.8762517,-6.4330277,0.92226195,-0.15244,0.525918,117.9,-150.90001,-11.1,x,,,,,
97024,1.5934529,8.3955345,-6.179415,1.737816,-0.16768399,2.385686,129.90001,-146.1,-11.700001,x,,,,,
97045,0.96899164,7.9870033,-6.430037,2.157026,1.684462,1.29574,125.100006,-141.3,-15.3,x,,,,,
97065,0.8350076,7.7381754,-6.462935,3.08691,2.332332,0.785066,120.3,-150.90001,-11.1,x,,,,,
97087,1.3434291,8.077921,-6.2224813,3.46801,3.559474,0.40396598,117.9,-143.70001,-11.700001,x,,,,,
97107,1.6155841,8.800478,-5.7314057,2.7591639,5.29729,-0.884152,122.700005,-143.70001,-11.1,x,,,,,
97127,1.9415721,8.644362,-4.0524187,-0.40396598,8.7653,-4.641798,115.50001,-131.70001,-3.3000002,x,,,,,
97147,1.9086742,8.21669,-3.5792875,-1.768304,10.51836,-6.051868,125.100006,-141.3,0.90000004,x,,,,,
97167,1.9391795,6.9641786,-2.405731,-4.123502,13.010754,-8.262248,132.3,-150.90001,-7.5000005,x,,,,,
97187,1.3703456,5.0973744,-1.3482143,-5.25918,16.516874,-10.038174,125.100006,-143.70001,-9.900001,x,,,,,
97209,0.21533147,4.505213,-1.6993241,-4.641798,19.276037,-9.847624,127.50001,-143.70001,-7.5000005,x,,,,,
97229,0.036486723,5.593833,-1.6837724,-3.475632,18.925426,-8.795788,132.3,-136.5,-11.1,x,,,,,
97249,0.111852735,7.033563,-1.2531096,-3.094532,19.352257,-9.329328,134.70001,-134.1,-13.500001,x,,,,,
97273,-1.2106414,7.566509,-1.8010085,-1.814036,19.4361,-10.457384,137.1,-126.9,-11.1,x,,,,,
97293,-2.9769576,8.25856,-3.3161047,-0.663114,19.10073,-9.977198,151.5,-126.9,-3.3000002,x,,,,,
97315,-3.9315937,11.103328,-4.527344,0.099086,15.000095,-8.132674,156.3,-112.50001,0.3,x,,,,,
97335,-4.2815075,13.413955,-3.8215353,-1.814036,8.391822,-7.6067557,141.90001,-131.70001,2.1000001,x,,,,,
97355,-4.542298,13.488124,-2.828618,-3.7347798,4.657042,-6.70736,149.1,-112.50001,2.1000001,x,,,,,
97397,-6.175228,14.476854,-3.5942411,-1.8597679,-1.21952,-4.413138,156.3,-112.50001,2.7,x,,,,,
97417,-5.961691,13.962451,-2.987724,-1.02897,-7.08846,-0.137196,158.70001,-117.3,4.5,x,,,,,
97437,-5.627329,13.790186,-2.6467826,-1.1356779,-8.208894,1.227142,173.1,-114.9,-1.5,x,,,,,
97457,-5.129674,13.152566,-2.6886528,-1.097568,-9.275973,3.643316,163.5,-119.700005,-0.90000004,x,,,,,
97520,-2.7424855,8.982313,-2.7676075,-1.082324,-11.730258,7.271388,161.1,-126.9,-8.700001,x,,,,,
97540,-2.4278624,7.906852,-3.0589032,-0.907018,-12.850692,7.538158,156.3,-134.1,-9.3,x,,,,,
97562,-1.8691968,7.271026,-2.7885425,-0.975616,-14.169297,7.73633,153.90001,-138.90001,-8.1,x,,,,,
97582,-1.4355432,6.9336734,-2.8962083,-0.93750596,-14.458934,7.743952,141.90001,-131.70001,-12.3,x,,,,,
97602,-1.4582726,6.418074,-2.9715743,-1.250008,-14.397958,7.3323636,139.5,-122.100006,-15.3,x,,,,,
97622,-0.9767675,6.338521,-3.062492,-1.730194,-14.550398,7.713464,134.70001,-138.90001,-15.900001,x,,,,,
97642,0.05443101,6.464131,-2.5050228,-1.951232,-14.413201,7.942124,125.100006,-141.3,-15.3,x,,,,,
97662,0.7458843,7.3571587,-1.8638135,-1.730194,-12.926911,7.728708,125.100006,-148.5,-18.300001,x,,,,,
97682,0.9671972,6.9881043,-2.0881171,-1.6539739,-10.853727,6.242418,134.70001,-148.5,-15.3,x,,,,,
97702,1.03718,7.518657,-1.7627274,-0.525918,-9.245486,4.771372,117.9,-150.90001,-15.900001,x,,,,,
97725,1.0587131,6.981525,-2.539715,1.158544,-6.4482117,2.926848,122.700005,-153.3,-20.1,x,,,,,
97745,1.1675751,8.111417,-3.100175,2.652456,-5.556438,2.8048959,125.100006,-146.1,-12.3,x,,,,,
97767,1.2854092,8.875844,-3.4183872,3.437522,-4.641798,1.455802,108.3,-150.90001,-18.900002,x,,,,,
97807,0.92472905,8.143717,-3.72344,2.2865999,-3.094532,-0.998482,117.9,-150.90001,-11.1,x,,,,,
97827,0.8272317,9.026576,-3.5128937,1.4024479,-2.111294,-0.884152,125.100006,-155.70001,-17.1,x,,,,,
97847,0.7082013,8.932069,-3.6139798,0.907018,-1.227142,-1.501534,117.9,-155.70001,-16.5,x,,,,,
97869,0.2171259,8.787916,-4.4442024,1.775926,-0.312502,-1.280496,137.1,-143.70001,-24.300001,x,,,,,
97889,0.4079335,8.560024,-4.155897,2.042696,-0.60976,-0.297258,132.3,-155.70001,-17.1,,,,,,
97912,0.7082013,9.272412,-4.145729,2.141782,-0.17530599,0.792688,113.100006,-143.70001,-8.1,,,,,,
97933,0.85414815,9.664196,-4.2019544,2.2103798,0.33536798,0.83842,127.50001,-148.5,-18.900002,,,,,,
97953,0.6992291,8.882423,-4.2139173,1.783548,0.731712,0.327746,122.700005,-146.1,-15.3,,,,,,
97973,0.73751026,8.720326,-4.2013564,1.996964,0.617382,0.708846,115.50001,-146.1,-9.900001,,,,,,
97993,0.7716044,8.840553,-3.9638934,1.5929979,0.449698,0.884152,115.50001,-153.3,-11.700001,,,,,,
98054,0.74648243,8.568398,-3.3442173,-0.35061198,0.70122397,-0.67073596,117.9,-153.3,-17.7,,,,,,
98076,0.20157418,8.533108,-3.6714015,-0.137196,0.41158798,-0.434454,132.3,-143.70001,-12.3,,,,,,
98117,0.47791624,9.138429,-3.4859772,-0.03811,-0.663114,0.518296,120.3,-148.5,-11.700001,,,,,,
98137,0.65496653,9.158765,-3.2078407,-0.327746,-0.541162,0.327746,127.50001,-150.90001,-16.5,,,,,,
98157,0.67590153,9.052894,-3.1516154,-0.663114,-0.221038,0.15244,120.3,-160.5,-12.3,,,,,,
98177,0.6890607,8.830384,-3.0720623,-0.739334,0.137196,-0.030488,115.50001,-160.5,-15.3,,,,,,
98197,0.5861801,8.80287,-3.1558022,-0.68597996,0.41921,-0.16768399,117.9,-150.90001,-17.7,,,,,,
98217,0.5544785,8.8919935,-3.1857095,-0.34298998,0.274392,-0.259148,120.3,-148.5,-16.5,,,,,,
98237,0.44202766,8.81603,-3.23057,-0.221038,0.007622,-0.434454,117.9,-160.5,-14.700001,,,,,,
98257,0.38879293,8.6652975,-3.2323647,-0.251526,-0.312502,-0.365856,120.3,-153.3,-17.1,,,,,,
98278,0.48509395,8.7843275,-3.2473183,-0.129574,-0.518296,-0.320124,125.100006,-153.3,-21.300001,,,,,,
98318,0.7692119,8.736476,-3.3699374,-0.137196,-0.510674,-0.41921,132.3,-146.1,-14.1,,,,,,
98353,0.80270785,8.4063015,-3.465042,-0.3811,-0.198172,-0.22865999,122.700005,-150.90001,-9.900001,,,,,,
98373,1.0144504,8.711952,-3.5864654,-0.602138,0.129574,-0.434454,137.1,-146.1,-17.7,,,,,,
98417,0.68128484,8.077323,-5.0184197,-0.55640596,1.8597679,-2.050318,115.50001,-153.3,-14.700001,x,,,,,
98478,1.2273893,9.024781,-7.1190977,1.013726,2.530504,-1.074702,134.70001,-138.90001,-11.1,x,,,,,
98498,0.76323044,8.27471,-6.375606,-0.144818,2.500016,-2.538126,122.700005,-146.1,-15.3,x,,,,,
98518,0.4521961,7.170538,-5.748752,-0.434454,3.2927039,-2.606724,122.700005,-146.1,-14.700001,x,,,,,
98540,0.1309933,7.0975647,-4.919726,-0.426832,4.580822,-2.812518,134.70001,-153.3,-13.500001,x,,,,,
98580,0.64360183,8.00435,-3.3244786,0.106708,7.3780956,-2.926848,125.100006,-141.3,-10.5,x,,,,,
98600,0.53892684,7.8978796,-2.47691,-1.051836,11.16623,-4.679908,141.90001,-141.3,-9.3,x,,,,,
98620,0.4007558,7.3236628,-2.9757612,-0.830798,14.763814,-6.303394,127.50001,-155.70001,-11.700001,x,,,,,
98640,0.55208594,7.204034,-2.3112245,-1.1128119,15.7699175,-7.0960817,146.70001,-150.90001,-2.1000001,x,,,,,
98660,1.0922091,7.0915833,-1.661043,-2.317088,18.018408,-8.23176,139.5,-136.5,-2.7,x,,,,,
98683,0.18303175,6.4826736,-3.024211,-2.484772,22.820267,-10.731775,144.3,-129.3,-6.9,x,,,,,
98703,-1.2782315,6.267342,-3.8382835,-1.6006199,22.019957,-11.105254,141.90001,-143.70001,-6.3,x,,,,,
98726,-1.4379357,8.379385,-3.509903,-1.8826339,17.995543,-9.710428,141.90001,-129.3,-5.7000003,x,,,,,
98746,-1.723848,9.703673,-1.9146557,-3.7728899,15.983334,-11.265316,149.1,-134.1,-6.9,x,,,,,
98766,-3.7683008,9.136036,-2.9261155,-3.422278,16.646448,-11.85221,156.3,-129.3,2.7,x,,,,,
98786,-5.2786117,10.090074,-3.8131614,-2.7820299,12.00465,-8.993959,153.90001,-112.50001,-2.7,x,,,,,
98806,-4.1062517,12.522721,-2.5127985,-3.589962,5.480218,-5.4116197,153.90001,-110.100006,5.1000004,x,,,,,
98846,-4.7438717,13.689698,-2.3495057,-2.637212,1.1432999,-1.3567159,161.1,-122.100006,-0.3,x,,,,,
98870,-4.5488772,15.174289,-2.857329,-1.958854,-2.2484899,-0.594516,156.3,-124.50001,0.90000004,x,,,,,
98890,-5.571702,14.400292,-3.0367718,-1.326228,-5.94516,-0.975616,158.70001,-112.50001,-3.3000002,x,,,,,
98910,-6.2810993,13.358925,-3.7605247,-0.617382,-9.657074,0.434454,165.90001,-122.100006,-1.5,x,,,,,
98933,-4.87666,13.129836,-2.329767,-1.577754,-14.497044,4.245454,170.70001,-119.700005,-3.3000002,x,,,,,
98953,-4.1989636,11.130244,-1.7035112,-2.118916,-15.183023,6.333882,170.70001,-122.100006,-7.5000005,x,,,,,
98974,-3.5828764,8.836366,-1.7274369,-1.730194,-15.282109,8.056454,156.3,-124.50001,-12.3,x,,,,,
98994,-2.601922,8.186783,-1.4708335,-1.06708,-16.151018,9.779026,175.5,-134.1,-18.300001,x,,,,,
99017,-1.7388016,7.9971714,-1.1909027,-0.708846,-16.265348,10.083906,163.5,-131.70001,-2.7,x,,,,,
99037,-1.347018,7.5443773,-0.95044917,-0.907018,-15.091559,8.95585,165.90001,-153.3,-14.1,x,,,,,
99059,-1.5557699,6.660322,-1.7352128,-0.792688,-13.208925,7.614378,141.90001,-136.5,-14.1,x,,,,,
99079,-1.5659384,5.6207495,-2.556463,0.221038,-12.88118,6.8674216,158.70001,-136.5,-24.300001,x,,,,,
99102,-0.07536601,7.350579,-1.8997021,0.884152,-13.445208,7.743952,146.70001,-153.3,-11.700001,x,,,,,
99123,0.42647594,7.400823,-1.8967113,0.28201398,-12.286664,7.3628516,134.70001,-155.70001,-18.900002,x,,,,,
99143,0.2990715,8.399123,-1.7214555,0.785066,-10.000064,5.9375377,134.70001,-150.90001,-19.5,x,,,,,
99183,0.4827014,8.066556,-2.2280827,1.547266,-7.8887696,3.7805119,134.70001,-150.90001,-21.900002,x,,,,,
99203,0.68547183,7.9798255,-2.459564,1.6006199,-6.59303,2.911604,117.9,-158.1,-18.900002,x,,,,,
99223,0.9420752,7.740568,-2.4481993,1.768304,-5.4725957,2.17227,125.100006,-158.1,-20.1,x,,,,,
99243,0.8607277,7.7985883,-2.9739668,1.5929979,-3.650938,2.05794,117.9,-158.1,-21.300001,x,,,,,
99266,1.0479465,8.576772,-3.4488924,1.6082419,-2.675322,1.707328,117.9,-158.1,-17.1,x,,,,,
99306,0.8421853,8.723317,-4.111037,0.975616,-0.121952,-0.754578,120.3,-162.90001,-21.300001,,,,,,
99326,0.56883395,8.464919,-4.898193,2.2256238,-0.388722,-0.80793196,127.50001,-160.5,-15.900001,,,,,,
99406,1.0138524,9.159962,-4.443604,2.2332458,0.182928,-0.358234,110.700005,-150.90001,-14.700001,,,,,,
99434,1.0162449,9.728795,-3.9626973,1.3414719,1.06708,-0.182928,122.700005,-158.1,-18.900002,,,,,,
99457,0.5138048,9.106727,-3.8520408,0.55640596,2.2942219,-1.097568,125.100006,-150.90001,-24.300001,,,,,,
99497,0.4360462,9.057679,-2.932695,0.396344,0.861286,0.17530599,120.3,-148.5,-20.1,,,,,,
99578,0.46116823,9.032557,-2.6976247,-0.16768399,0.365856,0.53354,110.700005,-150.90001,-12.3,,,,,,
99758,0.8056986,8.812441,-3.7976098,-0.731712,1.3490939,-2.82014,125.100006,-146.1,-17.1,,,,,,
99818,0.66453683,7.243511,-4.154701,-1.036592,2.301844,-2.995446,129.90001,-155.70001,-16.5,x,,,,,
99913,1.409823,9.268824,-5.421568,0.983238,4.161612,-4.275942,146.70001,-138.90001,-9.900001,x,,,,,
99935,0.6178817,6.8595037,-4.5123906,-0.81555396,6.8826656,-5.045764,146.70001,-141.3,-10.5,x,,,,,
99976,0.22609805,7.123285,-3.0002851,-1.3567159,9.75616,-1.6006199,158.70001,-143.70001,-7.5000005,x,,,,,
99996,1.5970417,8.512771,-1.7669144,-2.065562,10.868972,-2.13416,144.3,-143.70001,-8.1,x,,,,,
100016,1.7501663,7.6921186,-1.2291838,-2.62959,14.687593,-4.756128,139.5,-136.5,-9.3,x,,,,,
100036,1.8464674,7.071246,-1.577303,-2.7896519,17.622063,-6.3719916,153.90001,-136.5,-9.900001,x,,,,,
100100,-1.9056835,6.437813,-4.041652,0.16768399,20.160189,-11.615928,137.1,-124.50001,-2.7,x,,,,,
100120,-2.7000175,8.815431,-2.171259,-2.080806,15.899491,-11.455866,153.90001,-114.9,0.90000004,x,,,,,
100140,-3.6803737,8.750832,-2.6246514,-1.783548,15.747051,-11.77599,168.3,-117.3,-1.5,x,,,,,
100160,-4.338929,10.132542,-2.8657029,-1.722572,12.340017,-9.397925,173.1,-122.100006,-3.3000002,x,,,,,
100180,-4.6254396,12.424625,-2.5947442,-1.684462,9.725672,-7.3323636,156.3,-110.100006,5.1000004,x,,,,,
100203,-5.7547336,13.646033,-3.1097453,-1.471046,6.9893737,-5.480218,158.70001,-105.3,0.3,x,,,,,
100223,-5.5788794,14.559997,-3.3280675,-2.01983,2.7972739,-3.528986,175.5,-112.50001,0.3,x,,,,,
100285,-5.638694,15.017575,-3.82333,-1.722572,-11.326292,1.8673899,170.70001,-110.100006,3.9,x,,,,,
100305,-5.548374,13.160341,-2.7957203,-1.9131219,-12.568678,3.12502,173.1,-107.700005,-0.90000004,x,,,,,
100325,-5.206835,11.407185,-3.1300821,-1.775926,-13.87204,4.9771657,168.3,-110.100006,-3.9,x,,,,,
100346,-4.0649796,9.892089,-1.9565257,-1.98172,-15.96809,6.730226,189.90001,-122.100006,-10.5,x,,,,,
100366,-3.3573766,8.640175,-1.7513626,-1.5244,-16.006199,8.033587,177.90001,-112.50001,-8.1,x,,,,,
100386,-2.334552,8.068351,-1.6891557,-1.280496,-16.494007,8.750056,175.5,-136.5,-9.3,x,,,,,
100406,-1.2854092,7.706474,-1.0862277,-1.501534,-16.631203,8.361334,173.1,-129.3,-12.3,x,,,,,
100426,-0.95284176,6.7847357,-0.8906349,-1.3872039,-15.404061,6.875044,165.90001,-117.3,-8.700001,x,,,,,
100446,-0.99291736,5.6111794,-1.1286958,-0.746956,-14.001614,5.625036,165.90001,-131.70001,-7.5000005,x,,,,,
100466,-0.9187476,4.9484367,-1.1370698,0.060976,-13.018375,5.625036,173.1,-143.70001,-6.9,x,,,,,
100490,-0.6723127,5.879147,-1.7621292,1.318606,-10.739398,6.379614,153.90001,-129.3,-17.1,x,,,,,
100510,-0.45757937,6.8630924,-2.083332,2.2103798,-9.862867,6.204308,153.90001,-148.5,-17.7,x,,,,,
100530,0.111254595,7.9511147,-2.0881171,2.568614,-8.902495,5.663146,149.1,-138.90001,-14.700001,x,,,,,
100550,-0.066992015,8.2442045,-2.3507018,2.36282,-7.042728,3.6890478,144.3,-146.1,-18.300001,x,,,,,
100570,-0.1447506,8.080912,-2.707195,2.530504,-6.128088,3.01069,144.3,-148.5,-18.300001,x,,,,,
100592,-0.49645868,8.063565,-3.93279,3.323192,-5.5183277,2.2256238,137.1,-141.3,-9.900001,x,,,,,
100612,-0.4007558,8.948817,-4.0434465,3.056422,-5.990892,2.51526,134.70001,-150.90001,-17.1,x,,,,,
100632,-0.013757288,8.344692,-4.5949345,4.009172,-4.824726,0.861286,137.1,-150.90001,-14.1,x,,,,,
100652,0.20396675,8.854909,-4.2510023,4.123502,-5.03052,1.577754,139.5,-158.1,-21.900002,x,,,,,
100674,0.35529694,9.149793,-3.9806414,2.881116,-3.8033779,0.83842,137.1,-148.5,-15.900001,x,,,,,
100694,0.20635933,8.830983,-4.0111465,2.2256238,-2.408552,-0.121952,139.5,-150.90001,-18.300001,x,,,,,
100716,-0.09869359,8.111417,-4.2821054,1.928366,-1.1051899,-0.57164997,141.90001,-134.1,-15.3,x,,,,,
100737,-0.04844958,8.273514,-4.442408,2.2713559,-0.655492,0.17530599,146.70001,-148.5,-15.3,x,,,,,
100757,0.2129389,8.671877,-4.489063,2.317088,-0.251526,0.93750596,137.1,-150.90001,-15.3,x,,,,,
100777,0.45698124,8.771767,-4.306031,1.8292799,0.602138,1.532022,144.3,-134.1,-12.900001,x,,,,,
100818,0.70221984,9.591223,-4.20016,0.94512796,1.71495,1.547266,120.3,-146.1,-21.300001,x,,,,,
100839,0.5909653,9.37649,-4.1218033,0.045732,2.141782,0.884152,149.1,-134.1,-14.1,,,,,,
100859,0.38759664,8.998463,-4.0249043,-0.396344,2.080806,0.754578,132.3,-148.5,-14.700001,,,,,,
100882,0.25779963,8.984706,-3.6169705,-0.739334,1.227142,0.792688,134.70001,-148.5,-20.7,,,,,,
100942,0.39896137,8.82859,-2.669512,-0.785066,-0.746956,0.846042,125.100006,-155.70001,-20.1,,,,,,
100965,0.5191881,9.108521,-2.460162,-1.211898,-0.548784,0.891774,125.100006,-153.3,-15.900001,,,,,,
100985,0.4898791,8.927882,-2.5086117,-1.288118,-0.060976,0.221038,125.100006,-148.5,-17.1,,,,,,
101005,0.4288685,8.674868,-2.5959406,-0.983238,0.137196,-0.33536798,115.50001,-150.90001,-15.3,,,,,,
101048,0.39297992,8.997267,-2.8106737,-0.55640596,-0.20579399,-0.137196,122.700005,-138.90001,-17.1,,,,,,
101068,0.47133666,8.833974,-2.970378,-0.67073596,-0.20579399,-0.541162,137.1,-150.90001,-14.700001,,,,,,
101088,0.5066271,8.514565,-3.2867956,-0.365856,-0.26677,-1.173788,115.50001,-150.90001,-15.3,,,,,,
101108,0.4509998,8.417666,-3.4046297,-0.221038,-0.297258,-1.265252,132.3,-158.1,-14.1,,,,,,
101128,0.80749303,8.88661,-3.6576443,-0.16768399,-0.358234,-1.227142,127.50001,-155.70001,-15.3,,,,,,
101148,1.1245087,8.710158,-3.907668,-0.602138,0.41921,-1.935988,125.100006,-141.3,-16.5,,,,,,
101168,0.9139625,8.31,-4.4286504,-0.541162,1.6158639,-2.2103798,127.50001,-153.3,-20.1,,,,,,
101191,0.8110819,8.50978,-4.929296,-0.56402797,1.98172,-1.280496,129.90001,-148.5,-16.5,,,,,,
101211,0.8625222,8.629409,-5.3587627,-0.312502,2.964958,-1.585376,132.3,-138.90001,-16.5,,,,,,
101231,0.5054308,8.229849,-5.435923,0.160062,4.0625257,-2.05794,122.700005,-153.3,-13.500001,x,,,,,
101292,0.22609805,8.40032,-4.0464373,2.7058098,5.663146,-2.97258,129.90001,-141.3,-14.700001,x,,,,,
101312,0.2003779,7.647258,-3.8089745,2.507638,8.521396,-4.504602,141.90001,-136.5,-12.900001,x,,,,,
101332,0.7554546,7.4702077,-3.0816326,2.55337,10.495494,-5.000032,156.3,-148.5,-12.900001,x,,,,,
101353,1.7423905,7.8464394,-2.0988836,0.289636,13.559538,-5.312534,153.90001,-136.5,-12.900001,x,,,,,
101373,1.6251545,7.5958176,-2.4529843,-0.95274997,18.018408,-6.5091877,139.5,-122.100006,-5.1000004,x,,,,,
101393,1.4193933,7.068854,-2.5295467,-2.40093,19.481833,-7.690598,151.5,-134.1,-9.900001,x,,,,,
101414,0.72853816,5.826511,-2.752056,-2.7591639,20.297386,-9.18451,139.5,-126.9,-0.90000004,x,,,,,
101434,-0.25540704,6.1022544,-3.5828764,-1.059458,19.329391,-9.6723175,127.50001,-134.1,2.1000001,x,,,,,
101454,-0.17166704,6.814045,-3.1348674,-0.846042,15.586989,-10.373542,149.1,-119.700005,-2.7,x,,,,,
101476,-0.8134744,7.2393246,-2.6754935,-0.541162,13.971126,-10.510737,153.90001,-114.9,-3.9,x,,,,,
101496,-2.7927296,8.24241,-3.5481842,1.089946,13.2317915,-10.823239,158.70001,-117.3,2.1000001,x,,,,,
101517,-3.65585,11.769061,-3.4423127,0.060976,8.346089,-8.19365,170.70001,-107.700005,-2.1000001,x,,,,,
101537,-3.891518,12.30739,-2.8525438,-1.227142,6.9131536,-7.179924,168.3,-110.100006,-0.3,x,,,,,
101558,-4.952026,13.954078,-3.609793,-1.166166,6.410102,-5.403998,168.3,-107.700005,8.1,x,,,,,
101598,-5.815146,14.358422,-4.1361585,-2.141782,-0.144818,-2.2637339,173.1,-107.700005,6.3,x,,,,,
101618,-7.1561823,13.376271,-5.3186874,-1.18141,-2.7286758,-0.868908,168.3,-112.50001,4.5,x,,,,,
101638,-8.072537,12.491618,-6.5610304,-0.56402797,-7.743952,1.303362,189.90001,-107.700005,6.3,x,,,,,
101662,-5.7050877,12.540068,-4.770788,-1.8292799,-15.343085,4.824726,173.1,-114.9,-0.3,x,,,,,
101683,-3.823928,11.6135435,-2.933293,-3.109776,-16.257725,6.905532,180.3,-105.3,2.1000001,x,,,,,
101703,-3.1414468,9.71444,-2.8926194,-3.346058,-15.297354,7.5915117,177.90001,-117.3,-3.3000002,x,,,,,
101725,-2.4458065,8.116202,-2.6557548,-2.7667859,-15.716563,8.239382,170.70001,-114.9,-3.3000002,x,,,,,
101745,-1.7507645,7.3864675,-2.2113345,-2.385686,-16.204372,8.948228,151.5,-114.9,-9.900001,x,,,,,
101765,-1.7687088,6.408504,-1.6466876,-1.547266,-16.295835,8.6204815,180.3,-122.100006,-12.3,x,,,,,
101786,-0.790745,6.7925115,-1.2919888,-1.3567159,-16.173883,8.23176,153.90001,-129.3,-10.5,x,,,,,
101806,-0.66992015,6.3187823,-1.2734464,-0.72409,-14.420824,6.70736,168.3,-134.1,-16.5,x,,,,,
101826,-1.0072727,5.798398,-1.9888253,0.68597996,-12.987887,5.541194,158.70001,-134.1,-10.5,x,,,,,
101847,-0.3259879,7.2112117,-1.9517405,1.41007,-12.667764,5.975648,168.3,-134.1,-25.500002,x,,,,,
101867,0.31402507,8.50978,-1.5886678,0.594516,-11.1586075,5.0228977,146.70001,-138.90001,-13.500001,x,,,,,
101927,-0.09570287,7.589836,-2.685662,1.79117,-6.227174,1.6158639,163.5,-136.5,-25.500002,x,,,,,
101981,0.039477438,8.663503,-3.4076204,2.6829438,-4.100636,-0.137196,137.1,-148.5,-15.3,x,,,,,
102021,-0.38340965,8.208316,-4.091896,2.347576,-1.6539739,-0.960372,156.3,-146.1,-11.700001,x,,,,,
102041,-0.32479164,8.2011385,-4.216908,2.55337,-1.173788,-0.80030996,153.90001,-146.1,-21.300001,x,,,,,
102083,-0.19499461,8.555239,-4.4747076,2.865872,0.23628199,0.106708,156.3,-143.70001,-23.7,x,,,,,
102105,0.14116174,8.917115,-4.178627,3.3079479,1.089946,0.327746,153.90001,-134.1,-17.7,,,,,,
102145,-0.5317491,9.165345,-4.8718743,2.576236,2.073184,0.358234,153.90001,-155.70001,-16.5,,,,,,
102167,-0.46535522,9.816723,-4.914343,2.492394,1.3643379,0.388722,151.5,-143.70001,-8.1,,,,,,
102187,-0.36845607,9.58883,-4.8640985,1.326228,1.013726,-0.083841994,141.90001,-143.70001,-10.5,,,,,,
102207,-0.1531246,9.374695,-4.5698123,0.830798,0.70122397,-0.11432999,153.90001,-134.1,-11.1,,,,,,
102228,0.14235802,8.99607,-4.0978775,-0.160062,0.82317597,0.083841994,144.3,-126.9,-12.900001,,,,,,
102248,0.3229972,9.005042,-3.8203392,-1.044214,1.48629,0.320124,144.3,-126.9,-15.3,,,,,,
102269,0.3062492,8.881227,-3.7210474,-1.204276,1.48629,0.289636,151.5,-136.5,-17.1,,,,,,
102289,0.4204945,9.017005,-3.5021272,-1.059458,1.173788,0.28201398,141.90001,-146.1,-16.5,,,,,,
102309,0.47253296,9.13125,-3.2317665,-0.80793196,0.785066,0.045732,149.1,-134.1,-9.900001,,,,,,
102329,0.40494278,8.735878,-2.8884325,-0.716468,0.480186,-0.198172,149.1,-143.70001,-8.700001,,,,,,
102353,0.23327576,8.784925,-2.9590132,-0.28201398,0.594516,0.320124,163.5,-148.5,-6.3,,,,,,
102374,0.06340315,8.84474,-3.1235025,-0.091464,0.617382,1.06708,146.70001,-150.90001,-10.5,,,,,,
102434,0.2685662,9.341797,-3.5655303,0.541162,0.053354,1.097568,141.90001,-143.70001,-6.3,,,,,,
102454,0.19678904,9.272412,-3.4632478,1.250008,-0.41158798,1.501534,132.3,-136.5,-14.1,,,,,,
102478,-0.09211402,9.212598,-3.4710236,1.48629,-0.69360197,1.3795819,132.3,-138.90001,-3.9,,,,,,
102498,-0.18542433,9.340601,-3.5320342,1.516778,-0.81555396,1.189032,137.1,-141.3,-10.5,,,,,,
102519,-0.5867783,8.469107,-3.5774932,0.983238,-0.67835796,0.373478,137.1,-148.5,-8.700001,,,,,,
102539,-1.033591,7.950516,-3.736001,1.006104,-0.503052,0.67073596,141.90001,-134.1,-14.1,,,,,,
102560,-1.1938933,8.402114,-3.928005,1.013726,-0.373478,0.975616,139.5,-143.70001,-13.500001,,,,,,
102581,-1.4678428,8.180801,-3.962099,0.30488,-0.213416,0.198172,125.100006,-131.70001,-13.500001,,,,,,
102643,-1.3571864,8.4601345,-3.6696072,-0.579272,0.17530599,-1.02897,139.5,-146.1,-11.700001,,,,,,
102877,0.04605701,8.926087,-3.4231722,-1.29574,1.6463519,-2.13416,151.5,-138.90001,-11.1,,,,,,
102977,-0.28710863,8.89618,-3.8598166,0.243904,0.3811,-0.853664,158.70001,-146.1,-11.700001,,,,,,
103017,-0.7644267,7.4905443,-3.7677026,0.030488,-0.060976,-0.34298998,139.5,-141.3,-12.3,,,,,,
103041,-0.19499461,8.502603,-3.5404081,0.221038,-0.312502,1.3490939,144.3,-136.5,-9.900001,,,,,,
103062,0.11424531,8.688624,-3.7641137,-0.358234,-0.007622,1.417692,153.90001,-138.90001,-15.3,,,,,,
103102,0.573021,8.66111,-3.9734638,-0.632626,-0.26677,0.907018,144.3,-143.70001,-16.5,x,,,,,
103145,1.0036839,8.5037985,-4.304835,-1.539644,0.365856,-0.28201398,137.1,-136.5,-11.700001,x,,,,,
103185,0.2936882,7.1693416,-6.4204664,-0.57164997,2.957336,-1.5244,137.1,-148.5,-15.900001,x,,,,,
103239,1.9840403,10.211496,-7.927787,0.777444,2.942092,-1.3567159,127.50001,-138.90001,-12.900001,x,,,,,
103278,1.271652,8.160464,-5.6087866,-0.060976,4.580822,-4.870458,156.3,-122.100006,-11.700001,x,,,,,
103298,0.874485,7.154388,-4.2031507,-0.663114,5.495462,-6.905532,141.90001,-141.3,-8.700001,x,,,,,
103338,1.0910128,4.0685687,-1.9529368,-1.227142,10.59458,-7.400962,149.1,-119.700005,-9.900001,x,,,,,
103361,0.09211402,4.8383784,-1.49775,-1.9131219,15.838515,-7.0655937,170.70001,-124.50001,-9.900001,x,,,,,
103381,0.2338739,5.7254243,-2.1503239,-2.126538,19.641893,-8.003099,165.90001,-126.9,-9.3,x,,,,,
103403,-0.67171454,7.6155562,-1.7579422,-2.7667859,21.600748,-8.262248,161.1,-117.3,-5.7000003,x,,,,,
103423,-3.447098,6.8702703,-3.740786,-3.079288,25.503212,-11.791234,168.3,-114.9,-9.900001,x,,,,,
103443,-2.7048025,7.326055,-4.1810193,-2.2332458,19.901041,-10.998546,161.1,-112.50001,0.3,x,,,,,
103467,-3.8227317,7.183697,-1.5970417,-1.33385,16.829376,-10.968058,161.1,-100.50001,0.3,x,,,,,
103487,-4.438221,10.127757,-3.1181192,-0.81555396,15.647965,-8.780544,173.1,-114.9,-3.9,x,,,,,
103507,-5.715854,11.032149,-3.6163723,-1.166166,12.256176,-8.399444,177.90001,-102.9,5.1000004,x,,,,,
103527,-6.354671,12.1106,-3.9961932,-0.81555396,8.033587,-7.149436,180.3,-105.3,3.3000002,x,,,,,
103548,-6.517964,13.120266,-4.2193007,-0.92226195,3.460388,-4.847592,158.70001,-105.3,2.1000001,x,,,,,
103569,-6.2404256,13.940918,-3.4799957,-2.050318,-0.899396,-2.2942219,175.5,-90.9,1.5,x,,,,,
103590,-6.885224,13.995948,-3.5822783,-2.042696,-3.498498,-0.625004,185.1,-90.9,-2.1000001,x,,,,,
103610,-7.2734184,14.23341,-4.0697646,-1.8369019,-7.3933396,1.29574,182.70001,-100.50001,2.1000001,x,,,,,
103630,-6.5077953,13.623304,-3.1414468,-2.370442,-11.50922,3.2927039,189.90001,-100.50001,3.3000002,x,,,,,
103651,-6.3821855,12.3151655,-3.209037,-2.2332458,-12.91929,5.5183277,189.90001,-107.700005,-3.9,x,,,,,
103672,-5.2780137,11.343781,-3.2903845,-2.2027578,-15.213511,7.987856,175.5,-90.9,-2.1000001,x,,,,,
103692,-4.2348523,10.475278,-2.488873,-1.75306,-16.875107,9.283596,185.1,-112.50001,-2.1000001,x,,,,,
103712,-3.3747227,9.368115,-2.6216607,-1.303362,-16.516874,9.588476,173.1,-112.50001,-11.700001,x,,,,,
103732,-2.920732,7.8099527,-3.05352,-0.602138,-16.486385,9.664696,170.70001,-134.1,-4.5,x,,,,,
103752,-1.9505442,7.588042,-2.6641288,0.30488,-17.401026,10.358297,173.1,-124.50001,-7.5000005,x,,,,,
103772,-0.93071043,7.6532393,-2.142548,0.480186,-15.89187,9.786648,165.90001,-129.3,-13.500001,x,,,,,
103793,-0.6591536,7.4373097,-2.2573917,0.35061198,-15.457416,9.657074,156.3,-131.70001,-12.900001,x,,,,,
103813,-0.2548089,7.3774953,-1.7316239,0.099086,-14.237896,8.46042,158.70001,-141.3,-20.1,x,,,,,
103833,-0.28830492,6.1351523,-1.719661,0.434454,-11.615928,6.4482117,153.90001,-141.3,-9.900001,x,,,,,
103853,-0.19140574,6.2153034,-2.2191105,1.4024479,-10.129638,5.990892,139.5,-143.70001,-16.5,x,,,,,
103875,0.49944937,7.5330124,-2.2735415,1.6158639,-8.11743,4.702774,153.90001,-141.3,-15.3,x,,,,,
103896,0.22609805,6.8846254,-2.7173636,1.227142,-6.051868,2.416174,141.90001,-134.1,-12.900001,x,,,,,
103916,0.48569208,6.4976273,-2.9380782,1.996964,-5.061008,1.8597679,139.5,-148.5,-18.900002,x,,,,,
103936,0.640013,7.133453,-3.4626496,2.7896519,-3.8109999,2.332332,129.90001,-138.90001,-22.5,x,,,,,
103956,0.41570938,7.4187675,-4.5165777,2.7972739,-1.94361,2.149404,144.3,-155.70001,-17.7,x,,,,,
103979,0.815867,8.237625,-4.669702,3.7805119,-2.843006,3.2698379,139.5,-153.3,-12.3,x,,,,,
103999,1.6688188,9.304114,-3.8221335,2.6829438,-2.7210538,2.926848,120.3,-146.1,-14.1,x,,,,,
104019,1.4702355,8.811244,-3.5906522,1.6311079,-0.53354,0.92226195,129.90001,-150.90001,-15.900001,,,,,,
104041,1.0210301,8.829188,-3.9250143,1.760682,1.013726,-0.091464,153.90001,-146.1,-16.5,,,,,,
104061,0.4498035,8.565408,-4.455567,1.6234859,1.8750119,-1.006104,134.70001,-153.3,-18.900002,,,,,,
104083,0.33196935,8.478677,-4.9986806,2.347576,1.3719599,-0.30488,125.100006,-138.90001,-12.900001,,,,,,
104103,0.40494278,9.18927,-4.7743773,1.98172,0.92226195,0.221038,137.1,-138.90001,-12.900001,,,,,,
104125,0.44920537,9.62113,-4.7845454,1.6082419,1.25763,-0.144818,132.3,-148.5,-18.300001,,,,,,
104145,0.1531246,9.338806,-4.749255,0.87653,1.722572,-1.02897,125.100006,-148.5,-9.900001,,,,,,
104165,-0.10228245,8.966762,-4.5452886,0.426832,1.8750119,-1.242386,127.50001,-143.70001,-15.3,,,,,,
104185,-0.31522134,8.750832,-4.3867807,-0.099086,1.974098,-0.884152,146.70001,-148.5,-16.5,,,,,,
104205,-0.42109266,8.573781,-4.228871,-0.373478,1.6387299,-0.33536798,146.70001,-148.5,-9.900001,,,,,,
104245,-0.025122005,8.527724,-3.467435,-0.396344,0.53354,0.26677,146.70001,-138.90001,-14.700001,,,,,,
104265,-0.08194559,8.427237,-3.443509,-0.46494198,0.56402797,0.17530599,127.50001,-146.1,-21.900002,,,,,,
104285,-0.18602246,8.350674,-3.5134919,-0.23628199,0.251526,0.11432999,122.700005,-146.1,-14.1,,,,,,
104307,0.09031959,8.403909,-3.3017492,0.221038,-0.297258,0.259148,132.3,-143.70001,-15.900001,,,,,,
104328,0.37383935,8.545071,-3.1516154,0.47256398,-0.388722,0.45731997,127.50001,-143.70001,-12.900001,,,,,,
104349,-0.09630102,8.067753,-3.5828764,0.388722,-0.060976,0.365856,132.3,-136.5,-12.3,,,,,,
104369,-0.16448931,8.480471,-3.782058,0.91463995,-1.021348,1.196654,139.5,-138.90001,-15.3,,,,,,
104389,0.8272317,9.320862,-3.2233925,0.64787,-1.920744,1.158544,132.3,-150.90001,-16.5,,,,,,
104409,0.49586052,8.765187,-3.0553143,-0.121952,-1.059458,0.41921,120.3,-143.70001,-9.900001,,,,,,
104429,0.32419348,9.137232,-3.6187649,0.442076,-0.53354,-0.106708,144.3,-138.90001,-9.900001,,,,,,
104449,0.16269489,8.7627945,-3.840676,0.47256398,-0.55640596,-0.45731997,129.90001,-146.1,-11.1,,,,,,
104469,0.45698124,9.431519,-3.915444,0.487808,-0.67835796,-0.3811,129.90001,-146.1,-17.7,,,,,,
104489,0.42946666,8.808851,-4.0679703,-0.548784,-0.289636,-0.94512796,127.50001,-146.1,-15.900001,,,,,,
104509,0.3397452,8.576174,-4.337733,-1.021348,0.198172,-0.853664,137.1,-150.90001,-13.500001,,,,,,
104529,0.54789895,8.890797,-5.0555043,-1.234764,1.196654,-1.425314,122.700005,-131.70001,-12.900001,,,,,,
104552,0.36845607,8.622231,-6.6692944,-0.41158798,2.43904,-1.8826339,134.70001,-141.3,-14.700001,,,,,,
104572,0.54072124,8.019901,-6.705781,-0.525918,0.884152,-2.126538,134.70001,-129.3,-14.700001,,,,,,
104592,1.1245087,8.354861,-6.6112742,-1.06708,1.532022,-1.074702,129.90001,-150.90001,-14.700001,,,,,,
104612,1.1657807,8.063565,-6.857111,-1.227142,3.643316,-1.463424,134.70001,-143.70001,-8.700001,x,,,,,
104636,1.154416,7.5784717,-6.709968,-0.327746,4.253076,-1.5929979,129.90001,-136.5,-9.900001,x,,,,,
104656,1.7645217,8.251981,-5.4197736,0.053354,4.596066,-1.6311079,144.3,-143.70001,-8.700001,x,,,,,
104721,2.1981754,6.9432435,-3.2204018,-1.3719599,13.22417,-7.16468,137.1,-131.70001,-8.700001,x,,,,,
104741,1.6478839,4.6212525,-3.5505767,-2.2713559,16.189127,-11.16623,151.5,-136.5,-2.7,x,,,,,
104761,1.1269014,3.8275168,-2.9362838,-2.035074,16.006199,-11.402512,156.3,-141.3,-9.3,x,,,,,
104781,0.31282878,4.55127,-1.8985058,-2.812518,16.7684,-11.539708,163.5,-138.90001,-8.1,x,,,,,
104802,-1.0676852,4.2952647,-2.5851738,-2.446662,18.506216,-12.743983,156.3,-117.3,-8.700001,x,,,,,
104822,-2.0145454,5.484971,-2.4571714,-2.2865999,16.455898,-11.829344,153.90001,-122.100006,-0.90000004,x,,,,,
104842,-2.8226366,7.7872233,-1.991816,-2.7210538,14.931498,-10.228724,163.5,-117.3,0.90000004,x,,,,,
104862,-2.8680956,10.4148655,-2.7562428,-2.89636,15.160157,-9.7028055,168.3,-124.50001,-8.1,x,,,,,
104884,-2.5439022,12.322344,-2.4446104,-3.3003259,13.811064,-9.847624,153.90001,-110.100006,-1.5,x,,,,,
104904,-4.3359385,12.371989,-2.5217707,-2.43904,14.184542,-10.388785,182.70001,-105.3,9.900001,x,,,,,
104947,-7.367925,14.017481,-4.1002703,-1.478668,6.714982,-6.547298,185.1,-83.700005,0.3,x,,,,,
104967,-8.434414,12.729679,-3.853835,-0.69360197,1.661596,-4.9771657,187.5,-105.3,6.3,x,,,,,
104987,-8.47748,14.695176,-4.8503413,0.548784,-5.9985137,1.707328,187.5,-95.700005,3.3000002,x,,,,,
105008,-6.894794,14.409265,-3.7724876,-0.56402797,-10.830862,3.8186219,187.5,-98.100006,0.3,x,,,,,
105028,-6.324764,13.193239,-3.2317665,-0.777444,-12.111358,5.556438,187.5,-100.50001,0.3,x,,,,,
105070,-5.339024,9.838256,-2.9614058,-1.67684,-15.32022,9.1768875,177.90001,-110.100006,-8.1,x,,,,,
105090,-4.3239756,8.392544,-2.7646167,-1.25763,-16.402544,10.2897,177.90001,-112.50001,0.90000004,x,,,,,
105110,-3.061894,7.9373574,-2.5074153,-0.754578,-17.07328,11.24245,185.1,-117.3,-6.9,x,,,,,
105133,-1.9804513,8.116202,-2.0528266,-0.792688,-16.737911,11.0519,175.5,-134.1,-6.3,x,,,,,
105153,-1.2124358,7.976835,-1.873982,-1.48629,-14.32936,8.57475,175.5,-126.9,-12.3,x,,,,,
105173,-1.1454438,8.189176,-1.8482618,-1.669218,-13.353744,7.682976,168.3,-138.90001,-18.300001,x,,,,,
105193,-1.6622393,7.664604,-2.62824,-2.454284,-10.846106,5.5793037,163.5,-129.3,-11.1,x,,,,,
105237,-1.3500087,6.559834,-2.8262255,-0.983238,-10.144882,4.9466777,146.70001,-138.90001,-15.900001,x,,,,,
105257,-0.861924,6.9833193,-2.6330254,0.70122397,-10.44214,4.45887,158.70001,-143.70001,-18.900002,x,,,,,
105317,0.90558845,7.4193654,-3.222196,2.835384,-6.5854077,2.431418,158.70001,-134.1,-20.7,x,,,,,
105338,0.861924,7.0987606,-3.7539454,2.560992,-4.580822,1.425314,146.70001,-141.3,-23.7,x,,,,,
105358,0.79792273,7.408599,-3.8185446,3.3079479,-4.0777698,2.103672,141.90001,-153.3,-16.5,x,,,,,
105378,0.94087887,8.472695,-3.4357333,3.140264,-3.376546,2.157026,144.3,-141.3,-21.300001,x,,,,,
105399,0.9271216,8.964967,-3.757534,2.431418,-1.554888,0.846042,129.90001,-150.90001,-17.1,,,,,,
105419,0.640013,8.82859,-4.208534,2.2789779,-0.46494198,-0.449698,137.1,-143.70001,-15.900001,,,,,,
105439,0.55507666,8.311196,-4.154701,2.157026,-0.221038,-0.49543,161.1,-141.3,-23.1,,,,,,
105459,0.7847636,8.5037985,-4.2510023,1.8673899,0.144818,0.106708,151.5,-138.90001,-20.7,,,,,,
105479,0.99889874,9.256263,-4.2109265,2.050318,0.40396598,0.449698,134.70001,-150.90001,-15.3,,,,,,
105499,0.93370116,9.456042,-4.099074,1.669218,0.7622,-0.15244,141.90001,-148.5,-16.5,,,,,,
105519,0.6053207,8.971546,-4.0105486,1.303362,1.189032,-0.67835796,141.90001,-138.90001,-18.900002,,,,,,
105542,0.31522134,8.970948,-3.9806414,1.478668,1.471046,-0.861286,149.1,-143.70001,-18.900002,,,,,,
105565,-0.18602246,9.457837,-4.045241,1.554888,1.6539739,-0.80030996,144.3,-141.3,-9.3,,,,,,
105585,-0.26079035,9.545764,-3.8628073,0.93750596,1.48629,-1.006104,132.3,-146.1,-17.1,,,,,,
105605,-0.5120104,9.020595,-3.6911402,-0.11432999,1.8673899,-1.1051899,139.5,-138.90001,-16.5,,,,,,
105627,-0.7309307,8.75442,-3.701907,-0.594516,2.004586,-0.884152,139.5,-141.3,-10.5,,,,,,
105647,-0.8062967,8.478677,-3.6839626,-0.7622,1.6387299,-0.449698,144.3,-136.5,-15.900001,,,,,,
105667,-0.70221984,8.54208,-3.5745025,-0.388722,0.830798,0.053354,137.1,-146.1,-17.1,,,,,,
105729,-0.10228245,8.883021,-2.7891407,-0.19055,0.030488,0.47256398,132.3,-134.1,-8.700001,,,,,,
105749,-0.4258778,8.576772,-3.2269814,-0.182928,0.34298998,-0.007622,137.1,-150.90001,-14.700001,,,,,,
105769,-0.3493155,8.95121,-3.3041418,0.602138,-0.327746,0.060976,134.70001,-136.5,-18.900002,,,,,,
105789,-0.29129562,9.055884,-3.2867956,0.45731997,-0.327746,-0.053354,141.90001,-138.90001,-12.3,,,,,,
105811,-0.4216908,8.89618,-3.4883697,0.11432999,-0.23628199,-0.373478,137.1,-146.1,-14.700001,,,,,,
105832,-0.39896137,8.894386,-3.5673246,0.251526,-0.320124,-0.274392,137.1,-141.3,-17.1,,,,,,
105852,-0.38101706,8.778346,-3.6498685,0.34298998,-0.40396598,-0.312502,137.1,-143.70001,-11.700001,,,,,,
105872,-0.24105161,8.737075,-3.59783,0.57164997,-0.373478,-0.160062,153.90001,-141.3,-15.3,,,,,,
105892,-0.1614986,8.607876,-3.610989,0.426832,-0.17530599,-0.160062,153.90001,-138.90001,-9.900001,,,,,,
105912,0.033496007,8.549257,-3.6510646,0.198172,0.297258,-0.091464,139.5,-129.3,-16.5,,,,,,
105932,0.11603974,8.980518,-4.15829,-0.22865999,0.769822,-0.297258,146.70001,-136.5,-15.900001,,,,,,
105952,0.11005831,8.079117,-4.3191905,-0.579272,1.082324,-0.55640596,144.3,-136.5,-9.3,x,,,,,
105972,0.631639,8.8579,-4.688843,-0.373478,1.265252,-0.106708,153.90001,-146.1,-8.700001,x,,,,,
105992,0.593956,8.274112,-4.919726,-0.93750596,2.309466,-0.983238,141.90001,-143.70001,-17.7,x,,,,,
106015,0.631639,8.496023,-5.263658,-0.907018,2.919226,-0.67073596,139.5,-136.5,-18.900002,x,,,,,
106036,0.21234076,8.257363,-5.7960052,-0.899396,4.4817357,-1.150922,146.70001,-148.5,-16.5,x,,,,,
106057,0.96420646,9.101942,-6.6220407,0.853664,5.708878,-0.518296,153.90001,-138.90001,-9.3,x,,,,,
106077,1.531246,9.033155,-5.510093,1.8750119,6.410102,-2.85825,132.3,-131.70001,-16.5,x,,,,,
106097,1.7441849,8.638979,-5.2786117,1.974098,7.6372437,-3.574718,141.90001,-138.90001,-17.7,x,,,,,
106118,2.1563053,8.117398,-4.5387087,1.6234859,9.9086,-4.626554,144.3,-138.90001,-6.9,x,,,,,
106138,2.2065494,7.72382,-3.7072902,0.03811,12.934534,-5.800342,139.5,-129.3,-5.1000004,x,,,,,
106158,2.0695746,6.998871,-3.4219759,-1.806414,16.46352,-7.5762677,141.90001,-129.3,-5.1000004,x,,,,,
106178,1.4582726,5.8719697,-3.5451934,-2.7439198,19.199818,-9.253108,161.1,-134.1,-4.5,x,,,,,
106198,0.2715569,4.584766,-3.4189851,-1.806414,20.152567,-11.105254,153.90001,-117.3,-6.3,x,,,,,
106218,0.18183546,4.431641,-3.2072427,-1.3490939,20.061104,-11.478732,153.90001,-124.50001,-11.700001,x,,,,,
106238,-0.58558196,4.7384887,-3.1767373,-0.503052,20.297386,-11.577818,168.3,-117.3,1.5,x,,,,,
106259,-1.5467978,5.866586,-3.5296416,-0.34298998,20.137323,-11.562573,163.5,-124.50001,2.7,x,,,,,
106279,-1.7358109,7.1149106,-3.2156167,-0.480186,18.452862,-11.029034,165.90001,-112.50001,2.1000001,x,,,,,
106299,-2.6252494,7.3559623,-2.552874,-0.80793196,18.765364,-11.448244,156.3,-105.3,-0.3,x,,,,,
106321,-5.735593,10.449557,-3.9058735,-0.426832,19.146463,-8.811031,149.1,-88.5,7.5000005,x,,,,,
106341,-6.6878366,12.182378,-5.5035133,-0.40396598,16.81413,-7.5305357,168.3,-98.100006,2.1000001,x,,,,,
106404,-6.5400953,14.455919,-5.5023174,-2.987824,0.853664,-0.777444,153.90001,-93.3,8.1,x,,,,,
106426,-6.471907,14.174194,-5.380296,-3.2012398,-4.9161897,0.015244,175.5,-95.700005,9.900001,x,,,,,
106447,-6.5987134,13.766859,-5.585459,-2.835384,-8.993959,1.1432999,156.3,-86.100006,6.3,x,,,,,
106470,-5.6488624,12.334306,-5.0148306,-2.7591639,-15.35833,3.940574,168.3,-100.50001,10.5,x,,,,,
106491,-5.089,11.146395,-4.4992313,-3.2850819,-17.286695,5.914672,168.3,-102.9,3.9,x,,,,,
106511,-4.6463747,8.931471,-4.1056533,-3.574718,-19.428478,7.370474,175.5,-112.50001,0.3,x,,,,,
106531,-3.5362213,7.434319,-3.1839151,-3.605206,-21.623613,9.192132,158.70001,-110.100006,-4.5,x,,,,,
106551,-2.4990413,6.6537423,-2.497845,-2.93447,-22.256239,10.25159,173.1,-122.100006,-5.1000004,x,,,,,
106571,-1.8129714,6.166854,-1.9278148,-2.065562,-22.500143,10.1982355,165.90001,-126.9,-7.5000005,x,,,,,
106591,-1.3727381,6.145321,-1.489376,-1.036592,-21.60837,10.06104,156.3,-126.9,-8.1,x,,,,,
106615,-0.836802,6.162069,-1.5246664,-0.503052,-20.08397,9.573232,170.70001,-122.100006,-12.3,x,,,,,
106636,-0.38879293,6.9390564,-1.4792075,0.47256398,-18.55957,9.497012,161.1,-138.90001,-13.500001,x,,,,,
106656,0.044860724,8.025284,-1.7322221,1.1356779,-16.23486,8.57475,151.5,-136.5,-8.1,x,,,,,
106676,0.75784713,8.880031,-1.8721875,1.082324,-14.306494,7.5610237,161.1,-153.3,-15.900001,x,,,,,
106697,0.878672,8.394339,-1.6514727,0.586894,-11.958918,5.4268637,144.3,-141.3,-15.3,x,,,,,
106717,0.77280074,7.5605273,-2.3267763,1.56251,-9.283596,4.30643,129.90001,-150.90001,-19.5,x,,,,,
106737,0.78715616,8.105435,-2.936882,2.530504,-7.675354,4.207344,132.3,-158.1,-10.5,x,,,,,
106760,1.1191255,8.97693,-3.9112568,3.407034,-6.067112,3.16313,139.5,-141.3,-14.700001,x,,,,,
106781,0.83799833,7.998368,-3.853835,3.147886,-5.419242,1.996964,120.3,-153.3,-12.900001,x,,,,,
106801,0.79792273,7.497124,-3.886733,2.7210538,-4.413138,1.5244,132.3,-148.5,-17.7,x,,,,,
106825,0.5030382,6.6328073,-3.970473,2.339954,-2.7744079,0.56402797,129.90001,-150.90001,-17.7,x,,,,,
106845,0.93190676,8.30701,-4.6092896,3.132642,-1.585376,2.01983,127.50001,-146.1,-9.3,x,,,,,
106866,0.8433816,8.259756,-4.5297365,2.942092,-1.051836,1.440558,127.50001,-158.1,-13.500001,,,,,,
106886,0.9313086,8.239419,-5.032775,2.7667859,0.426832,1.211898,120.3,-153.3,-17.1,,,,,,
106906,1.0413669,8.6329975,-4.9209223,3.071666,0.26677,1.768304,139.5,-153.3,-9.3,,,,,,
106927,1.2261931,9.825096,-4.48368,1.471046,1.074702,1.471046,127.50001,-158.1,-15.900001,,,,,,
106948,1.1047701,9.688122,-4.51897,0.739334,1.684462,0.289636,125.100006,-143.70001,-11.700001,,,,,,
106990,0.5030382,8.917713,-4.6296268,0.55640596,1.669218,-0.69360197,120.3,-141.3,-14.1,,,,,,
107010,0.52935654,9.01222,-4.3484993,0.746956,1.189032,-0.28201398,120.3,-150.90001,-10.5,,,,,,
107030,0.4665515,8.972144,-3.8963034,0.17530599,1.051836,-0.099086,113.100006,-148.5,-7.5000005,,,,,,
107050,0.33615634,8.866273,-3.5792875,-0.33536798,1.288118,-0.129574,120.3,-143.70001,-11.1,,,,,,
107070,0.17226517,8.753822,-3.447098,-0.617382,1.539644,-0.182928,129.90001,-143.70001,-13.500001,,,,,,
107110,-0.11424531,8.475686,-3.0379682,-0.57164997,0.503052,0.160062,117.9,-143.70001,-18.300001,,,,,,
107131,0.093908444,8.833974,-2.8435717,-0.640248,0.23628199,0.312502,129.90001,-134.1,-14.1,,,,,,
107151,0.028710863,8.966762,-2.91176,-0.64787,0.274392,-0.053354,125.100006,-162.90001,-11.1,,,,,,
107172,0.019140575,8.531911,-3.0140424,-0.327746,0.160062,-0.182928,129.90001,-155.70001,-6.9,,,,,,
107234,-0.009570288,8.48406,-3.798806,1.021348,-0.541162,0.40396598,117.9,-150.90001,-9.900001,,,,,,
107254,0.32479164,9.235926,-3.5918486,0.853664,-0.891774,0.94512796,113.100006,-153.3,-14.1,,,,,,
107274,0.5377305,9.122876,-3.7162623,0.297258,-0.320124,0.03811,132.3,-153.3,-12.3,,,,,,
107297,0.2338739,8.57438,-3.9489398,-0.19055,0.015244,0.19055,115.50001,-153.3,-18.900002,,,,,,
107317,0.33077306,8.78373,-3.8191428,-0.34298998,-0.365856,0.320124,120.3,-138.90001,-10.5,,,,,,
107337,0.49765494,8.811842,-3.4716218,-0.70122397,-0.602138,0.144818,122.700005,-143.70001,-18.900002,,,,,,
107357,0.45159793,8.569594,-3.459061,-1.158544,-0.518296,-0.373478,129.90001,-141.3,-13.500001,,,,,,
107420,0.7333233,9.582849,-2.8603196,0.129574,-1.5929979,-0.198172,129.90001,-146.1,-12.900001,x,,,,,
107440,0.65496653,9.332227,-3.693533,-1.250008,0.106708,-1.234764,129.90001,-141.3,-11.700001,x,,,,,
107460,0.5317491,8.880629,-4.162477,-0.663114,0.099086,-1.6387299,127.50001,-153.3,-15.3,x,,,,,
107480,0.43305552,8.101847,-4.7761717,-0.792688,0.72409,-1.554888,125.100006,-146.1,-6.3,x,,,,,
107502,0.681883,8.606679,-5.267845,0.030488,0.45731997,-0.487808,125.100006,-146.1,-16.5,x,,,,,
107522,0.87328875,7.9929843,-5.174535,-0.297258,1.051836,-0.899396,122.700005,-148.5,-6.9,x,,,,,
107542,0.86910176,7.512676,-5.702097,-0.007622,3.041178,-0.632626,117.9,-150.90001,-11.700001,x,,,,,
107562,0.8589333,8.053397,-6.5113845,0.57164997,4.53509,-0.708846,122.700005,-148.5,-12.900001,x,,,,,
107606,0.39597064,7.2895684,-5.2110214,0.373478,6.17382,-3.071666,139.5,-148.5,-9.900001,x,,,,,
107626,-0.66214424,6.0262904,-4.983129,0.198172,7.804928,-3.7957559,120.3,-153.3,-8.1,x,,,,,
107646,-0.42228892,6.866681,-4.2270765,0.69360197,7.08846,-3.071666,132.3,-162.90001,-9.3,x,,,,,
107666,1.0880221,7.63051,-2.6120903,-1.082324,8.071698,-4.0015497,134.70001,-150.90001,-12.3,x,,,,,
107726,1.7094926,5.954513,-2.296869,-3.368924,19.89342,-11.135742,141.90001,-131.70001,-5.1000004,x,,,,,
107838,-4.0482316,10.824594,-3.5583525,-2.347576,18.582436,-12.218065,161.1,-107.700005,5.1000004,x,,,,,
107858,-4.6876464,12.134526,-3.4698274,-2.7972739,14.870522,-10.86135,168.3,-105.3,0.90000004,x,,,,,
107898,-6.9217105,14.154455,-3.7886376,-0.93750596,7.027484,-6.318638,180.3,-100.50001,-3.3000002,x,,,,,
107918,-6.857111,14.865049,-3.7461693,-1.1128119,2.111294,-3.7042918,173.1,-105.3,0.3,x,,,,,
107942,-8.119791,14.1945305,-4.8186398,0.46494198,-4.710396,-1.189032,168.3,-98.100006,5.7000003,x,,,,,
107962,-7.9373574,14.123352,-5.0315785,-0.007622,-10.030552,2.583858,175.5,-93.3,7.5000005,x,,,,,
107982,-6.459346,13.688502,-4.0482316,-1.41007,-14.123566,6.28815,177.90001,-112.50001,2.1000001,x,,,,,
108002,-5.3396225,12.505973,-3.476407,-2.2103798,-15.335464,8.856764,170.70001,-95.700005,0.3,x,,,,,
108022,-4.6308227,10.563205,-3.292777,-3.003068,-16.196749,9.992442,182.70001,-114.9,3.3000002,x,,,,,
108042,-3.664224,8.529519,-3.1486247,-2.987824,-17.477245,10.769886,173.1,-124.50001,-3.9,x,,,,,
108062,-2.2651675,7.1310606,-2.7891407,-2.2027578,-18.734875,11.73788,168.3,-124.50001,-13.500001,x,,,,,
108082,-1.0898165,7.1358457,-2.0887153,-1.166166,-19.055,12.484836,170.70001,-124.50001,-12.3,x,,,,,
108102,-0.44621465,7.0754333,-1.7740921,-0.70122397,-17.934566,11.20434,156.3,-131.70001,-12.900001,x,,,,,
108122,-0.0640013,6.2260704,-1.8105788,-0.03811,-16.242481,9.1768875,165.90001,-138.90001,-9.900001,x,,,,,
108142,-0.2601922,5.108739,-2.3213928,1.585376,-15.091559,8.048832,153.90001,-146.1,-18.900002,x,,,,,
108162,0.2715569,6.5077953,-2.5098078,2.964958,-14.740948,8.948228,134.70001,-150.90001,-17.1,x,,,,,
108226,1.1191255,8.214895,-2.6641288,2.042696,-12.27142,5.815586,146.70001,-160.5,-20.1,x,,,,,
108254,1.0617038,7.8416543,-2.5654352,1.21952,-9.931466,4.207344,132.3,-155.70001,-19.5,x,,,,,
108276,0.89900887,7.689128,-2.8375902,1.1128119,-8.262248,3.01069,113.100006,-148.5,-21.900002,x,,,,,
108316,0.799119,8.385366,-3.0032759,1.097568,-5.899428,1.737816,129.90001,-155.70001,-17.7,x,,,,,
108336,0.29727706,7.410991,-3.564334,0.442076,-2.446662,-1.760682,120.3,-158.1,-17.7,x,,,,,
108356,0.12142302,6.5939283,-4.1104383,2.538126,-1.935988,-0.998482,122.700005,-165.3,-20.1,,,,,,
108376,0.42527965,8.772963,-3.59783,2.812518,-2.2865999,0.518296,125.100006,-155.70001,-15.3,,,,,,
108396,0.794932,9.480566,-4.101466,2.416174,-0.160062,-0.632626,129.90001,-150.90001,-18.300001,,,,,,
108416,0.47372922,8.9356575,-4.514185,2.827762,0.548784,-1.684462,137.1,-138.90001,-11.700001,,,,,,
108436,0.18063918,8.585744,-4.8676877,2.957336,0.617382,-1.097568,127.50001,-143.70001,-15.900001,,,,,,
108499,0.22609805,9.481762,-4.6583376,1.280496,0.47256398,-0.81555396,137.1,-138.90001,-16.5,,,,,,
108519,0.4151112,9.475183,-4.2222915,0.442076,1.272874,-1.29574,129.90001,-143.70001,-9.3,,,,,,
108539,0.17226517,8.603688,-3.9423604,-0.579272,2.507638,-1.692084,120.3,-148.5,-17.7,,,,,,
108559,-0.38221335,8.00734,-3.9896135,-0.663114,3.16313,-1.1128119,139.5,-146.1,-17.1,,,,,,
108622,0.07775859,8.756215,-3.1199138,-0.243904,2.141782,-0.297258,117.9,-153.3,-15.900001,,,,,,
108976,0.89900887,8.856703,-3.635513,-0.861286,0.80793196,-0.289636,137.1,-158.1,-6.3,x,,,,,
108997,1.2710538,8.734084,-3.9644916,-1.3948259,1.509156,-1.051836,120.3,-143.70001,-17.7,x,,,,,
109037,0.4551868,7.1029477,-5.983224,0.960372,3.88722,-2.004586,132.3,-148.5,-19.5,x,,,,,
109094,1.8398877,9.07981,-6.369026,0.525918,4.641798,-4.61131,139.5,-153.3,-15.900001,x,,,,,
109156,1.6054157,6.8714666,-2.6916435,-3.879598,12.65252,-6.4939437,141.90001,-131.70001,-11.700001,x,,,,,
109177,2.1299872,6.7877264,-2.0606024,-4.5731997,16.067175,-6.234796,137.1,-141.3,-9.3,x,,,,,
109198,2.0887153,6.5825634,-1.8141676,-5.061008,19.192196,-7.43145,156.3,-136.5,-9.900001,x,,,,,
109218,1.6353229,5.133263,-1.7842605,-5.015276,21.68459,-9.618964,151.5,-138.90001,-5.1000004,x,,,,,
109238,1.0060765,5.2947617,-2.4529843,-3.871976,23.849237,-10.59458,165.90001,-122.100006,-0.3,x,,,,,
109258,-0.085534446,6.1883874,-3.2814124,-3.407034,24.19985,-11.981784,158.70001,-122.100006,-0.3,x,,,,,
109279,-1.6419024,6.5544505,-3.598428,-3.589962,23.132769,-13.170815,161.1,-112.50001,-1.5,x,,,,,
109341,-3.9884174,9.99437,-3.176139,-3.948196,16.021444,-11.35678,177.90001,-122.100006,2.1000001,x,,,,,
109361,-4.8922114,10.559018,-3.1444376,-3.475632,15.122047,-9.6418295,175.5,-110.100006,-6.9,x,,,,,
109383,-5.836081,11.514851,-3.5410063,-2.492394,13.025998,-7.766818,163.5,-102.9,-1.5,x,,,,,
109403,-6.865485,11.939532,-3.7072902,-0.94512796,9.862867,-6.8826656,165.90001,-110.100006,2.1000001,x,,,,,
109423,-8.94762,12.99645,-4.3335457,0.94512796,6.0290017,-5.3354,170.70001,-98.100006,5.7000003,x,,,,,
109444,-9.657019,14.733458,-6.0801234,0.274392,-2.660078,-1.509156,187.5,-100.50001,7.5000005,x,,,,,
109464,-8.723915,12.97731,-4.5117927,-0.99086,-9.199754,1.234764,173.1,-102.9,10.5,x,,,,,
109485,-7.5533495,12.683023,-4.1810193,-1.768304,-11.69977,5.0533857,185.1,-95.700005,2.1000001,x,,,,,
109505,-6.119003,11.551337,-3.5703154,-2.7286758,-14.527532,7.294254,173.1,-100.50001,-0.90000004,x,,,,,
109525,-4.6451783,10.243796,-3.1133342,-3.102154,-16.646448,8.292736,177.90001,-107.700005,-2.1000001,x,,,,,
109586,-1.439132,6.459346,-2.572613,-3.2088618,-21.646479,9.138778,185.1,-122.100006,-9.3,x,,,,,
109607,0.14774132,5.9108486,-1.5886678,-3.2317278,-23.689175,9.740916,180.3,-131.70001,-9.3,x,,,,,
109627,1.1645844,5.8091645,-0.23207948,-3.147886,-23.079416,10.007686,168.3,-114.9,-23.7,x,,,,,
109647,0.47014037,5.074645,-0.05801987,-1.250008,-20.259275,9.237864,163.5,-134.1,-14.1,x,,,,,
109668,1.187912,6.471907,-0.51320666,1.013726,-18.483349,9.992442,158.70001,-134.1,-22.5,x,,,,,
109689,1.6664263,9.056482,-0.29608077,1.775926,-16.608337,9.786648,158.70001,-136.5,-22.5,x,,,,,
109709,1.5115073,9.764086,-0.45399052,1.280496,-13.666245,7.5152917,144.3,-155.70001,-21.300001,x,,,,,
109729,1.1813323,9.091773,-0.78835243,1.288118,-11.105254,5.464974,132.3,-158.1,-20.7,x,,,,,
109753,0.1573116,9.211402,-1.6173786,2.2180018,-8.72719,4.222588,137.1,-143.70001,-23.7,x,,,,,
109816,0.15432088,8.176016,-2.0558174,2.8048959,-6.219552,-0.015244,139.5,-153.3,-24.300001,x,,,,,
109836,0.18422803,8.118594,-2.292682,3.3079479,-4.397894,-0.198172,129.90001,-150.90001,-25.500002,x,,,,,
109856,0.19738717,8.629409,-2.714971,3.536608,-2.89636,-0.40396598,129.90001,-153.3,-21.900002,x,,,,,
109916,0.4605701,9.116895,-3.542801,3.628072,-0.80030996,-0.17530599,122.700005,-160.5,-20.1,x,,,,,
109956,0.074169725,8.820814,-4.320985,3.16313,1.189032,-0.746956,129.90001,-150.90001,-20.1,,,,,,
109994,0.24224791,9.246094,-4.4238653,2.7820299,1.6006199,0.442076,127.50001,-153.3,-14.1,,,,,,
110058,0.14235802,9.515857,-3.7072902,1.021348,1.3795819,0.754578,127.50001,-143.70001,-13.500001,,,,,,
110118,0.20935003,8.674868,-2.9548264,0.45731997,0.846042,-0.053354,139.5,-162.90001,-18.900002,,,,,,
110138,0.35469878,9.223963,-3.062492,0.846042,0.663114,-0.33536798,129.90001,-155.70001,-15.900001,,,,,,
110180,0.14654502,8.691017,-3.1025677,0.70122397,0.891774,-0.53354,137.1,-158.1,-16.5,,,,,,
110440,0.08732887,8.510977,-3.434537,-0.289636,-0.861286,-0.19055,132.3,-146.1,-14.700001,,,,,,
110478,0.31940836,8.858498,-3.4704256,-0.41158798,0.007622,-0.72409,115.50001,-143.70001,-15.3,,,,,,
110498,0.35110992,8.78373,-3.6056058,-0.510674,0.365856,-1.1356779,122.700005,-148.5,-6.9,,,,,,
110538,0.5443101,8.832179,-4.271339,-1.1280559,1.4024479,-2.065562,129.90001,-143.70001,-11.1,x,,,,,
110558,0.44083136,7.505498,-4.9681754,-0.586894,2.469528,-2.7210538,125.100006,-143.70001,-15.900001,x,,,,,
110578,0.916355,8.064762,-4.765405,-0.34298998,1.06708,-0.81555396,141.90001,-143.70001,-20.1,x,,,,,
110599,1.4839927,8.452358,-5.3952494,-0.632626,2.7515419,-1.737816,122.700005,-148.5,-17.1,x,,,,,
110619,1.6472857,8.05579,-5.919223,0.47256398,4.199722,-2.812518,139.5,-141.3,-12.900001,x,,,,,
110661,2.0007882,7.9941807,-5.734995,1.158544,4.9924097,-4.237832,139.5,-153.3,-9.3,x,,,,,
110723,2.00019,7.4498706,-3.4147983,-3.368924,11.1890955,-5.0838737,149.1,-134.1,-11.1,x,,,,,
110743,2.300458,7.957694,-3.0774455,-5.960404,14.542776,-6.1052217,134.70001,-126.9,-8.700001,x,,,,,
110763,1.004282,4.894006,-2.049836,-7.9649897,18.727253,-10.533604,153.90001,-148.5,-8.700001,x,,,,,
110783,-0.6890607,1.8668042,-2.1814275,-5.9070497,22.67545,-10.221102,144.3,-136.5,-10.5,x,,,,,
110806,-0.56464696,7.8135414,-1.8189528,-5.739366,19.634272,-5.884184,161.1,-138.90001,-11.700001,x,,,,,
110827,-3.844863,5.2128158,-2.1371648,-5.25918,20.785194,-10.86135,161.1,-129.3,-8.1,x,,,,,
110847,-3.5152862,7.292559,-1.9846383,-2.2713559,14.847655,-8.224138,151.5,-129.3,-6.9,x,,,,,
110867,-3.1737466,9.634887,0.07775859,-1.089946,12.141846,-7.644866,163.5,-134.1,-2.7,x,,,,,
110887,-4.3622565,10.830575,-1.1556122,0.983238,12.934534,-6.4024796,161.1,-122.100006,-1.5,x,,,,,
110907,-5.7834444,13.844617,-2.2687564,1.577754,10.89946,-3.50612,163.5,-119.700005,-4.5,x,,,,,
110927,-5.7343965,15.200009,-3.9597065,1.3795819,5.693634,-2.59148,161.1,-117.3,-6.3,x,,,,,
110947,-5.1721425,15.4578085,-3.0397625,0.259148,-0.198172,-2.301844,161.1,-119.700005,5.1000004,x,,,,,
110967,-6.446187,15.619905,-4.9484367,1.250008,-1.699706,-0.899396,163.5,-110.100006,0.90000004,x,,,,,
110987,-6.3827834,16.718096,-5.898288,0.297258,-7.5152917,0.068598,170.70001,-124.50001,2.7,x,,,,,
111008,-5.539402,16.135506,-3.8723776,-1.699706,-13.452829,0.358234,175.5,-117.3,-1.5,x,,,,,
111028,-5.455064,13.841028,-2.948845,-2.7210538,-14.314116,1.974098,175.5,-124.50001,-0.3,x,,,,,
111048,-4.8258176,11.72121,-2.1533146,-3.330814,-15.70132,4.024416,189.90001,-122.100006,0.3,x,,,,,
111068,-4.047035,10.265329,-1.1292939,-2.7515419,-16.455898,5.14485,187.5,-124.50001,-14.1,x,,,,,
111088,-3.5571563,9.179102,-1.1711639,-1.8292799,-15.89187,5.167716,182.70001,-129.3,-9.3,x,,,,,
111108,-2.7502613,7.9989657,-1.0479465,-0.861286,-16.81413,4.740884,170.70001,-124.50001,-12.3,x,,,,,
111128,-1.9445628,6.4898515,-0.9145606,0.586894,-16.81413,4.4360037,180.3,-138.90001,-8.1,x,,,,,
111148,-1.5832845,5.6123757,-0.7171734,1.8826339,-16.135773,4.984788,192.3,-124.50001,-20.1,x,,,,,
111168,-1.3195034,5.8091645,-1.0850314,2.637212,-14.184542,6.4177237,170.70001,-138.90001,-13.500001,x,,,,,
111189,-0.7428936,6.314595,-1.4361413,2.2484899,-14.390336,7.682976,170.70001,-136.5,-17.7,x,,,,,
111209,-0.49885124,7.1693416,-0.974973,2.042696,-12.454348,6.5244317,141.90001,-126.9,-18.900002,x,,,,,
111273,-0.092712164,7.137042,-2.2687564,3.399412,-9.1463995,4.748506,165.90001,-138.90001,-21.900002,x,,,,,
111322,0.5664414,9.433911,-3.3202915,3.7652678,-5.94516,3.140264,158.70001,-153.3,-19.5,x,,,,,
111342,-0.12740445,8.255569,-4.451978,3.3155699,-3.2850819,-0.49543,158.70001,-131.70001,-18.900002,x,,,,,
111382,-0.43365365,8.723915,-5.3312483,5.343022,-4.024416,2.621968,146.70001,-155.70001,-23.7,x,,,,,
111405,-0.010766573,9.292151,-5.3611555,3.932952,-1.966476,2.43904,156.3,-160.5,-15.900001,x,,,,,
111425,0.2895012,9.731786,-5.065673,2.881116,-1.051836,1.669218,153.90001,-143.70001,-17.1,x,,,,,
111448,0.14056359,8.812441,-4.990905,1.310984,0.785066,0.22865999,134.70001,-141.3,-18.900002,x,,,,,
111469,0.06878644,8.738869,-5.2534895,1.318606,1.722572,0.449698,129.90001,-150.90001,-12.900001,x,,,,,
111489,0.1447506,9.198242,-4.9681754,1.150922,1.8826339,0.95274997,134.70001,-138.90001,-18.900002,x,,,,,
111554,0.18422803,8.971546,-3.4823885,-0.846042,2.89636,-0.091464,132.3,-146.1,-11.700001,,,,,,
111574,-0.24224791,8.737673,-3.6426907,-0.55640596,3.003068,-0.830798,129.90001,-148.5,-14.700001,,,,,,
111594,-0.18781689,8.472695,-3.4231722,0.015244,2.042696,-0.82317597,127.50001,-148.5,-24.300001,,,,,,
111616,-0.031103434,8.819618,-3.1970742,-0.525918,1.463424,-0.007622,144.3,-150.90001,-13.500001,,,,,,
111636,-0.019738719,8.769374,-3.1312785,-1.02897,1.547266,-0.365856,146.70001,-148.5,-17.1,,,,,,
111656,-0.39716694,8.198148,-3.2832067,-0.785066,1.3567159,-0.7622,134.70001,-155.70001,-18.300001,,,,,,
111676,-0.2171259,8.183194,-3.3842928,-0.49543,0.70122397,-0.297258,129.90001,-136.5,-23.1,,,,,,
111736,-0.0077758585,9.701281,-3.1145306,-1.074702,0.586894,0.0,141.90001,-146.1,-14.700001,,,,,,
111756,-0.30325848,9.300525,-3.3232822,-1.06708,0.548784,-0.785066,132.3,-153.3,-20.7,,,,,,
111776,-0.58558196,8.517556,-3.3190954,-0.579272,0.34298998,-1.1280559,141.90001,-148.5,-11.700001,,,,,,
111796,-0.68367743,8.469705,-3.4500887,0.007622,0.03811,-0.198172,129.90001,-148.5,-16.5,,,,,,
111816,-0.4731311,9.243702,-3.393265,0.121952,-0.297258,0.49543,129.90001,-146.1,-14.1,,,,,,
111836,-0.26677176,9.161158,-3.326273,-0.144818,-0.030488,0.007622,137.1,-141.3,-9.3,,,,,,
111858,-0.18961132,8.83517,-3.368143,-0.121952,0.26677,-0.34298998,127.50001,-148.5,-12.900001,,,,,,
111878,-0.24404234,8.195157,-3.5565581,-0.045732,0.487808,-0.213416,129.90001,-146.1,-14.1,,,,,,
111898,-0.093310304,8.637783,-3.381302,-0.099086,0.15244,0.769822,144.3,-148.5,-17.1,,,,,,
111918,0.105871305,8.699989,-3.3196936,-0.182928,0.198172,0.518296,134.70001,-146.1,-9.900001,,,,,,
111982,0.48329952,9.060072,-3.7671044,-0.19055,0.41158798,0.106708,115.50001,-158.1,-8.700001,,,,,,
112002,0.71478087,8.812441,-3.618167,-0.68597996,0.625004,-0.830798,137.1,-148.5,-14.700001,,,,,,
112022,0.640013,8.489443,-4.196571,-1.227142,1.768304,-1.3643379,117.9,-141.3,-12.900001,,,,,,
112045,0.5508897,8.106631,-5.008251,-0.45731997,2.583858,-1.516778,127.50001,-148.5,-5.7000003,,,,,,
112106,1.2848111,8.44877,-6.383382,0.0,4.443626,-1.089946,146.70001,-146.1,-17.1,x,,,,,
112126,1.1699677,7.7632976,-6.287081,1.189032,4.870458,-2.545748,132.3,-150.90001,-13.500001,x,,,,,
112146,1.3476161,8.036649,-5.600413,1.158544,4.4969797,-2.59148,122.700005,-143.70001,-11.700001,x,,,,,
112166,1.3320644,7.940348,-4.2904797,0.16768399,6.272906,-3.338436,137.1,-141.3,-18.300001,x,,,,,
112189,1.4116174,8.199344,-3.255094,-2.36282,10.914703,-4.786616,153.90001,-131.70001,-16.5,x,,,,,
112209,1.4959556,7.8434486,-2.723943,-3.7728899,14.32936,-6.547298,144.3,-136.5,-14.700001,x,,,,,
112229,1.388888,7.7507367,-2.3375428,-4.504602,16.494007,-8.239382,139.5,-134.1,-8.700001,x,,,,,
112249,1.3332607,6.7500434,-1.1514252,-5.3963757,18.003164,-11.067143,146.70001,-141.3,-8.1,x,,,,,
112269,0.899607,5.0172234,-1.1849213,-4.9314337,21.021475,-13.308012,151.5,-141.3,-8.700001,x,,,,,
112289,0.028710863,4.0308857,-1.5246664,-3.2698379,23.109903,-13.673867,153.90001,-122.100006,-8.700001,x,,,,,
112312,-1.447506,4.6415896,-2.2699525,-1.798792,23.452894,-12.012272,168.3,-117.3,-5.7000003,x,,,,,
112332,-2.7263358,7.0730405,-3.0152388,-1.051836,20.769949,-10.152504,161.1,-119.700005,0.3,x,,,,,
112352,-3.685757,10.4579315,-2.9512374,-1.051836,17.1495,-9.397925,158.70001,-112.50001,-6.9,x,,,,,
112372,-4.761218,12.47487,-1.9601145,-2.2789779,13.742466,-10.609824,170.70001,-122.100006,-2.7,x,,,,,
112395,-5.9927945,10.885604,-2.752056,-1.303362,12.065626,-9.596098,165.90001,-114.9,4.5,x,,,,,
112415,-7.3182793,12.467692,-3.2371497,-0.20579399,9.077802,-5.160094,173.1,-112.50001,-3.9,x,,,,,
112435,-6.659126,14.43319,-3.9010885,-0.129574,3.8109999,-1.463424,173.1,-107.700005,-0.90000004,x,,,,,
112456,-6.3564653,15.776021,-3.7635155,-0.358234,-0.92226195,-0.358234,170.70001,-107.700005,3.9,x,,,,,
112476,-7.359551,14.83574,-4.4830813,-0.243904,-5.205826,-0.259148,173.1,-107.700005,1.5,x,,,,,
112519,-5.6016088,13.024563,-2.70241,-1.204276,-16.829376,4.53509,168.3,-114.9,-5.7000003,x,,,,,
112539,-4.681067,11.36053,-2.208942,-1.3643379,-15.983334,6.806446,182.70001,-102.9,1.5,x,,,,,
112560,-4.4914556,9.258057,-2.8106737,-0.907018,-14.984852,8.010722,182.70001,-112.50001,-8.1,x,,,,,
112580,-3.422574,8.447573,-3.280216,-0.144818,-16.189127,9.900978,180.3,-112.50001,-9.3,x,,,,,
112621,-1.2555021,6.9432435,-2.438629,0.15244,-18.82634,11.554952,173.1,-122.100006,-6.9,x,,,,,
112645,-0.5377305,7.406206,-2.0324898,0.46494198,-18.071762,10.815618,175.5,-138.90001,-14.1,x,,,,,
112665,-0.24942562,7.099359,-1.3697474,0.106708,-17.141878,9.085423,158.70001,-129.3,-9.3,x,,,,,
112705,-0.82184845,5.618955,-2.1622868,0.632626,-12.416238,4.8857017,144.3,-141.3,-21.900002,x,,,,,
112767,0.4300648,7.254876,-1.8506544,1.661596,-8.887252,3.35368,129.90001,-138.90001,-21.900002,x,,,,,
112817,0.7757914,8.10723,-3.5254548,2.949714,-4.794238,0.960372,134.70001,-155.70001,-22.5,x,,,,,
112837,1.2650723,9.455444,-3.7497582,4.009172,-4.9161897,1.539644,144.3,-155.70001,-17.7,x,,,,,
112877,0.5778061,8.262747,-3.8939106,1.775926,-1.455802,-1.432936,139.5,-138.90001,-12.3,x,,,,,
112954,0.5514878,8.76399,-4.747461,2.05794,0.007622,-0.830798,144.3,-138.90001,-17.7,,,,,,
113060,0.5048327,9.451856,-3.6414945,0.198172,2.36282,-0.068598,134.70001,-143.70001,-12.3,,,,,,
113080,0.28232348,9.509875,-3.4692292,0.49543,2.088428,0.007622,139.5,-143.70001,-18.300001,,,,,,
113100,0.19798532,9.345386,-3.2389443,0.442076,1.71495,0.16768399,139.5,-143.70001,-20.7,,,,,,
113120,0.07716044,9.60797,-3.0248091,0.3811,1.471046,0.548784,129.90001,-143.70001,-9.3,,,,,,
113140,-0.15073203,9.528418,-3.0989788,0.23628199,1.692084,0.259148,137.1,-146.1,-16.5,,,,,,
113163,-0.62326497,9.209009,-3.229374,0.213416,1.211898,-0.03811,141.90001,-138.90001,-12.900001,,,,,,
113183,-1.1532197,8.630007,-3.3149083,0.28201398,0.625004,-0.099086,139.5,-134.1,-12.900001,,,,,,
113246,-1.7980177,7.0443296,-3.0110517,0.69360197,-1.3414719,0.106708,139.5,-146.1,-14.1,,,,,,
113266,-1.9026928,7.527031,-3.1767373,0.56402797,-1.097568,1.41007,134.70001,-148.5,-11.700001,,,,,,
113286,-1.8123732,8.553445,-3.3944614,0.69360197,-1.250008,1.25763,144.3,-150.90001,-5.7000003,,,,,,
113306,-1.4959556,8.459536,-3.14683,0.518296,-1.3872039,0.49543,153.90001,-146.1,-12.900001,,,,,,
113326,-1.7118852,8.443984,-3.309525,0.045732,-0.739334,0.068598,151.5,-148.5,-18.300001,,,,,,
113346,-1.8685987,8.166446,-3.463846,0.15244,-0.41921,-0.480186,141.90001,-141.3,-12.900001,,,,,,
113366,-1.9296092,8.5360985,-3.438724,0.053354,-0.274392,-0.45731997,139.5,-148.5,-10.5,,,,,,
113386,-2.0259101,8.576772,-3.3729281,-0.53354,0.07622,-0.47256398,149.1,-141.3,-10.5,,,,,,
113406,-1.9977975,8.409292,-3.3824985,-0.967994,0.95274997,-0.388722,139.5,-150.90001,-15.900001,,,,,,
113430,-1.3817103,9.716832,-3.5828764,-0.72409,1.471046,0.053354,144.3,-148.5,-13.500001,,,,,,
113450,-1.2052581,9.692906,-3.7724876,-0.868908,1.8369019,-1.089946,134.70001,-143.70001,-6.3,,,,,,
113470,-0.41271865,10.147495,-3.6391017,-0.373478,1.6006199,-0.739334,137.1,-158.1,-11.700001,,,,,,
113490,-0.17764847,9.819115,-3.4883697,-0.853664,1.8826339,-1.1128119,139.5,-138.90001,-17.1,,,,,,
113530,0.27036062,9.393237,-3.7336085,-0.92226195,2.2865999,-0.92226195,132.3,-138.90001,-14.1,,,,,,
113550,0.36247465,8.65154,-3.93279,-0.746956,2.2256238,-0.983238,146.70001,-141.3,-14.700001,,,,,,
113570,0.52696395,9.162354,-4.242628,0.045732,1.699706,-0.083841994,146.70001,-141.3,-14.1,,,,,,
113592,0.40853164,9.397425,-4.3383307,0.579272,0.594516,0.198172,146.70001,-148.5,-11.1,,,,,,
113613,-0.0681883,8.492434,-4.104457,0.41158798,0.106708,0.0,146.70001,-148.5,-15.900001,,,,,,
113673,-0.046655152,8.058781,-3.8855367,-0.56402797,-0.68597996,1.440558,153.90001,-143.70001,-13.500001,,,,,,
113719,1.2064544,9.088782,-3.317301,-0.746956,-0.67073596,1.3567159,134.70001,-141.3,-17.7,,,,,,
113739,1.3201015,8.443984,-3.1635783,-1.4024479,-0.045732,0.022866,125.100006,-141.3,-12.3,,,,,,
113759,1.1436493,8.492434,-3.3496006,-1.577754,0.95274997,-0.82317597,132.3,-150.90001,-10.5,,,,,,
113779,0.78416544,8.543276,-4.136757,-1.8369019,2.088428,-1.8369019,137.1,-146.1,-11.700001,,,,,,
113799,0.19918162,8.435611,-5.121898,-1.059458,3.155508,-3.16313,144.3,-143.70001,-12.900001,,,,,,
113822,-0.7811747,7.429534,-6.9599915,0.46494198,3.841488,-3.58234,146.70001,-138.90001,-13.500001,,,,,,
113842,-0.14116174,8.141922,-7.325457,0.663114,3.7576458,-2.6905658,141.90001,-131.70001,-10.5,x,,,,,
113862,0.6585554,8.420657,-8.063565,2.47715,5.823208,-2.583858,134.70001,-141.3,-12.3,x,,,,,
113885,1.631136,8.917713,-7.5318165,2.949714,4.253076,-2.568614,146.70001,-158.1,-11.700001,x,,,,,
113905,2.338739,8.847133,-5.7038913,1.67684,5.495462,-3.8033779,144.3,-141.3,-10.5,x,,,,,
113926,2.7670095,7.752531,-4.1905894,0.07622,8.42231,-5.5030837,144.3,-141.3,-11.700001,x,,,,,
113946,2.1820257,6.488655,-3.2054482,-1.669218,12.698252,-6.8979096,151.5,-122.100006,-12.900001,x,,,,,
113970,0.93848634,4.665515,-3.534427,-2.05794,17.41627,-9.542744,144.3,-112.50001,-7.5000005,x,,,,,
113991,1.3165127,4.1074476,-1.49775,-2.873494,16.760778,-10.144882,170.70001,-131.70001,-8.700001,x,,,,,
114012,0.25122005,3.7581322,-1.2495207,-2.7972739,21.997091,-10.51836,165.90001,-122.100006,-2.7,x,,,,,
114032,-1.2202116,5.8295016,-2.7592335,-2.347576,25.769981,-9.916222,158.70001,-117.3,0.90000004,x,,,,,
114077,-4.3054333,6.237435,-3.3579745,-1.3795819,21.143427,-12.812582,170.70001,-117.3,-2.7,x,,,,,
114097,-4.66073,7.924198,-2.6515677,-0.80793196,17.088524,-9.740916,168.3,-114.9,-0.3,x,,,,,
114117,-3.6618314,12.3372965,-2.6629324,-1.9054999,14.702838,-7.492426,163.5,-102.9,8.1,x,,,,,
114137,-4.297059,12.486833,-3.1318767,-1.3719599,13.635757,-7.644866,165.90001,-95.700005,11.1,x,,,,,
114159,-6.340914,13.829663,-4.902978,0.640248,9.474146,-5.3658876,151.5,-105.3,3.9,x,,,,,
114179,-6.404915,14.841722,-5.928793,0.358234,4.26832,-3.58234,168.3,-95.700005,10.5,x,,,,,
114199,-7.4851613,14.89675,-6.037057,0.731712,-0.92226195,-2.843006,175.5,-90.9,9.900001,x,,,,,
114222,-8.120389,14.838133,-7.1394343,0.121952,-5.807964,-1.6387299,170.70001,-95.700005,5.7000003,x,,,,,
114242,-7.2482967,13.682521,-5.2343493,-1.9131219,-12.888802,0.144818,175.5,-107.700005,3.3000002,x,,,,,
114263,-6.3576617,12.355241,-3.8053856,-3.346058,-14.321737,2.995446,185.1,-95.700005,1.5,x,,,,,
114284,-6.522151,10.040428,-3.5912504,-3.940574,-14.336982,4.786616,175.5,-98.100006,2.7,x,,,,,
114304,-5.5405984,7.3266535,-3.7844505,-2.355198,-17.683039,8.864386,177.90001,-107.700005,-0.90000004,x,,,,,
114324,-4.522559,7.3057184,-3.2054482,-1.989342,-19.314148,10.259212,189.90001,-112.50001,-5.1000004,x,,,,,
114344,-2.986528,6.524544,-2.3046448,-1.585376,-20.480314,11.364402,175.5,-110.100006,-5.1000004,x,,,,,
114367,-1.6921464,5.4885597,-1.9236279,-0.15244,-19.253172,11.829344,180.3,-117.3,-5.7000003,x,,,,,
114387,-1.2889981,5.831296,-2.2161198,0.93750596,-17.904078,11.50922,185.1,-129.3,-3.3000002,x,,,,,
114411,-0.5443101,6.8912053,-1.8691968,1.6234859,-17.050413,10.716532,177.90001,-129.3,-12.3,x,,,,,
114431,0.25241634,8.015116,-1.9780588,2.073184,-13.49094,8.399444,165.90001,-131.70001,-13.500001,x,,,,,
114452,0.43484995,8.177213,-2.1479313,1.806414,-12.507702,7.972612,158.70001,-134.1,-11.1,x,,,,,
114473,0.4533924,8.060575,-2.4876766,1.935988,-9.779026,6.158576,149.1,-141.3,-12.3,x,,,,,
114493,0.4605701,7.8051677,-2.7125783,1.98172,-7.9954777,5.5335717,146.70001,-143.70001,-11.1,x,,,,,
114513,0.5801987,8.700587,-3.0086591,1.3872039,-6.143332,5.358266,146.70001,-155.70001,-21.300001,x,,,,,
114536,-0.05801987,7.8548136,-4.004567,0.518296,-4.413138,1.8521459,132.3,-150.90001,-11.1,x,,,,,
114556,0.1698726,7.1244807,-4.151112,1.493912,-4.695152,1.570132,141.90001,-150.90001,-13.500001,x,,,,,
114578,0.44860724,6.7500434,-4.1594863,1.44818,-4.291186,1.783548,139.5,-143.70001,-13.500001,x,,,,,
114599,0.9187476,8.130557,-4.1594863,1.8978779,-4.618932,3.117398,137.1,-148.5,-16.5,x,,,,,
114620,0.8350076,8.062369,-3.8299096,0.87653,-3.452766,1.775926,144.3,-150.90001,-17.1,x,,,,,
114641,0.6005356,7.5587325,-4.4286504,1.021348,-1.98172,0.99086,139.5,-138.90001,-10.5,x,,,,,
114661,0.68606997,7.827897,-5.083019,2.7058098,-1.783548,1.417692,149.1,-136.5,-10.5,x,,,,,
114681,1.1938933,8.528322,-4.308424,2.964958,-2.2103798,2.05794,129.90001,-138.90001,-13.500001,x,,,,,
114704,1.3404384,9.203028,-4.2533946,1.1432999,0.182928,1.097568,129.90001,-138.90001,-11.1,,,,,,
114724,1.1950897,9.182093,-4.4035287,0.92988396,0.853664,0.449698,141.90001,-134.1,-10.5,,,,,,
114745,0.7961283,9.16355,-4.502222,1.1051899,1.288118,-0.579272,134.70001,-148.5,-17.1,,,,,,
114765,0.681883,9.273608,-4.308424,0.99086,1.074702,-0.640248,137.1,-153.3,-15.900001,,,,,,
114785,0.4886828,9.429126,-4.2605724,0.548784,1.06708,-0.60976,129.90001,-153.3,-11.1,,,,,,
114805,0.10646945,8.851319,-4.2510023,0.198172,0.853664,-0.792688,134.70001,-136.5,-15.900001,,,,,,
114826,-0.036486723,8.738271,-4.284498,0.28201398,0.35061198,-0.19055,125.100006,-143.70001,-6.9,,,,,,
114846,0.111254595,8.955397,-4.004567,0.11432999,-0.030488,0.144818,139.5,-148.5,-6.9,,,,,,
114866,0.07536601,8.906947,-3.7198513,-0.548784,0.243904,-0.22865999,132.3,-136.5,-8.700001,,,,,,
114890,-0.27454764,8.703578,-3.886733,-0.853664,0.83842,-0.60976,132.3,-143.70001,-9.900001,,,,,,
114911,-0.5819931,8.426639,-3.84905,-0.868908,0.548784,-0.55640596,115.50001,-150.90001,-12.900001,,,,,,
114932,-0.33914706,8.5576315,-3.4752107,-0.792688,0.121952,-0.068598,127.50001,-148.5,-14.1,,,,,,
114952,-0.17226517,8.840553,-3.33046,-0.7622,0.35061198,-0.213416,125.100006,-153.3,-17.1,,,,,,
114972,-0.1268063,8.861488,-3.238346,-0.632626,0.312502,-0.365856,132.3,-138.90001,-11.1,,,,,,
114992,-0.11484345,8.787916,-3.0894084,-0.655492,0.243904,-0.396344,141.90001,-158.1,-11.700001,,,,,,
115014,-0.32239905,8.537294,-3.2706459,-0.53354,0.853664,-0.365856,141.90001,-150.90001,-12.3,,,,,,
115034,-0.27933276,8.743055,-3.4285555,0.221038,0.663114,-0.46494198,129.90001,-150.90001,-12.900001,,,,,,
115054,-0.24942562,8.880031,-3.4578645,0.28201398,0.442076,-0.358234,134.70001,-150.90001,-8.1,,,,,,
115074,-0.2087519,8.48406,-3.6420925,-0.251526,0.312502,-0.40396598,137.1,-150.90001,-10.5,,,,,,
115096,-0.08254373,8.399123,-3.8251243,0.03811,0.121952,-0.099086,132.3,-150.90001,-3.9,,,,,,
115117,0.16927446,8.793898,-3.8598166,0.3811,-0.23628199,-0.053354,125.100006,-136.5,-12.3,,,,,,
115137,0.3439322,8.925489,-3.953725,0.23628199,-0.20579399,-0.373478,134.70001,-138.90001,-14.700001,,,,,,
115157,0.49944937,8.847133,-4.003371,-0.099086,-0.07622,-0.83842,129.90001,-153.3,-11.1,,,,,,
115177,0.57122654,8.487649,-4.1271863,-0.510674,0.20579399,-1.227142,146.70001,-155.70001,-11.700001,,,,,,
115217,0.8188577,9.017604,-4.1756363,-1.21952,0.72409,-1.021348,132.3,-138.90001,-10.5,,,,,,
115280,0.4827014,8.871656,-4.87666,-2.103672,2.538126,-2.500016,132.3,-141.3,-13.500001,x,,,,,
115320,0.26796806,7.887113,-5.3791,-1.3719599,3.2241058,-2.7058098,156.3,-138.90001,-11.700001,x,,,,,
115340,0.029309006,7.70767,-6.1351523,-0.861286,4.64942,-2.957336,144.3,-126.9,-12.3,x,,,,,
115363,-0.76801556,7.274017,-6.517366,0.510674,4.390272,-3.612828,146.70001,-138.90001,-12.3,x,,,,,
115407,-0.30684733,7.0371523,-4.266554,1.242386,3.635694,-3.7424018,153.90001,-143.70001,-5.1000004,x,,,,,
115427,-0.19559275,6.6758738,-3.4907625,0.487808,6.0747337,-4.817104,149.1,-134.1,-10.5,x,,,,,
115447,0.28351977,6.727314,-2.887236,-0.015244,8.26987,-5.7165,144.3,-134.1,-13.500001,x,,,,,
115467,0.98992664,6.388167,-2.1658757,-0.830798,10.86135,-7.385718,168.3,-126.9,-1.5,x,,,,,
115490,1.2399504,5.9461393,-1.6209675,-2.2789779,15.861382,-9.123534,163.5,-122.100006,-2.7,x,,,,,
115510,0.33077306,5.1565905,-1.7250444,-2.97258,19.634272,-11.234828,165.90001,-129.3,-9.900001,x,,,,,
115530,-0.5299547,5.8229218,-3.0870159,-2.347576,21.57788,-11.1586075,170.70001,-122.100006,0.3,x,,,,,
115551,-1.9684886,6.6585274,-2.682073,-2.309466,19.954395,-11.867454,175.5,-117.3,0.90000004,x,,,,,
115571,-3.1904945,7.12807,-3.1803262,-1.6539739,20.09159,-12.492457,168.3,-110.100006,0.90000004,x,,,,,
115592,-4.4352303,9.127064,-3.777871,-0.891774,18.483349,-11.646416,170.70001,-105.3,2.1000001,x,,,,,
115612,-5.0238028,11.230732,-4.426856,-1.326228,16.745533,-10.655556,175.5,-100.50001,0.90000004,x,,,,,
115633,-5.5370097,13.080789,-4.5165777,-3.475632,13.772954,-8.498529,180.3,-93.3,4.5,x,,,,,
115653,-5.7056856,14.450536,-4.84436,-5.625036,10.243968,-5.777476,168.3,-95.700005,7.5000005,x,,,,,
115673,-6.2733235,14.644933,-4.0344744,-6.654006,4.72564,-4.054904,182.70001,-83.700005,11.700001,x,,,,,
115696,-7.313494,14.599474,-4.017128,-5.655524,-0.144818,-2.644834,187.5,-95.700005,2.7,x,,,,,
115757,-7.125677,12.819999,-1.5683309,-1.67684,-14.961986,0.70122397,194.70001,-98.100006,1.5,x,,,,,
115777,-6.0191126,12.086077,-1.7794753,-0.541162,-16.455898,3.50612,187.5,-105.3,-4.5,x,,,,,
115797,-5.251097,10.163047,-0.5317491,-0.41158798,-17.774504,5.18296,187.5,-100.50001,-6.9,x,,,,,
115817,-5.054308,8.15867,-1.116733,0.640248,-16.707424,7.492426,199.50002,-107.700005,-16.5,x,,,,,
115904,-1.782466,6.979132,-1.2794278,2.423796,-16.219616,10.09915,182.70001,-124.50001,-17.1,x,,,,,
115934,-1.159201,6.942047,-1.7501663,2.454284,-13.940638,8.902495,168.3,-143.70001,-17.7,x,,,,,
115958,-0.1321896,8.503201,-2.5092099,2.881116,-11.387268,7.149436,173.1,-136.5,-23.1,x,,,,,
116018,0.015551717,6.614863,-2.8884325,3.46801,-6.760714,3.041178,158.70001,-126.9,-10.5,x,,,,,
116056,-0.105273165,6.720136,-4.5931396,4.5731997,-3.361302,2.47715,146.70001,-150.90001,-24.300001,x,,,,,
116078,0.19977975,8.345291,-4.6086917,4.34454,-3.643316,2.408552,146.70001,-143.70001,-18.900002,x,,,,,
116118,0.2715569,7.839262,-4.832397,3.155508,-0.967994,0.64787,144.3,-138.90001,-18.900002,x,,,,,
116140,-0.10407688,7.4403005,-5.376109,2.957336,0.731712,0.03811,163.5,-134.1,-18.900002,,,,,,
116161,0.11005831,8.244802,-5.447886,3.102154,0.213416,0.899396,151.5,-148.5,-15.900001,,,,,,
116181,0.30864176,9.085194,-4.9059687,2.370442,0.426832,0.67073596,153.90001,-143.70001,-18.300001,,,,,,
116202,0.2924919,9.132447,-4.9322867,1.204276,1.44818,-0.053354,153.90001,-138.90001,-19.5,,,,,,
116222,-0.18303175,8.662307,-4.952026,0.853664,1.6234859,-0.45731997,153.90001,-143.70001,-11.700001,,,,,,
116246,-0.3828115,8.988893,-5.0471306,1.547266,1.1204339,0.20579399,146.70001,-134.1,-12.3,,,,,,
116266,-0.3481192,8.958387,-4.801294,1.265252,0.72409,0.442076,151.5,-138.90001,-5.7000003,,,,,,
116286,-0.28830492,9.200635,-4.702002,0.67835796,0.708846,0.81555396,149.1,-141.3,-9.3,,,,,,
116306,-0.3660635,8.978126,-4.588953,0.221038,0.7622,0.548784,149.1,-146.1,-17.1,,,,,,
116327,-0.30983806,8.616249,-4.3114147,-0.198172,0.442076,0.49543,151.5,-146.1,-12.3,,,,,,
116348,-0.26796806,8.307608,-3.920229,-0.510674,0.121952,0.55640596,134.70001,-134.1,-14.700001,,,,,,
116368,-0.31282878,8.543874,-3.6923366,-0.579272,-0.106708,0.602138,149.1,-146.1,-14.1,,,,,,
116410,-0.48389766,8.465517,-3.1815224,-0.93750596,-0.46494198,-0.35061198,139.5,-141.3,-13.500001,,,,,,
116430,-0.47731808,8.119791,-2.9775558,-0.99086,-0.015244,-0.121952,141.90001,-141.3,-12.3,,,,,,
116453,-0.51141226,8.738271,-3.2311683,-0.503052,0.33536798,0.586894,149.1,-146.1,-7.5000005,,,,,,
116473,-0.6005356,9.057081,-3.246122,-0.17530599,0.083841994,0.68597996,146.70001,-138.90001,-15.900001,,,,,,
