time,sensor_accX[g],sensor_accY[g],sensor_accZ[g],sensor_gyroX[°/s],sensor_gyroY[°/s],sensor_gyroZ[°/s],sensor_magX[µT],sensor_magY[µT],sensor_magZ[µT]
552858,-3.0182294845581055,7.294353485107422,-5.404819965362549,-0.426831990480423,0.19054999947547913,-0.2591480016708374,216.3000030517578,-71.70000457763672,2.1000001430511475
552879,-2.9919111728668213,7.27222204208374,-5.406614303588867,-0.36585599184036255,0.17530599236488342,-0.28201398253440857,225.90000915527344,-54.900001525878906,1.5
552899,-3.0008833408355713,7.320672035217285,-5.4090070724487305,-0.3125019967556,0.1600620001554489,-0.23628199100494385,230.70001220703125,-59.70000076293945,2.700000047683716
552919,-3.031388521194458,7.2506890296936035,-5.377903461456299,-0.26677000522613525,0.114329993724823,-0.16768398880958557,235.50001525878906,-62.10000228881836,0.9000000357627869
552939,-2.9978926181793213,7.333830833435059,-5.365342617034912,-0.2743920087814331,0.1448179930448532,-0.06859800219535828,237.90000915527344,-54.900001525878906,6.300000190734863
552960,-2.9937055110931396,7.296746253967285,-5.3581647872924805,-0.3048799932003021,0.18292799592018127,-0.05335399881005287,235.50001525878906,-76.5,5.700000286102295
552980,-2.9548263549804688,7.34998083114624,-5.337827682495117,-0.2743920087814331,0.2591480016708374,-0.038109999150037766,240.3000030517578,-71.70000457763672,3.3000001907348633
553000,-2.9739668369293213,7.274016857147217,-5.3402204513549805,-0.26677000522613525,0.2743920087814331,-0.09146399796009064,237.90000915527344,-62.10000228881836,14.100000381469727
553020,-2.9494431018829346,7.2985405921936035,-5.330650329589844,-0.25152599811553955,0.3201240003108978,-0.08384199440479279,249.90000915527344,-66.9000015258789,6.900000095367432
553040,-2.9966962337493896,7.281792640686035,-5.3874735832214355,-0.22103799879550934,0.3125019967556,-0.1448179930448532,240.3000030517578,-62.10000228881836,3.3000001907348633
553060,-2.992509365081787,7.291961193084717,-5.3581647872924805,-0.2134159952402115,0.2972579896450043,-0.12195199728012085,242.70001220703125,-71.70000457763672,6.900000095367432
553080,-3.004472255706787,7.3583550453186035,-5.407212257385254,-0.2743920087814331,0.2972579896450043,-0.04573199898004532,254.70001220703125,-69.30000305175781,3.9000000953674316
553100,-3.008060932159424,7.351775169372559,-5.389268398284912,-0.26677000522613525,0.2972579896450043,-0.1600620001554489,230.70001220703125,-69.30000305175781,8.700000762939453
553120,-2.9763593673706055,7.2177910804748535,-5.347398281097412,-0.2591480016708374,0.3277460038661957,-0.114329993724823,240.3000030517578,-74.10000610351562,6.900000095367432
553160,-2.9590132236480713,7.2596611976623535,-5.347996234893799,-0.28201398253440857,0.3887220025062561,0,242.70001220703125,-69.30000305175781,7.500000476837158
553182,-2.960209608078003,7.416972637176514,-5.434727191925049,-0.08384199440479279,0.4192099869251251,0.12195199728012085,245.10000610351562,-59.70000076293945,6.900000095367432
553202,-2.9643964767456055,7.30212926864624,-5.4269514083862305,-0.1600620001554489,0.4192099869251251,0,242.70001220703125,-57.30000305175781,-0.9000000357627869
553222,-2.948246717453003,7.345195770263672,-5.3940534591674805,-0.15243999660015106,0.426831990480423,-0.015243999660015106,228.3000030517578,-66.9000015258789,4.5
553242,-2.9554243087768555,7.279998302459717,-5.362351894378662,-0.26677000522613525,0.44969800114631653,-0.02286599949002266,233.10000610351562,-59.70000076293945,-3.3000001907348633
553262,-2.9398727416992188,7.372710227966309,-5.3904643058776855,-0.3277460038661957,0.5030519962310791,0,235.50001525878906,-74.10000610351562,6.300000190734863
553285,-2.9105637073516846,7.306914329528809,-5.361753463745117,-0.35061198472976685,0.457319974899292,-0.05335399881005287,235.50001525878906,-66.9000015258789,1.5
553305,-2.9039840698242188,7.321269989013672,-5.315098285675049,-0.36585599184036255,0.46494197845458984,-0.04573199898004532,252.3000030517578,-52.500003814697266,8.100000381469727
553327,-2.875871419906616,7.294353485107422,-5.301939487457275,-0.39634400606155396,0.5030519962310791,-0.02286599949002266,209.10000610351562,-69.30000305175781,3.9000000953674316
553347,-2.8920211791992188,7.294353485107422,-5.376707077026367,-0.36585599184036255,0.5259180068969727,-0.038109999150037766,245.10000610351562,-64.5,-0.30000001192092896
553367,-2.872880697250366,7.237529754638672,-5.3521833419799805,-0.2591480016708374,0.4725639820098877,-0.05335399881005287,225.90000915527344,-52.500003814697266,6.900000095367432
553387,-2.877067804336548,7.370317459106445,-5.3934550285339355,-0.19054999947547913,0.4344539940357208,0.02286599949002266,235.50001525878906,-69.30000305175781,0.30000001192092896
553407,-2.927311658859253,7.339812278747559,-5.446690082550049,-0.25152599811553955,0.39634400606155396,0,237.90000915527344,-69.30000305175781,4.5
553427,-2.9309005737304688,7.3463921546936035,-5.462839603424072,-0.20579399168491364,0.342989981174469,-0.038109999150037766,237.90000915527344,-74.10000610351562,8.100000381469727
553447,-2.9105637073516846,7.26624059677124,-5.407212257385254,-0.17530599236488342,0.2439039945602417,-0.06859800219535828,235.50001525878906,-47.70000076293945,1.5
553467,-2.839982748031616,7.321867942810059,-5.3994364738464355,-0.2134159952402115,0.20579399168491364,-0.02286599949002266,228.3000030517578,-62.10000228881836,4.5
553487,-2.805290460586548,7.318279266357422,-5.3605570793151855,-0.19817200303077698,0.2134159952402115,0.015243999660015106,223.50001525878906,-71.70000457763672,5.700000286102295
553507,-2.823234796524048,7.35596227645874,-5.386875629425049,-0.20579399168491364,0.2591480016708374,0.015243999660015106,233.10000610351562,-62.10000228881836,6.900000095367432
553527,-2.8148608207702637,7.306914329528809,-5.432932376861572,-0.228659987449646,0.2896359860897064,-0.038109999150037766,235.50001525878906,-59.70000076293945,5.700000286102295
553548,-2.8160572052001953,7.390654563903809,-5.4622416496276855,-0.3277460038661957,0.2972579896450043,-0.030487999320030212,230.70001220703125,-62.10000228881836,9.90000057220459
553569,-2.786748170852661,7.402617454528809,-5.425156593322754,-0.2743920087814331,0.26677000522613525,0.007621999830007553,242.70001220703125,-69.30000305175781,6.300000190734863
553589,-2.798711061477661,7.37091588973999,-5.451475143432617,-0.2591480016708374,0.2591480016708374,-0.02286599949002266,223.50001525878906,-74.10000610351562,0.9000000357627869
553609,-2.7161672115325928,7.393047332763672,-5.376707077026367,-0.2591480016708374,0.3277460038661957,0.030487999320030212,225.90000915527344,-76.5,9.90000057220459
553629,-2.7311208248138428,7.451066970825195,-5.3755106925964355,-0.41158798336982727,0.4192099869251251,-0.015243999660015106,230.70001220703125,-69.30000305175781,4.5
553649,-2.7771778106689453,7.19566011428833,-5.4054179191589355,-0.36585599184036255,0.5335400104522705,-0.038109999150037766,235.50001525878906,-64.5,4.5
553669,-2.7406911849975586,7.2805962562561035,-5.3432111740112305,-0.09908600151538849,0.44969800114631653,0.06859800219535828,228.3000030517578,-71.70000457763672,3.9000000953674316
553689,-2.7400929927825928,7.381084442138672,-5.415586471557617,-0.22103799879550934,0.4878079891204834,-0.015243999660015106,228.3000030517578,-64.5,7.500000476837158
553709,-2.808281183242798,7.204033851623535,-5.4143900871276855,-0.2896359860897064,0.4725639820098877,-0.1448179930448532,218.70001220703125,-74.10000610351562,8.100000381469727
553729,-2.8184497356414795,7.3045220375061035,-5.348594665527344,-0.3887220025062561,0.4420759975910187,-0.02286599949002266,237.90000915527344,-64.5,8.700000762939453
553750,-2.8483567237854004,7.397233963012695,-5.454465866088867,-0.41158798336982727,0.3734779953956604,-0.007621999830007553,242.70001220703125,-71.70000457763672,11.700000762939453
553770,-2.844169855117798,7.41278600692749,-5.418577194213867,-0.3887220025062561,0.2591480016708374,-0.09908600151538849,245.10000610351562,-76.5,5.100000381469727
553790,-2.774785280227661,7.422356128692627,-5.3222761154174805,-0.4192099869251251,0.25152599811553955,-0.12195199728012085,223.50001525878906,-71.70000457763672,6.900000095367432
553810,-2.7520558834075928,7.387065887451172,-5.3342390060424805,-0.4420759975910187,0.3048799932003021,-0.12195199728012085,235.50001525878906,-76.5,-1.5
553832,-2.760429859161377,7.28119421005249,-5.330650329589844,-0.38109999895095825,0.3277460038661957,-0.060975998640060425,245.10000610351562,-71.70000457763672,9.300000190734863
553853,-2.7400929927825928,7.2865777015686035,-5.330650329589844,-0.25152599811553955,0.3201240003108978,0.015243999660015106,235.50001525878906,-62.10000228881836,6.300000190734863
553873,-2.6868581771850586,7.288970470428467,-5.425755023956299,-0.19054999947547913,0.3277460038661957,0.06859800219535828,228.3000030517578,-69.30000305175781,6.300000190734863
553893,-2.6312308311462402,7.2835869789123535,-5.445493698120117,-0.114329993724823,0.2743920087814331,0.18292799592018127,237.90000915527344,-71.70000457763672,9.300000190734863
553913,-2.6330254077911377,7.370317459106445,-5.497531890869141,-0.114329993724823,0.18292799592018127,0.18292799592018127,242.70001220703125,-71.70000457763672,8.100000381469727
553934,-2.6007256507873535,7.372710227966309,-5.561533451080322,-0.2439039945602417,0.16768398880958557,0.22103799879550934,225.90000915527344,-57.30000305175781,5.100000381469727
553954,-2.6515676975250244,7.222576141357422,-5.590842247009277,-0.41158798336982727,0.1448179930448532,0.19054999947547913,228.3000030517578,-74.10000610351562,2.1000001430511475
553978,-2.790336847305298,7.483964920043945,-5.767294406890869,-0.5640279650688171,0.19817200303077698,0.342989981174469,218.70001220703125,-62.10000228881836,6.300000190734863
553998,-2.987126111984253,7.667594909667969,-5.887521266937256,-0.800309956073761,0.17530599236488342,0.12195199728012085,240.3000030517578,-64.5,2.700000047683716
554018,-3.1964759826660156,7.408000469207764,-5.995186805725098,-1.1356779336929321,0.114329993724823,-0.12195199728012085,235.50001525878906,-66.9000015258789,3.9000000953674316
554038,-3.261075496673584,7.2327446937561035,-5.872567653656006,-1.1280559301376343,-0.02286599949002266,0.015243999660015106,233.10000610351562,-64.5,-0.30000001192092896
554058,-3.285001277923584,7.236333847045898,-5.820529460906982,-1.4024479389190674,0.13719600439071655,0.2972579896450043,245.10000610351562,-78.9000015258789,-0.30000001192092896
554078,-3.4650421142578125,7.318279266357422,-5.890511989593506,-1.5472660064697266,0.3734779953956604,0.35061198472976685,221.10000610351562,-71.70000457763672,0.9000000357627869
554098,-3.4536774158477783,7.6263227462768555,-5.8378753662109375,-1.5091559886932373,0.4039659798145294,0.3582339882850647,230.70001220703125,-66.9000015258789,-0.30000001192092896
554118,-3.600222587585449,7.42175817489624,-5.815145969390869,-1.9588539600372314,0.7088459730148315,0.08384199440479279,233.10000610351562,-69.30000305175781,3.3000001907348633
554138,-3.7904319763183594,7.257866859436035,-6.034066200256348,-2.0503180027008057,0.9756159782409668,0.19054999947547913,228.3000030517578,-81.30000305175781,5.100000381469727
554159,-3.7455713748931885,7.666996479034424,-6.1955647468566895,-1.7301939725875854,0.7317119836807251,0.44969800114631653,230.70001220703125,-76.5,5.700000286102295
554179,-3.8340964317321777,7.470805644989014,-6.268538475036621,-2.0503180027008057,0.6631140112876892,0.4725639820098877,235.50001525878906,-69.30000305175781,-0.9000000357627869
554201,-3.866396188735962,7.5252366065979,-6.3445024490356445,-1.9512319564819336,0.426831990480423,0.8231759667396545,221.10000610351562,-74.10000610351562,5.100000381469727
554221,-3.8711812496185303,7.421159744262695,-6.3122029304504395,-2.14178204536438,0.1295740008354187,1.242385983467102,218.70001220703125,-74.10000610351562,2.1000001430511475
554243,-3.8317039012908936,7.446879863739014,-6.366035461425781,-2.3551979064941406,0.08384199440479279,1.6082419157028198,225.90000915527344,-76.5,2.700000047683716
554263,-3.753347158432007,7.406206130981445,-6.239229202270508,-2.5152599811553955,-0.04573199898004532,1.9588539600372314,230.70001220703125,-86.10000610351562,0.30000001192092896
554285,-3.5786893367767334,7.627519130706787,-5.915035724639893,-3.094532012939453,0.13719600439071655,2.3551979064941406,221.10000610351562,-81.30000305175781,-3.3000001907348633
554305,-3.520071268081665,7.631706237792969,-5.957503795623779,-3.5442299842834473,0.4039659798145294,2.4542839527130127,216.3000030517578,-88.5,4.5
554328,-3.5075104236602783,7.411589622497559,-5.853426933288574,-3.704291820526123,0.3277460038661957,2.530503988265991,218.70001220703125,-83.70000457763672,-1.5
554348,-3.2048499584198,7.439104080200195,-5.615365982055664,-3.7728898525238037,0.114329993724823,3.041177988052368,213.90000915527344,-83.70000457763672,-2.700000047683716
554372,-3.103165626525879,7.48037576675415,-5.310911655426025,-4.115880012512207,0.36585599184036255,3.246971845626831,216.3000030517578,-98.10000610351562,-5.700000286102295
554392,-2.932694911956787,7.533610820770264,-5.112328052520752,-4.367405891418457,0.4192099869251251,3.246971845626831,199.50001525878906,-81.30000305175781,-1.5
554412,-2.962602138519287,7.2955498695373535,-5.142833232879639,-4.5427117347717285,0.7012239694595337,3.2698378562927246,204.3000030517578,-119.70000457763672,1.5
554432,-2.9350874423980713,7.315288543701172,-5.062084197998047,-4.329296112060547,0.5411620140075684,3.2774598598480225,206.70001220703125,-107.70000457763672,-0.9000000357627869
554452,-2.7945239543914795,7.124480724334717,-4.87007999420166,-4.367405891418457,0.3887220025062561,3.407033920288086,201.90000915527344,-117.30000305175781,1.5
554472,-2.2843079566955566,7.917020320892334,-4.73370361328125,-3.96343994140625,0.06859800219535828,4.032037734985352,192.3000030517578,-105.30000305175781,1.5
554492,-2.298065185546875,7.457048416137695,-4.330554962158203,-4.230209827423096,0.114329993724823,3.346057891845703,192.3000030517578,-119.70000457763672,-4.5
554512,-2.1856143474578857,7.279399871826172,-4.359864234924316,-3.955817937850952,0.22103799879550934,3.399411916732788,192.3000030517578,-114.9000015258789,-7.500000476837158
554532,-1.9110667705535889,7.420561790466309,-4.27552604675293,-3.551851987838745,-0.007621999830007553,3.60520601272583,189.90000915527344,-114.9000015258789,-9.90000057220459
554552,-1.4768149852752686,8.2262601852417,-4.235450267791748,-3.353679895401001,-0.3734779953956604,4.016793727874756,177.90000915527344,-114.9000015258789,-10.5
554573,-0.7255474328994751,9.15158748626709,-4.153504848480225,-2.903981924057007,-1.0823240280151367,3.5289859771728516,182.70001220703125,-124.50000762939453,-14.700000762939453
554593,-0.6160872578620911,8.525331497192383,-3.7425806522369385,-2.7210538387298584,-1.2652519941329956,2.538125991821289,180.3000030517578,-131.70001220703125,-10.5
554613,-0.4492053687572479,8.103042602539062,-3.3184971809387207,-2.8582499027252197,-1.5396440029144287,2.6677000522613525,175.5,-124.50000762939453,-8.700000762939453
554635,-0.1824336051940918,8.439199447631836,-3.1288859844207764,-2.5000159740448,-1.5548880100250244,3.1859958171844482,173.10000610351562,-129.3000030517578,-9.90000057220459
554655,-0.01794428937137127,8.65871810913086,-2.7281301021575928,-2.492393970489502,-1.9207439422607422,3.003067970275879,170.70001220703125,-143.70001220703125,-11.100000381469727
554679,-0.0059814294800162315,8.775355339050293,-2.2843079566955566,-2.5076379776000977,-1.981719970703125,2.6295900344848633,180.3000030517578,-138.90000915527344,-7.500000476837158
554700,-0.34931549429893494,8.270523071289062,-2.0755560398101807,-2.439039945602417,-1.8216580152511597,1.92836594581604,168.3000030517578,-134.10000610351562,-17.100000381469727
554720,-0.7351177334785461,8.11560344696045,-1.9577219486236572,-2.14178204536438,-1.829279899597168,2.2713558673858643,170.70001220703125,-138.90000915527344,-13.500000953674316
554741,-0.8972144722938538,8.84593677520752,-1.7148759365081787,-1.829279899597168,-2.3094658851623535,2.8048958778381348,173.10000610351562,-141.3000030517578,-8.700000762939453
554761,-0.9528417587280273,10.14570140838623,-1.8141676187515259,-1.5625100135803223,-2.0960500240325928,3.2774598598480225,170.70001220703125,-146.10000610351562,-9.90000057220459
554781,-1.430757999420166,10.290452003479004,-1.631734013557434,-1.1204339265823364,-2.1570260524749756,1.5472660064697266,156.3000030517578,-143.70001220703125,-17.100000381469727
554801,-1.6969316005706787,9.50927734375,-1.4642540216445923,-1.2500079870224,-2.0198299884796143,1.196653962135315,165.90000915527344,-148.5,-17.100000381469727
554821,-1.6323322057724,10.477670669555664,-1.3553919792175293,-0.7774440050125122,-1.7301939725875854,2.088428020477295,168.3000030517578,-141.3000030517578,-18.30000114440918
554841,-1.706501841545105,10.675655364990234,-1.2525113821029663,-1.5853760242462158,-0.6402480006217957,1.0975680351257324,146.70001220703125,-155.70001220703125,-17.100000381469727
554907,-2.1981754302978516,8.281289100646973,-1.621565580368042,-1.1051899194717407,-0.015243999660015106,2.0960500240325928,163.5,-150.90000915527344,-19.5
554927,-1.6981278657913208,8.456544876098633,-1.5617512464523315,-0.8841519951820374,0.07621999830007553,3.246971845626831,158.70001220703125,-148.5,-15.300000190734863
554947,-1.2273893356323242,8.499611854553223,-1.5719196796417236,-0.9527499675750732,0.28201398253440857,3.7424018383026123,158.70001220703125,-150.90000915527344,-11.700000762939453
554967,-0.7799784541130066,8.346487045288086,-1.5007407665252686,-0.853663980960846,0.38109999895095825,4.123501777648926,149.10000610351562,-146.10000610351562,-18.900001525878906
554987,-0.23028504848480225,8.772364616394043,-1.5222738981246948,-0.4725639820098877,0.5792719721794128,4.344540119171143,134.70001220703125,-155.70001220703125,-15.90000057220459
555008,-0.02691643312573433,8.947620391845703,-1.4816001653671265,-0.426831990480423,0.6402480006217957,4.2988080978393555,149.10000610351562,-146.10000610351562,-16.5
555028,0.2781364917755127,9.150989532470703,-1.3625696897506714,-0.457319974899292,0.9070180058479309,3.9253299236297607,139.5,-155.70001220703125,-14.100000381469727
555048,0.3397451937198639,9.380078315734863,-1.327877402305603,-0.4725639820098877,1.3338500261306763,3.307947874069214,141.90000915527344,-160.5,-8.100000381469727
555068,0.2488274723291397,9.189868927001953,-1.3518030643463135,-0.5259180068969727,1.6920839548110962,2.690565824508667,122.70000457763672,-158.10000610351562,-14.700000762939453
555088,0.3104361891746521,9.20542049407959,-1.3230922222137451,-0.4344539940357208,1.8597679138183594,2.39330792427063,141.90000915527344,-155.70001220703125,-18.900001525878906
555108,0.2883049249649048,9.001453399658203,-1.329671859741211,-0.48018598556518555,2.134160041809082,2.126538038253784,113.10000610351562,-153.3000030517578,-12.90000057220459
555150,0.3206046223640442,8.80406665802002,-1.24593186378479,-0.23628199100494385,2.492393970489502,1.9054999351501465,129.90000915527344,-170.10000610351562,-17.100000381469727
555170,0.42587780952453613,9.364526748657227,-1.4534873962402344,-0.10670799762010574,2.7210538387298584,1.7301939725875854,120.30000305175781,-153.3000030517578,-14.700000762939453
555190,0.5628525614738464,9.54695987701416,-1.6419024467468262,-0.20579399168491364,2.7744078636169434,1.2347639799118042,122.70000457763672,-162.90000915527344,-20.100000381469727
555210,0.8649147152900696,9.838255882263184,-1.7854567766189575,-0.07621999830007553,2.743919849395752,0.9222619533538818,113.10000610351562,-170.10000610351562,-16.5
555230,1.4110193252563477,10.233628273010254,-1.9044872522354126,-0.09146399796009064,2.545747995376587,0.7240899801254272,98.70000457763672,-158.10000610351562,-15.300000190734863
555250,1.3811120986938477,9.84064769744873,-2.2573916912078857,-0.12195199728012085,3.0106899738311768,0.44969800114631653,101.10000610351562,-155.70001220703125,-18.30000114440918
555270,1.4929648637771606,9.999753952026367,-2.884843587875366,0.3048799932003021,3.1783738136291504,0.5030519962310791,93.9000015258789,-165.3000030517578,-16.5
555293,1.3733363151550293,9.60677433013916,-3.47580885887146,0.6097599864006042,2.7591638565063477,0.38109999895095825,113.10000610351562,-153.3000030517578,-17.100000381469727
555333,1.934394359588623,10.333518028259277,-3.966884136199951,0.571649968624115,1.92836594581604,0.8841519951820374,110.70000457763672,-153.3000030517578,-18.30000114440918
555353,1.7722976207733154,9.868163108825684,-4.002772808074951,0.3125019967556,1.478667974472046,0.739333987236023,98.70000457763672,-160.5,-6.900000095367432
555374,1.5605549812316895,9.494921684265137,-4.288685321807861,0.33536797761917114,1.3567159175872803,0.8155539631843567,108.30000305175781,-155.70001220703125,-16.5
555394,1.2716519832611084,8.60966968536377,-4.509997844696045,0.35061198472976685,1.0289700031280518,0.685979962348938,101.10000610351562,-153.3000030517578,-10.5
555414,1.2728482484817505,8.323159217834473,-4.82222843170166,0.8841519951820374,0.2972579896450043,1.295740008354187,108.30000305175781,-155.70001220703125,-8.100000381469727
555434,1.5539754629135132,8.875245094299316,-4.3502936363220215,0.967993974685669,-0.8765299916267395,1.8521459102630615,103.50000762939453,-162.90000915527344,-14.700000762939453
555454,1.3841028213500977,8.393141746520996,-3.7814598083496094,-0.06859800219535828,-0.457319974899292,1.1509219408035278,103.50000762939453,-143.70001220703125,-9.90000057220459
555474,1.3978601694107056,8.397927284240723,-3.696523666381836,-0.3125019967556,-0.15243999660015106,0.9603719711303711,91.5,-155.70001220703125,-6.900000095367432
555495,1.2674649953842163,7.988797664642334,-3.627737045288086,-0.8689079880714417,0.426831990480423,0.48018598556518555,98.70000457763672,-158.10000610351562,-14.100000381469727
555576,1.22798752784729,7.850626468658447,-3.71985125541687,-0.9375059604644775,0.228659987449646,1.425313949584961,98.70000457763672,-155.70001220703125,-17.700000762939453
555624,1.499544382095337,8.376992225646973,-3.8795552253723145,-0.510673999786377,-1.1814099550247192,2.1570260524749756,81.9000015258789,-165.3000030517578,-11.100000381469727
555645,1.8416821956634521,8.908740997314453,-3.889723777770996,-0.6326259970664978,-1.5015339851379395,2.28659987449646,81.9000015258789,-158.10000610351562,-17.700000762939453
555685,1.7734938859939575,8.099453926086426,-4.045838832855225,-0.9984819889068604,-2.1570260524749756,1.9054999351501465,81.9000015258789,-162.90000915527344,-14.100000381469727
555705,1.8446729183197021,8.101248741149902,-4.061988830566406,-0.9527499675750732,-2.3170878887176514,2.0960500240325928,72.30000305175781,-160.5,-17.100000381469727
555725,2.1006782054901123,8.177212715148926,-3.8370871543884277,-1.2195199728012085,-2.599102020263672,2.4237959384918213,79.5,-162.90000915527344,-12.300000190734863
555747,2.3824033737182617,8.31897258758545,-3.49973464012146,-1.7454379796981812,-2.2484898567199707,2.3018438816070557,84.30000305175781,-158.10000610351562,-20.700000762939453
555767,2.2765321731567383,7.840457916259766,-3.374124526977539,-1.981719970703125,-1.8673899173736572,1.8673899173736572,72.30000305175781,-167.70001220703125,-17.100000381469727
555787,2.4003477096557617,7.836869239807129,-3.22578501701355,-1.7911700010299683,-1.7378159761428833,1.7149499654769897,67.5,-172.5,-15.90000057220459
555807,2.4703304767608643,7.846439361572266,-3.0535199642181396,-1.829279899597168,-1.600619912147522,1.5320219993591309,77.10000610351562,-170.10000610351562,-12.300000190734863
555830,2.629436492919922,8.2920560836792,-2.965592861175537,-1.753059983253479,-1.3795819282531738,1.4634239673614502,65.10000610351562,-158.10000610351562,-11.100000381469727
555850,2.9398727416992188,8.850123405456543,-2.8836472034454346,-1.8445239067077637,-1.4024479389190674,1.1737879514694214,79.5,-174.90000915527344,-15.90000057220459
555870,3.105558395385742,9.325647354125977,-2.9231247901916504,-1.7683039903640747,-1.2881180047988892,1.1051899194717407,69.9000015258789,-170.10000610351562,-9.300000190734863
555890,3.356778383255005,9.50927734375,-2.453582525253296,-2.1570260524749756,-1.8140360116958618,1.0442140102386475,69.9000015258789,-167.70001220703125,-18.900001525878906
555913,3.1617836952209473,9.174915313720703,-2.22389554977417,-2.187514066696167,-1.524399995803833,1.3186060190200806,65.10000610351562,-165.3000030517578,-21.900001525878906
555933,2.673699140548706,8.496023178100586,-1.9894235134124756,-2.1036720275878906,-1.577754020690918,1.478667974472046,69.9000015258789,-160.5,-16.5
555996,2.2549989223480225,10.700180053710938,-1.6102008819580078,-1.2728739976882935,-1.8140360116958618,1.4329359531402588,55.500003814697266,-177.3000030517578,-11.100000381469727
556016,2.6695120334625244,11.447857856750488,-1.1759490966796875,-1.6234859228134155,-1.1509219408035278,0.46494197845458984,60.30000305175781,-184.5,-20.700000762939453
556036,3.046342134475708,12.059758186340332,-1.3392421007156372,-1.699705958366394,-0.19817200303077698,-0.19817200303077698,53.10000228881836,-174.90000915527344,-18.30000114440918
556056,2.3800108432769775,10.667880058288574,-1.2507169246673584,-1.8902559280395508,0.5182960033416748,-1.1051899194717407,43.5,-177.3000030517578,-19.5
556080,1.315914511680603,9.31488037109375,-1.421785831451416,-1.242385983467102,0.8689079880714417,-1.1128119230270386,65.10000610351562,-160.5,-13.500000953674316
556100,0.9480566382408142,9.03315544128418,-1.642500638961792,-0.6326259970664978,0.9527499675750732,-0.9222619533538818,55.500003814697266,-172.5,-22.5
556120,0.8427834510803223,8.889002799987793,-1.7878493070602417,-0.44969800114631653,0.9832379817962646,-0.8841519951820374,72.30000305175781,-179.70001220703125,-15.300000190734863
556140,0.8696998953819275,8.46731185913086,-1.9660959243774414,-0.060975998640060425,0.6326259970664978,-0.7240899801254272,81.9000015258789,-158.10000610351562,-20.100000381469727
556203,1.4475059509277344,8.296242713928223,-1.6915483474731445,-0.41158798336982727,0.1600620001554489,1.5015339851379395,55.500003814697266,-158.10000610351562,-24.30000114440918
556284,2.5062191486358643,8.850123405456543,-1.528853416442871,-1.3186060190200806,0.2439039945602417,2.28659987449646,53.10000228881836,-174.90000915527344,-21.30000114440918
556326,2.8244311809539795,9.493724822998047,-1.0246188640594482,-1.5548880100250244,0.7240899801254272,1.425313949584961,38.70000076293945,-182.10000610351562,-21.30000114440918
556346,2.7496633529663086,9.15457820892334,-0.9331030249595642,-1.5015339851379395,1.1280559301376343,0.6478700041770935,38.70000076293945,-177.3000030517578,-21.30000114440918
556366,2.542705774307251,8.692214012145996,-0.8463723063468933,-1.2347639799118042,1.2728739976882935,0.2439039945602417,53.10000228881836,-170.10000610351562,-20.700000762939453
556407,2.2974672317504883,8.369216918945312,-0.6376203894615173,-0.5640279650688171,1.524399995803833,-0.08384199440479279,48.30000305175781,-174.90000915527344,-23.700000762939453
556427,2.2490174770355225,8.31478500366211,-0.6053206920623779,-0.19054999947547913,1.6768399477005005,-0.19817200303077698,55.500003814697266,-179.70001220703125,-20.700000762939453
556447,2.19099760055542,8.18738079071045,-0.6447980999946594,0,1.7987920045852661,-0.3277460038661957,41.10000228881836,-172.5,-24.30000114440918
556467,2.2633728981018066,8.498414993286133,-0.7405009865760803,0.2134159952402115,1.8369019031524658,-0.2591480016708374,45.900001525878906,-174.90000915527344,-25.500001907348633
556531,3.4291536808013916,9.657018661499023,-1.1837249994277954,0.2439039945602417,1.3338500261306763,-0.19817200303077698,38.70000076293945,-172.5,-16.5
556551,3.476407051086426,9.628905296325684,-1.7944289445877075,0.3887220025062561,1.6234859228134155,0.3201240003108978,43.5,-170.10000610351562,-22.5
556575,3.3585727214813232,9.54995059967041,-2.3004579544067383,0.800309956073761,0.8993960022926331,0.6783579587936401,45.900001525878906,-179.70001220703125,-17.100000381469727
556596,3.6343166828155518,10.10861587524414,-2.447601079940796,0.7774440050125122,0.800309956073761,0.739333987236023,41.10000228881836,-167.70001220703125,-29.100000381469727
556636,3.6103909015655518,9.749730110168457,-3.4022371768951416,0.22103799879550934,0.5411620140075684,-1.4100699424743652,48.30000305175781,-167.70001220703125,-20.100000381469727
556658,2.518181800842285,7.750736713409424,-3.4447054862976074,1.1280559301376343,0.510673999786377,-1.6311079263687134,50.70000076293945,-162.90000915527344,-18.30000114440918
556678,3.072660446166992,8.852516174316406,-3.8490500450134277,1.8445239067077637,-0.4192099869251251,-0.7240899801254272,50.70000076293945,-160.5,-21.900001525878906
556698,3.3944613933563232,8.98530387878418,-3.3400304317474365,1.4100699424743652,-0.8231759667396545,-0.8689079880714417,38.70000076293945,-167.70001220703125,-16.5
556718,3.4680328369140625,8.700587272644043,-3.093595504760742,0.9222619533538818,-0.5868939757347107,-0.510673999786377,50.70000076293945,-179.70001220703125,-18.900001525878906
556738,3.2706458568573,8.266335487365723,-2.846562385559082,0.3582339882850647,0.060975998640060425,-0.38109999895095825,43.5,-165.3000030517578,-17.100000381469727
556802,3.558352470397949,8.22925090789795,-2.3417296409606934,-1.2271419763565063,1.0442140102386475,0.5411620140075684,45.900001525878906,-165.3000030517578,-14.700000762939453
556823,3.552969217300415,8.007938385009766,-2.2705507278442383,-1.3795819282531738,0.8689079880714417,0.685979962348938,45.900001525878906,-174.90000915527344,-21.900001525878906
556843,3.496145725250244,7.765690326690674,-2.2549989223480225,-1.2271419763565063,0.510673999786377,0.8231759667396545,36.30000305175781,-172.5,-19.5
556886,3.911256790161133,8.302224159240723,-2.20894193649292,-0.8231759667396545,-0.5640279650688171,0.4725639820098877,43.5,-177.3000030517578,-19.5
556906,4.057203769683838,8.177810668945312,-2.113837242126465,-0.9070180058479309,-0.6707359552383423,0.10670799762010574,43.5,-177.3000030517578,-20.100000381469727
556929,4.0643815994262695,8.008536338806152,-2.0845282077789307,-1.0289700031280518,-0.6478700041770935,0.015243999660015106,38.70000076293945,-172.5,-19.5
556949,4.044642925262451,7.899075984954834,-2.0851263999938965,-1.021347999572754,-0.5335400104522705,0.08384199440479279,43.5,-162.90000915527344,-12.90000057220459
556969,4.0883073806762695,8.056387901306152,-2.1892032623291016,-0.914639949798584,-0.49542999267578125,0.08384199440479279,41.10000228881836,-174.90000915527344,-18.30000114440918
556989,4.165467739105225,7.984610557556152,-2.1473333835601807,-0.8079319596290588,-0.5640279650688171,0.04573199898004532,38.70000076293945,-174.90000915527344,-19.5
557009,4.198365688323975,7.8619914054870605,-2.0498359203338623,-0.7240899801254272,-0.6250039935112,0.08384199440479279,43.5,-177.3000030517578,-21.900001525878906
557029,4.390369415283203,8.247793197631836,-2.2101383209228516,-0.5640279650688171,-0.571649968624115,0.3201240003108978,41.10000228881836,-170.10000610351562,-25.500001907348633
557052,4.220496654510498,8.296841621398926,-2.256195306777954,-0.26677000522613525,-0.9070180058479309,0.6478700041770935,38.70000076293945,-179.70001220703125,-14.700000762939453
557072,4.042250156402588,8.2621488571167,-2.256195306777954,-0.3277460038661957,-1.2195199728012085,0.4420759975910187,38.70000076293945,-170.10000610351562,-21.30000114440918
557092,3.786245107650757,8.397329330444336,-2.110846519470215,-0.36585599184036255,-1.417691946029663,0.2439039945602417,36.30000305175781,-167.70001220703125,-25.500001907348633
557112,4.966381072998047,11.648236274719238,-2.8148608207702637,0.16768398880958557,-1.5091559886932373,1.2728739976882935,31.500001907348633,-174.90000915527344,-12.300000190734863
557132,3.920228958129883,9.718029022216797,-1.727436900138855,-1.5625100135803223,-2.6677000522613525,-1.1204339265823364,36.30000305175781,-167.70001220703125,-19.5
557152,2.0318915843963623,7.884720802307129,-1.199874758720398,-1.2347639799118042,-1.92836594581604,-0.5259180068969727,45.900001525878906,-174.90000915527344,-23.700000762939453
557172,1.9134594202041626,9.55892276763916,-1.4786094427108765,-0.9298839569091797,-1.5701320171356201,0.20579399168491364,33.900001525878906,-162.90000915527344,-18.900001525878906
557196,1.84048593044281,10.058372497558594,-0.7399028539657593,-1.4405579566955566,-1.935987949371338,-0.7164679765701294,43.5,-182.10000610351562,-18.900001525878906
557216,1.7896437644958496,9.28617000579834,-0.5209825038909912,-1.7683039903640747,-1.3186060190200806,-1.1280559301376343,33.900001525878906,-165.3000030517578,-18.30000114440918
557238,1.918244481086731,9.298730850219727,-0.19080761075019836,-1.3414719104766846,-0.7088459730148315,-0.07621999830007553,36.30000305175781,-177.3000030517578,-23.100000381469727
557259,1.745381236076355,8.915919303894043,-0.38460594415664673,-1.2118979692459106,-0.030487999320030212,0.09908600151538849,50.70000076293945,-174.90000915527344,-24.30000114440918
557279,1.8853466510772705,9.231739044189453,-0.5724228024482727,-0.6021379828453064,-0.015243999660015106,0.28201398253440857,41.10000228881836,-172.5,-22.5
557299,2.0940985679626465,9.300524711608887,-0.611900269985199,-0.3734779953956604,-0.15243999660015106,-0.030487999320030212,43.5,-170.10000610351562,-18.900001525878906
557319,2.2280826568603516,9.364526748657227,-0.6633405685424805,-0.17530599236488342,-0.20579399168491364,-0.09146399796009064,24.30000114440918,-179.70001220703125,-22.5
557339,2.324981689453125,9.489538192749023,-0.8499611616134644,-0.114329993724823,-0.18292799592018127,-0.18292799592018127,31.500001907348633,-184.5,-32.70000076293945
557359,2.277728319168091,9.268823623657227,-0.9354956150054932,-0.114329993724823,-0.228659987449646,-0.15243999660015106,38.70000076293945,-165.3000030517578,-26.700000762939453
557379,2.4123106002807617,9.365124702453613,-1.0706759691238403,-0.015243999660015106,-0.3125019967556,0.060975998640060425,38.70000076293945,-179.70001220703125,-20.700000762939453
557400,2.6784842014312744,9.361536026000977,-0.9576268792152405,-0.15243999660015106,-0.2972579896450043,0.114329993724823,38.70000076293945,-172.5,-26.700000762939453
557420,2.9470503330230713,9.45723819732666,-0.921140193939209,-0.3125019967556,0,0.17530599236488342,33.900001525878906,-162.90000915527344,-15.300000190734863
557443,3.034379243850708,9.112110137939453,-0.8882423043251038,-0.49542999267578125,0.39634400606155396,0.16768398880958557,53.10000228881836,-179.70001220703125,-26.100000381469727
557463,3.0206220149993896,8.611464500427246,-0.9265234470367432,-0.5411620140075684,0.6402480006217957,0.3277460038661957,55.500003814697266,-170.10000610351562,-22.5
557485,3.2084388732910156,8.57378101348877,-0.8990088701248169,-0.44969800114631653,0.9070180058479309,0.7088459730148315,38.70000076293945,-184.5,-25.500001907348633
557505,3.278421640396118,8.702980041503906,-1.1376678943634033,-0.48018598556518555,1.067080020904541,0.8079319596290588,36.30000305175781,-184.5,-29.700000762939453
557525,3.1641762256622314,8.697596549987793,-1.1986784934997559,-0.2896359860897064,0.9832379817962646,0.8612859845161438,45.900001525878906,-172.5,-22.5
557545,3.2060463428497314,8.78193473815918,-1.3380458354949951,-0.2972579896450043,0.8384199738502502,0.41158798336982727,48.30000305175781,-179.70001220703125,-28.500001907348633
557609,3.0236127376556396,8.167043685913086,-1.5617512464523315,-0.5792719721794128,0.44969800114631653,-0.15243999660015106,26.700000762939453,-170.10000610351562,-12.90000057220459
557629,2.993107318878174,8.568398475646973,-1.7848585844039917,-0.33536797761917114,0.23628199100494385,0.1295740008354187,33.900001525878906,-170.10000610351562,-23.100000381469727
557649,2.9464523792266846,8.686232566833496,-1.9110667705535889,-0.2896359860897064,0.007621999830007553,0.007621999830007553,36.30000305175781,-177.3000030517578,-26.100000381469727
557669,2.981144666671753,8.74903678894043,-1.9822458028793335,-0.1295740008354187,-0.2972579896450043,-0.2896359860897064,33.900001525878906,-186.90000915527344,-21.900001525878906
557692,2.9488449096679688,8.649147033691406,-1.9230296611785889,-0.08384199440479279,-0.4725639820098877,-0.6250039935112,31.500001907348633,-167.70001220703125,-15.300000190734863
557732,3.0654826164245605,8.701784133911133,-1.85543954372406,0.06859800219535828,-0.457319974899292,-0.41158798336982727,36.30000305175781,-179.70001220703125,-18.900001525878906
557752,3.0947916507720947,8.817225456237793,-1.85543954372406,-0.06859800219535828,-0.2896359860897064,-0.22103799879550934,33.900001525878906,-174.90000915527344,-30.30000114440918
557772,3.1558022499084473,8.77595329284668,-1.8135695457458496,-0.13719600439071655,-0.16768398880958557,0.030487999320030212,29.100000381469727,-179.70001220703125,-20.100000381469727
557795,3.171952247619629,8.924891471862793,-1.8267285823822021,-0.12195199728012085,0.1295740008354187,0.2972579896450043,33.900001525878906,-165.3000030517578,-19.5
557815,3.1755409240722656,8.78492546081543,-1.7860549688339233,-0.07621999830007553,0.23628199100494385,0.19054999947547913,38.70000076293945,-170.10000610351562,-27.900001525878906
557835,3.1827187538146973,8.87464714050293,-1.745381236076355,0.06859800219535828,0.3582339882850647,0.1295740008354187,41.10000228881836,-177.3000030517578,-28.500001907348633
557855,3.245523691177368,9.04691219329834,-1.7764846086502075,0.1295740008354187,0.4878079891204834,-0.1295740008354187,21.900001525878906,-174.90000915527344,-20.100000381469727
557877,3.1976723670959473,8.936256408691406,-1.743586778640747,0.13719600439071655,0.6097599864006042,-0.4192099869251251,21.900001525878906,-170.10000610351562,-21.30000114440918
557897,3.189896583557129,9.002650260925293,-1.7711013555526733,0.09146399796009064,0.7088459730148315,-0.5487840175628662,26.700000762939453,-172.5,-20.100000381469727
557917,3.138456106185913,8.903358459472656,-1.8291212320327759,-0.13719600439071655,0.7621999979019165,-0.6783579587936401,24.30000114440918,-179.70001220703125,-21.900001525878906
557940,3.138456106185913,8.866272926330566,-1.6550616025924683,-0.36585599184036255,0.6478700041770935,-0.39634400606155396,29.100000381469727,-179.70001220703125,-21.900001525878906
557960,3.100174903869629,8.966761589050293,-1.7208573818206787,-0.510673999786377,0.7012239694595337,-0.19054999947547913,38.70000076293945,-170.10000610351562,-23.100000381469727
557984,2.9697799682617188,8.68742847442627,-1.7238479852676392,-0.2439039945602417,0.49542999267578125,0.1600620001554489,29.100000381469727,-167.70001220703125,-18.900001525878906
558004,3.0720622539520264,8.92249870300293,-1.6706132888793945,-0.2134159952402115,0.28201398253440857,0.3048799932003021,29.100000381469727,-182.10000610351562,-20.700000762939453
558024,3.0918009281158447,8.988892555236816,-1.6622393131256104,-0.20579399168491364,0.2591480016708374,0.3048799932003021,31.500001907348633,-177.3000030517578,-21.900001525878906
558088,3.1701576709747314,8.900367736816406,-1.6777909994125366,-0.1448179930448532,-0.15243999660015106,-0.02286599949002266,33.900001525878906,-165.3000030517578,-18.900001525878906
558108,3.290982723236084,8.923096656799316,-1.5360311269760132,-0.2591480016708374,-0.1448179930448532,0.007621999830007553,41.10000228881836,-170.10000610351562,-21.900001525878906
558128,3.3753206729888916,8.953003883361816,-1.4941611289978027,-0.4344539940357208,-0.038109999150037766,0.114329993724823,38.70000076293945,-184.5,-25.500001907348633
558148,3.478201389312744,9.058277130126953,-1.555769920349121,-0.4420759975910187,0.07621999830007553,0.19817200303077698,33.900001525878906,-167.70001220703125,-21.30000114440918
558168,3.47580885887146,8.905750274658203,-1.5575642585754395,-0.5030519962310791,0.030487999320030212,0.22103799879550934,36.30000305175781,-182.10000610351562,-21.30000114440918
558188,3.5511748790740967,8.862086296081543,-1.4863852262496948,-0.41158798336982727,-0.08384199440479279,0.3734779953956604,41.10000228881836,-189.3000030517578,-24.900001525878906
558208,3.549380302429199,8.75800895690918,-1.449898600578308,-0.4344539940357208,-0.18292799592018127,0.2896359860897064,26.700000762939453,-174.90000915527344,-23.100000381469727
558228,3.5990262031555176,8.65453052520752,-1.2925869226455688,-0.3277460038661957,-0.23628199100494385,0.228659987449646,17.100000381469727,-165.3000030517578,-22.5
558248,3.5906522274017334,8.749635696411133,-1.3440272808074951,-0.3048799932003021,-0.17530599236488342,-0.18292799592018127,38.70000076293945,-167.70001220703125,-20.100000381469727
558270,3.5996243953704834,8.68443775177002,-1.2979702949523926,-0.26677000522613525,-0.19817200303077698,-0.2972579896450043,33.900001525878906,-174.90000915527344,-23.100000381469727
558290,3.5900540351867676,8.527724266052246,-1.2746427059173584,-0.09908600151538849,-0.05335399881005287,-0.38109999895095825,31.500001907348633,-174.90000915527344,-30.900001525878906
558310,3.543398857116699,8.541481971740723,-1.3464198112487793,-0.030487999320030212,0.038109999150037766,-0.2972579896450043,36.30000305175781,-182.10000610351562,-22.5
558330,3.481192111968994,8.68443775177002,-1.4373375177383423,0.08384199440479279,0.10670799762010574,-0.2439039945602417,33.900001525878906,-177.3000030517578,-26.700000762939453
558350,3.440518379211426,8.54088306427002,-1.4074304103851318,0.1295740008354187,0.114329993724823,-0.3277460038661957,33.900001525878906,-182.10000610351562,-24.30000114440918
558370,3.227579355239868,7.758512496948242,-1.308736801147461,0.08384199440479279,0.12195199728012085,-0.4420759975910187,31.500001907348633,-170.10000610351562,-20.100000381469727
558390,2.987126111984253,6.715351104736328,-0.9372900128364563,-0.06859800219535828,0.09908600151538849,-0.2743920087814331,36.30000305175781,-172.5,-20.100000381469727
558414,2.148529529571533,4.682861328125,-0.3720449209213257,-0.3582339882850647,0.5868939757347107,-0.07621999830007553,33.900001525878906,-179.70001220703125,-25.500001907348633
558435,1.403841495513916,3.7509546279907227,-0.2912956178188324,-0.4725639820098877,1.14329993724823,-0.13719600439071655,29.100000381469727,-179.70001220703125,-21.900001525878906
558455,0.5167955160140991,2.519378185272217,-0.39537250995635986,-0.41158798336982727,1.707327961921692,-0.457319974899292,38.70000076293945,-179.70001220703125,-24.30000114440918
558475,1.1849212646484375,3.8640036582946777,-0.7745951414108276,-0.12195199728012085,2.134160041809082,1.9131219387054443,38.70000076293945,-182.10000610351562,-20.100000381469727
558496,2.855534553527832,7.487553596496582,-0.9289160370826721,-0.5259180068969727,2.6677000522613525,4.344540119171143,33.900001525878906,-179.70001220703125,-22.5
558516,2.2376527786254883,9.211999893188477,-2.2071475982666016,-0.48018598556518555,5.022897720336914,4.169233798980713,31.500001907348633,-170.10000610351562,-33.900001525878906
558536,2.6575491428375244,13.114882469177246,-4.172645568847656,1.0289700031280518,5.693634033203125,5.777475833892822,14.700000762939453,-182.10000610351562,-29.100000381469727
558560,3.9686787128448486,14.36440372467041,-5.225975036621094,1.1280559301376343,2.1570260524749756,2.3475759029388428,19.5,-184.5,-18.30000114440918
558582,6.669294357299805,18.712305068969727,-3.774282217025757,1.3338500261306763,2.3170878887176514,6.951263904571533,14.700000762939453,-182.10000610351562,-26.100000381469727
558602,12.878616333007812,19.589181900024414,-8.210708618164062,-1.5472660064697266,9.176887512207031,19.436100006103516,-9.300000190734863,-184.5,-24.30000114440918
558622,13.83145809173584,19.599349975585938,-8.293251991271973,1.8902559280395508,-1.8978779315948486,6.875043869018555,-4.5,-162.90000915527344,-26.100000381469727
558687,4.893407821655273,13.378066062927246,-3.922621488571167,-0.6478700041770935,-6.562541961669922,-5.746987819671631,-11.700000762939453,-177.3000030517578,-20.700000762939453
558707,2.658745527267456,6.980926513671875,-0.7638285756111145,-4.047281742095947,-7.477181911468506,-10.548848152160645,2.700000047683716,-174.90000915527344,-20.100000381469727
558727,0.40554094314575195,1.5814900398254395,0.6328352689743042,-6.166197776794434,-3.292703866958618,-10.266833305358887,9.90000057220459,-177.3000030517578,-17.100000381469727
558747,-1.6969316005706787,-2.0372750759124756,0.9683934450149536,-6.257661819458008,-0.8079319596290588,-8.64334774017334,21.900001525878906,-179.70001220703125,-16.5
558767,-1.0730684995651245,-2.8124682903289795,0.8547462821006775,-4.710395812988281,-0.36585599184036255,-3.7881338596343994,21.900001525878906,-172.5,-26.700000762939453
558787,1.4917685985565186,1.2758389711380005,1.332662582397461,-2.957335948944092,-1.653973937034607,0.7317119836807251,33.900001525878906,-172.5,-21.30000114440918
558807,1.6748002767562866,1.9409739971160889,1.4014489650726318,-2.5152599811553955,-0.39634400606155396,-1.0975680351257324,29.100000381469727,-174.90000915527344,-21.900001525878906
558867,-0.19619089365005493,-0.6764997243881226,1.1801360845565796,-0.5411620140075684,0.5335400104522705,-2.134160041809082,38.70000076293945,-172.5,-31.500001907348633
558887,-0.5431138277053833,-0.5269639492034912,0.8996070027351379,0.18292799592018127,0.853663980960846,-2.39330792427063,29.100000381469727,-172.5,-23.700000762939453
558907,-0.6107039451599121,-0.2649773359298706,0.9402807354927063,0.4192099869251251,0.5945159792900085,-2.5152599811553955,38.70000076293945,-172.5,-26.100000381469727
558927,-0.6208723783493042,-0.2739494740962982,0.9875340461730957,0.2134159952402115,0.5868939757347107,-2.682943820953369,38.70000076293945,-182.10000610351562,-24.30000114440918
558947,-0.5891708135604858,-0.6274519562721252,0.9755712151527405,0.17530599236488342,0.685979962348938,-2.843005895614624,45.900001525878906,-174.90000915527344,-29.100000381469727
558967,-0.6645368337631226,-1.1364716291427612,0.9480566382408142,0.6173819899559021,0.8155539631843567,-2.3628199100494385,45.900001525878906,-189.3000030517578,-27.30000114440918
558987,-0.5431138277053833,-0.21712589263916016,0.7399028539657593,1.3109840154647827,1.3109840154647827,0.3277460038661957,43.5,-170.10000610351562,-27.30000114440918
559007,0.8601295948028564,5.035765647888184,-0.62147057056427,3.254593849182129,2.2561118602752686,6.097599983215332,41.10000228881836,-172.5,-27.900001525878906
559030,4.38498592376709,16.319133758544922,-2.104865074157715,1.7759259939193726,5.243936061859131,12.911667823791504,24.30000114440918,-191.70001220703125,-23.700000762939453
559050,9.80296516418457,19.599349975585938,-5.611179351806641,-0.3582339882850647,8.17840576171875,13.597647666931152,9.90000057220459,-170.10000610351562,-31.500001907348633
559073,9.536791801452637,19.594566345214844,-5.4203715324401855,1.9512319564819336,-0.7164679765701294,2.7058098316192627,2.700000047683716,-170.10000610351562,-26.700000762939453
559094,15.127634048461914,19.598752975463867,-7.474992752075195,1.9054999351501465,5.449729919433594,14.146431922912598,0.30000001192092896,-172.5,-28.500001907348633
559114,19.599349975585938,19.599349975585938,-8.171231269836426,-3.6356940269470215,3.155508041381836,13.49856185913086,-21.30000114440918,-167.70001220703125,-21.900001525878906
559138,13.69986629486084,19.599349975585938,-5.545981407165527,1.4558019638061523,-4.093013763427734,-6.196685791015625,-18.900001525878906,-177.3000030517578,-26.100000381469727
559158,8.970948219299316,18.930627822875977,-3.8974995613098145,0.5868939757347107,-5.175337791442871,-6.6387619972229,-21.30000114440918,-167.70001220703125,-23.100000381469727
559178,4.783947467803955,11.928167343139648,-1.61139714717865,2.0503180027008057,-5.419241905212402,-12.446725845336914,-2.1000001430511475,-170.10000610351562,-23.700000762939453
559198,1.2345670461654663,3.0206220149993896,-0.1812373250722885,2.1722700595855713,-4.74850606918335,-20.861413955688477,29.100000381469727,-172.5,-29.100000381469727
559218,-2.1987736225128174,-4.461548328399658,0.9235327243804932,1.471045970916748,-1.4329359531402588,-15.091559410095215,24.30000114440918,-162.90000915527344,-27.900001525878906
559238,0.10946016013622284,-2.558257579803467,0.24763119220733643,-0.6173819899559021,1.4634239673614502,1.5396440029144287,48.30000305175781,-174.90000915527344,-27.900001525878906
559258,1.3900842666625977,1.3601771593093872,0.9534398913383484,0.4039659798145294,0.426831990480423,3.4375219345092773,45.900001525878906,-170.10000610351562,-20.700000762939453
559281,1.3793176412582397,0.6944440007209778,0.4617663621902466,0.22103799879550934,2.2561118602752686,1.653973937034607,33.900001525878906,-170.10000610351562,-17.700000762939453
559301,1.6610430479049683,1.6413042545318604,0.2871086299419403,0.16768398880958557,1.806414008140564,2.3475759029388428,29.100000381469727,-165.3000030517578,-10.5
559323,0.6950421333312988,0.35110992193222046,0.37025049328804016,-0.22103799879550934,1.600619912147522,0.23628199100494385,33.900001525878906,-184.5,-22.5
559347,-0.0675901547074318,-0.8529518842697144,0.32598790526390076,0.36585599184036255,0.5868939757347107,-0.8765299916267395,33.900001525878906,-179.70001220703125,-25.500001907348633
559368,0.18362988531589508,-0.6579572558403015,0.37144678831100464,0.4725639820098877,0.02286599949002266,-1.0518360137939453,41.10000228881836,-162.90000915527344,-19.5
559388,0.26677176356315613,-0.6687238216400146,0.48509395122528076,0.1600620001554489,0.05335399881005287,-0.8765299916267395,21.900001525878906,-162.90000915527344,-16.5
559408,0.24763119220733643,-0.4462146461009979,0.2577996253967285,-0.13719600439071655,0.3277460038661957,-0.26677000522613525,31.500001907348633,-182.10000610351562,-13.500000953674316
559428,0.05801986902952194,-0.5742172598838806,0.12860073149204254,-0.228659987449646,0.5335400104522705,-0.060975998640060425,31.500001907348633,-170.10000610351562,-20.700000762939453
559448,-0.16508746147155762,-0.8852515816688538,0.11603973805904388,-0.22103799879550934,0.49542999267578125,-0.09146399796009064,36.30000305175781,-172.5,-17.700000762939453
559471,-0.23865903913974762,-0.7835673093795776,0.2703606188297272,-0.342989981174469,0.9451279640197754,0.6631140112876892,31.500001907348633,-162.90000915527344,-27.900001525878906
559491,0.5867782831192017,2.9949018955230713,-0.827829897403717,1.295740008354187,2.698187828063965,3.4680099487304688,26.700000762939453,-174.90000915527344,-18.900001525878906
559511,2.351300001144409,7.31110143661499,-1.4756187200546265,0.3125019967556,2.9344699382781982,5.625035762786865,14.700000762939453,-182.10000610351562,-24.30000114440918
559531,3.0654826164245605,12.876821517944336,-3.2006630897521973,1.5167779922485352,6.913153648376465,10.846105575561523,19.5,-179.70001220703125,-19.5
559552,9.09476375579834,19.599349975585938,-6.82899808883667,-3.7957558631896973,10.106771469116211,17.271451950073242,2.700000047683716,-170.10000610351562,-19.5
559572,11.606366157531738,19.560470581054688,-5.993392467498779,-3.6738038063049316,-1.1128119230270386,8.056453704833984,-6.900000095367432,-182.10000610351562,-26.700000762939453
559592,14.15804386138916,19.599349975585938,-6.591535568237305,0.4420759975910187,3.5213639736175537,4.131124019622803,-16.5,-172.5,-30.30000114440918
559612,19.599349975585938,19.599349975585938,-9.80296516418457,-4.489357948303223,6.913153648376465,10.221101760864258,-28.500001907348633,-165.3000030517578,-17.100000381469727
559632,15.737739562988281,19.599349975585938,-7.440300464630127,-1.600619912147522,-9.237863540649414,-3.955817937850952,-28.500001907348633,-167.70001220703125,-19.5
559653,12.744632720947266,19.599349975585938,-3.758132219314575,-2.835383892059326,-8.910118103027344,-0.6783579587936401,-16.5,-167.70001220703125,-27.30000114440918
559674,8.102444648742676,17.304874420166016,-3.290384531021118,-1.4558019638061523,-6.547297954559326,-5.663146018981934,-16.5,-160.5,-26.700000762939453
559694,4.048231601715088,8.694605827331543,-1.3577845096588135,-1.425313949584961,-9.176887512207031,-12.477213859558105,-9.300000190734863,-165.3000030517578,-22.5
559716,0.15252645313739777,-1.1322846412658691,0.6914532780647278,2.682943820953369,-4.085391998291016,-19.626649856567383,14.700000762939453,-170.10000610351562,-14.700000762939453
559737,-2.6246514320373535,-5.19786262512207,1.2752407789230347,0.6478700041770935,-0.038109999150037766,-11.280559539794922,31.500001907348633,-170.10000610351562,-20.700000762939453
559757,-0.5640488266944885,-1.2590909004211426,-0.034094151109457016,0.6326259970664978,1.4939119815826416,-0.6478700041770935,41.10000228881836,-172.5,-18.30000114440918
559778,1.0048801898956299,1.7687088251113892,0.17106889188289642,1.7683039903640747,-0.2972579896450043,-0.39634400606155396,31.500001907348633,-177.3000030517578,-20.700000762939453
559798,1.032992959022522,0.6723126769065857,0.3265860676765442,0.8993960022926331,0.7926880121231079,-1.0975680351257324,31.500001907348633,-177.3000030517578,-21.30000114440918
559818,0.6358259916305542,-0.09749730676412582,0.3738393485546112,0.3125019967556,0.571649968624115,0.33536797761917114,48.30000305175781,-179.70001220703125,-24.900001525878906
559839,0.4785143733024597,-0.29069748520851135,0.6711164116859436,-0.36585599184036255,0.49542999267578125,1.0899460315704346,36.30000305175781,-167.70001220703125,-20.100000381469727
559859,0.12979702651500702,-0.359483927488327,0.5843856930732727,-0.9603719711303711,0.9222619533538818,0.8384199738502502,36.30000305175781,-179.70001220703125,-27.30000114440918
559881,-0.0017944289138540626,0.031103434041142464,0.43664437532424927,-1.3033620119094849,0.7621999979019165,0.19054999947547913,31.500001907348633,-172.5,-25.500001907348633
559902,-0.1411617398262024,-0.06878644227981567,0.2356683313846588,-1.6311079263687134,0.38109999895095825,-0.7698220014572144,29.100000381469727,-182.10000610351562,-13.500000953674316
559922,-0.24164976179599762,-0.61847984790802,0.24105161428451538,-1.4634239673614502,-0.22103799879550934,-1.3795819282531738,24.30000114440918,-179.70001220703125,-23.100000381469727
559942,0.041870009154081345,-0.6956402659416199,0.1943964660167694,-0.8917739987373352,-0.7317119836807251,-0.8384199738502502,29.100000381469727,-172.5,-15.90000057220459
559962,0.14594689011573792,-0.6567609906196594,0.23028504848480225,-0.8231759667396545,-0.8155539631843567,-0.510673999786377,33.900001525878906,-179.70001220703125,-26.700000762939453
560002,1.2004729509353638,2.5893609523773193,-0.48090696334838867,0.5335400104522705,0.4725639820098877,3.5289859771728516,26.700000762939453,-170.10000610351562,-16.5
560022,2.7149710655212402,7.60598611831665,-1.0168430805206299,0.46494197845458984,2.0198299884796143,7.317119598388672,26.700000762939453,-167.70001220703125,-20.100000381469727
560042,4.912548065185547,15.896247863769531,-3.2108314037323,-0.6173819899559021,6.989373683929443,15.907114028930664,5.100000381469727,-165.3000030517578,-23.700000762939453
560062,11.429914474487305,19.599349975585938,-6.242818355560303,-5.480217933654785,8.025965690612793,16.341567993164062,-6.900000095367432,-177.3000030517578,-18.900001525878906
560082,10.601486206054688,19.599349975585938,-4.486072063446045,0.114329993724823,-2.225623846054077,-0.7088459730148315,-26.100000381469727,-172.5,-23.700000762939453
560102,14.38414192199707,19.598154067993164,-6.666901588439941,1.3414719104766846,7.60675573348999,10.731775283813477,-4.5,-174.90000915527344,-18.30000114440918
560126,18.331886291503906,19.599349975585938,-8.728102684020996,-0.8079319596290588,-1.2271419763565063,0.030487999320030212,-30.900001525878906,-158.10000610351562,-29.700000762939453
560146,13.53956413269043,19.599349975585938,-6.1925740242004395,-0.28201398253440857,-3.8795979022979736,-3.3308138847351074,-30.900001525878906,-158.10000610351562,-25.500001907348633
560166,10.29703140258789,19.571836471557617,-5.216404914855957,-1.5320219993591309,-3.6433160305023193,-3.5747179985046387,-30.900001525878906,-167.70001220703125,-29.100000381469727
560186,5.401230812072754,12.538272857666016,-2.4434139728546143,-2.4619059562683105,-9.039691925048828,-10.899459838867188,-26.100000381469727,-170.10000610351562,-15.300000190734863
560246,-1.821345329284668,-6.628022193908691,1.6610430479049683,-1.5472660064697266,-1.295740008354187,-5.884183883666992,29.100000381469727,-165.3000030517578,-25.500001907348633
560266,1.522871971130371,0.34692293405532837,1.4684410095214844,-0.685979962348938,-1.4558019638061523,5.541193962097168,41.10000228881836,-174.90000915527344,-25.500001907348633
560288,2.638408660888672,3.341226577758789,1.1544159650802612,0.6097599864006042,0.23628199100494385,3.864353895187378,26.700000762939453,-184.5,-18.900001525878906
560308,1.4181970357894897,0.8559426069259644,0.6160872578620911,0.7545779943466187,0.9603719711303711,0.6554920077323914,26.700000762939453,-182.10000610351562,-18.900001525878906
560330,0.8403908610343933,-0.30923992395401,0.7255474328994751,1.3262280225753784,0.02286599949002266,0.2743920087814331,19.5,-179.70001220703125,-24.900001525878906
560350,0.409129798412323,-0.6418074369430542,0.718967854976654,1.707327961921692,0.038109999150037766,-0.33536797761917114,19.5,-167.70001220703125,-18.900001525878906
560370,0.15850788354873657,-0.4815050959587097,0.47911250591278076,1.4405579566955566,0.19817200303077698,-1.067080020904541,31.500001907348633,-179.70001220703125,-21.30000114440918
560394,0.21592961251735687,-0.2912956178188324,0.3074454963207245,0.7088459730148315,0.038109999150037766,-1.4862899780273438,31.500001907348633,-172.5,-29.700000762939453
560414,0.22789247334003448,-0.2960807681083679,0.2326776087284088,0.09146399796009064,-0.060975998640060425,-1.2576299905776978,33.900001525878906,-177.3000030517578,-24.30000114440918
560434,0.19080761075019836,-0.5640488266944885,0.356493204832077,-0.5487840175628662,-0.2972579896450043,-0.9451279640197754,31.500001907348633,-182.10000610351562,-21.900001525878906
560456,0.14175988733768463,-1.20705246925354,0.6902570128440857,-1.14329993724823,-0.6250039935112,-0.5030519962310791,33.900001525878906,-174.90000915527344,-26.100000381469727
560476,0.3881947994232178,-1.3625696897506714,1.2943813800811768,-1.6615959405899048,-0.7317119836807251,0.7926880121231079,24.30000114440918,-177.3000030517578,-21.900001525878906
560496,0.9546361565589905,0.39656877517700195,1.4080286026000977,-1.699705958366394,0.6402480006217957,2.835383892059326,21.900001525878906,-177.3000030517578,-19.5
560516,3.4094150066375732,8.554640769958496,-1.538423776626587,1.1356779336929321,4.306429862976074,9.260729789733887,5.100000381469727,-170.10000610351562,-16.5
560536,4.150514125823975,10.940034866333008,-1.6825761795043945,-0.02286599949002266,4.367405891418457,9.847623825073242,5.100000381469727,-167.70001220703125,-23.100000381469727
560556,5.471811771392822,17.702638626098633,-3.776674747467041,1.3262280225753784,6.593029975891113,12.85831356048584,12.300000190734863,-170.10000610351562,-24.30000114440918
560576,11.517243385314941,19.599349975585938,-6.4372148513793945,-3.49849796295166,5.121984004974365,13.544293403625488,-18.900001525878906,-179.70001220703125,-21.30000114440918
560600,14.00492000579834,19.599349975585938,-6.181807518005371,1.8673899173736572,4.1387457847595215,4.1387457847595215,-9.300000190734863,-167.70001220703125,-22.5
560620,19.599349975585938,19.599349975585938,-7.759110450744629,-3.407033920288086,7.728707790374756,10.617445945739746,-30.900001525878906,-162.90000915527344,-20.100000381469727
560640,16.373565673828125,19.599349975585938,-7.6149582862854,0.38109999895095825,-1.2500079870224,-1.9588539600372314,-28.500001907348633,-170.10000610351562,-22.5
560663,13.230324745178223,19.599349975585938,-5.354576110839844,-1.1280559301376343,-4.207344055175781,-1.478667974472046,-28.500001907348633,-172.5,-27.900001525878906
560683,8.824402809143066,18.03939437866211,-3.773085832595825,-0.6936019659042358,-5.0533857345581055,-5.282045841217041,-28.500001907348633,-174.90000915527344,-19.5
560705,4.20075798034668,10.425033569335938,-1.3512049913406372,0.5411620140075684,-5.899427890777588,-11.25769329071045,-16.5,-170.10000610351562,-21.30000114440918
560725,1.1286958456039429,2.8387866020202637,-0.8762794733047485,2.240867853164673,-4.489357948303223,-18.13273811340332,-9.300000190734863,-177.3000030517578,-25.500001907348633
560747,-2.0318915843963623,-3.571511745452881,0.39656877517700195,1.2804960012435913,-1.9740979671478271,-14.085455894470215,9.90000057220459,-179.70001220703125,-24.30000114440918
560768,-1.3284755945205688,-3.5248565673828125,-0.04665515199303627,0.007621999830007553,0.2591480016708374,-2.3094658851623535,9.90000057220459,-179.70001220703125,-23.700000762939453
560788,0.9492529034614563,1.1765471696853638,-0.22011661529541016,1.5853760242462158,-1.3567159175872803,2.240867853164673,14.700000762939453,-184.5,-24.900001525878906
560808,2.107257604598999,2.5385186672210693,0.3792226314544678,0.8993960022926331,-0.685979962348938,0.3277460038661957,21.900001525878906,-170.10000610351562,-25.500001907348633
560828,1.3290736675262451,0.3618764877319336,0.43784064054489136,-0.39634400606155396,0.457319974899292,-0.9908599853515625,14.700000762939453,-167.70001220703125,-22.5
560848,0.9319067597389221,-0.5347397923469543,0.8051004409790039,-0.8612859845161438,0.33536797761917114,-0.25152599811553955,17.100000381469727,-160.5,-21.900001525878906
560868,0.6477888226509094,-0.34632477164268494,0.9109717607498169,-1.1280559301376343,1.189031958580017,0.05335399881005287,12.300000190734863,-189.3000030517578,-18.30000114440918
560888,0.04605700820684433,-0.2631829082965851,0.6794903874397278,-1.2195199728012085,1.6844619512557983,-0.7240899801254272,19.5,-182.10000610351562,-24.30000114440918
560908,-0.500047504901886,-0.4294666647911072,0.5251695513725281,-1.0289700031280518,1.3567159175872803,-1.8140360116958618,12.300000190734863,-174.90000915527344,-19.5
560949,-0.61847984790802,-0.8200539946556091,0.4533923864364624,-0.10670799762010574,-0.2591480016708374,-2.9192259311676025,33.900001525878906,-172.5,-30.30000114440918
560969,-0.30565106868743896,-0.7793802618980408,0.6190779805183411,0.06859800219535828,-0.7164679765701294,-1.8978779315948486,29.100000381469727,-165.3000030517578,-29.100000381469727
560989,-0.16688188910484314,-0.806894838809967,0.7536601424217224,-0.19817200303077698,-0.48018598556518555,-0.3048799932003021,33.900001525878906,-184.5,-27.900001525878906
561009,0.4252796471118927,1.6694170236587524,0.18482618033885956,0.6936019659042358,0.853663980960846,2.7591638565063477,26.700000762939453,-186.90000915527344,-22.5
561029,2.759831666946411,7.338615894317627,-1.2638760805130005,0.9527499675750732,1.882633924484253,8.384200096130371,17.100000381469727,-182.10000610351562,-18.30000114440918
561049,4.117616176605225,13.311073303222656,-1.5180869102478027,-0.571649968624115,4.687530040740967,12.050381660461426,2.700000047683716,-162.90000915527344,-24.900001525878906
561069,11.115290641784668,19.599349975585938,-5.8318939208984375,-2.75154185295105,10.632689476013184,19.619028091430664,0.30000001192092896,-172.5,-15.90000057220459
561093,11.257050514221191,19.559274673461914,-4.48367977142334,-1.600619912147522,-2.3018438816070557,3.0640439987182617,-11.700000762939453,-170.10000610351562,-23.100000381469727
561113,12.155461311340332,19.599349975585938,-5.884530544281006,2.446661949157715,4.618931770324707,2.2027578353881836,-21.30000114440918,-165.3000030517578,-21.900001525878906
561133,19.599349975585938,19.599349975585938,-7.934964656829834,-4.10825777053833,9.382681846618652,16.234859466552734,-23.700000762939453,-162.90000915527344,-26.700000762939453
561153,16.118757247924805,19.599349975585938,-7.111321926116943,1.6082419157028198,-3.2241058349609375,-5.701255798339844,-28.500001907348633,-165.3000030517578,-24.900001525878906
561173,13.080788612365723,19.599349975585938,-5.643478870391846,1.0061039924621582,-3.7424018383026123,-5.724122047424316,-30.900001525878906,-177.3000030517578,-27.30000114440918
561193,8.725709915161133,18.63514518737793,-3.9842302799224854,0.685979962348938,-4.199721813201904,-5.625035762786865,-23.700000762939453,-172.5,-20.700000762939453
561237,0.24404233694076538,2.0426583290100098,-0.10646945238113403,1.3033620119094849,-4.824726104736328,-18.833961486816406,14.700000762939453,-174.90000915527344,-24.30000114440918
561266,-1.7938307523727417,-3.0062665939331055,0.4605700969696045,-1.2042759656906128,-0.5335400104522705,-5.922293663024902,26.700000762939453,-170.10000610351562,-21.30000114440918
561287,0.44202765822410583,-0.3253897726535797,0.517991840839386,-1.2118979692459106,-1.2347639799118042,0.4192099869251251,33.900001525878906,-179.70001220703125,-17.700000762939453
561327,1.3506067991256714,0.3074454963207245,0.5293565392494202,-0.3734779953956604,-0.15243999660015106,1.1814099550247192,38.70000076293945,-177.3000030517578,-20.700000762939453
561347,1.315914511680603,0.11544159054756165,0.8966163396835327,-0.39634400606155396,-0.4344539940357208,1.6920839548110962,36.30000305175781,-174.90000915527344,-23.100000381469727
561367,0.7877542972564697,-0.5867782831192017,1.0288058519363403,-0.3887220025062561,0.17530599236488342,1.1814099550247192,26.700000762939453,-177.3000030517578,-17.100000381469727
561387,0.5251695513725281,-0.09450659155845642,0.9570287466049194,-0.04573199898004532,0.7774440050125122,0.5335400104522705,26.700000762939453,-172.5,-20.100000381469727
561409,0.24822933971881866,0.12022674083709717,0.7757914066314697,-0.10670799762010574,1.1509219408035278,-0.9603719711303711,21.900001525878906,-177.3000030517578,-18.900001525878906
561429,0.016149859875440598,-0.36008206009864807,0.6866681575775146,-0.20579399168491364,1.0442140102386475,-2.1036720275878906,26.700000762939453,-182.10000610351562,-15.90000057220459
561449,0.013757288455963135,-0.6854718327522278,0.8254373073577881,-0.15243999660015106,0.7926880121231079,-1.9436099529266357,33.900001525878906,-182.10000610351562,-30.30000114440918
561469,0.05742172524333,-0.7452861666679382,0.9055884480476379,-0.06859800219535828,0.8612859845161438,-1.1204339265823364,24.30000114440918,-177.3000030517578,-24.30000114440918
561489,-0.025122005492448807,-0.9342993497848511,0.8792701959609985,-0.10670799762010574,1.1128119230270386,-0.04573199898004532,24.30000114440918,-167.70001220703125,-24.900001525878906
561509,0.2488274723291397,0.3415396511554718,0.62147057056427,0.4192099869251251,1.9512319564819336,1.9740979671478271,38.70000076293945,-174.90000915527344,-21.900001525878906
561529,2.0911078453063965,6.113619327545166,-1.1316864490509033,1.7759259939193726,3.6814258098602295,7.073215961456299,12.300000190734863,-167.70001220703125,-23.100000381469727
561549,3.776674747467041,11.647638320922852,-1.2878018617630005,0.228659987449646,4.481735706329346,8.64334774017334,19.5,-160.5,-20.100000381469727
561569,7.662809371948242,19.389402389526367,-5.263658046722412,0.1600620001554489,11.28818130493164,15.122047424316406,5.100000381469727,-174.90000915527344,-20.100000381469727
561629,18.516712188720703,19.598752975463867,-7.942142486572266,-1.8445239067077637,8.10218620300293,14.352225303649902,-16.5,-179.70001220703125,-23.700000762939453
561685,9.209607124328613,19.094518661499023,-3.3017492294311523,-1.2271419763565063,-4.314052104949951,-4.992409706115723,-11.700000762939453,-174.90000915527344,-24.900001525878906
561704,7.100555419921875,15.999726295471191,-2.926713466644287,-0.6631140112876892,-4.199721813201904,-8.079319953918457,-11.700000762939453,-179.70001220703125,-21.900001525878906
561744,-0.46296265721321106,-0.2398553341627121,0.17705032229423523,2.1722700595855713,-1.9588539600372314,-17.37816047668457,31.500001907348633,-179.70001220703125,-27.900001525878906
561768,-2.6061089038848877,-4.030287265777588,0.4079335033893585,0.853663980960846,0.007621999830007553,-9.641829490661621,41.10000228881836,-172.5,-22.5
561788,-0.27873462438583374,-0.4139149487018585,0.0065795728005468845,0.08384199440479279,-0.5335400104522705,0,41.10000228881836,-179.70001220703125,-20.700000762939453
561811,1.0760592222213745,1.9290111064910889,0.34931549429893494,0.5792719721794128,-1.189031958580017,-0.06859800219535828,48.30000305175781,-177.3000030517578,-22.5
561832,0.8326150178909302,0.6346296668052673,0.29189378023147583,-0.20579399168491364,-0.35061198472976685,-0.8155539631843567,38.70000076293945,-179.70001220703125,-19.5
561852,0.6083114147186279,-0.3313712179660797,0.5670395493507385,-0.5640279650688171,-0.9756159782409668,0.20579399168491364,45.900001525878906,-170.10000610351562,-20.100000381469727
561872,0.3367545008659363,-0.6292464137077332,0.703416109085083,-0.22103799879550934,-0.6173819899559021,1.3414719104766846,43.5,-174.90000915527344,-21.900001525878906
561892,0.17047074437141418,-0.45877566933631897,0.6639387011528015,-0.060975998640060425,-0.41158798336982727,1.295740008354187,36.30000305175781,-177.3000030517578,-22.5
561912,-0.05323472619056702,-0.2458367645740509,0.5712265372276306,-0.038109999150037766,-0.35061198472976685,0.685979962348938,33.900001525878906,-174.90000915527344,-21.900001525878906
561932,-0.11663787811994553,-0.5323472619056702,0.5957503914833069,-0.2972579896450043,-0.44969800114631653,-0.13719600439071655,31.500001907348633,-179.70001220703125,-6.900000095367432
561956,-0.05383286625146866,-0.7303325533866882,0.4928697943687439,-0.3201240003108978,-0.1295740008354187,-0.07621999830007553,38.70000076293945,-165.3000030517578,-30.30000114440918
561976,0.09809544682502747,-0.1782466024160385,0.4300647974014282,-0.16768398880958557,0.3048799932003021,0.7621999979019165,38.70000076293945,-177.3000030517578,-20.700000762939453
561997,1.7238479852676392,5.321079730987549,-0.8433815836906433,2.2637338638305664,2.583858013153076,5.7164998054504395,33.900001525878906,-170.10000610351562,-20.700000762939453
562017,4.791723251342773,14.065930366516113,-2.754448413848877,0.8231759667396545,6.5320539474487305,12.111357688903809,12.300000190734863,-167.70001220703125,-23.100000381469727
562037,7.669389247894287,19.599349975585938,-5.812155246734619,-1.7759259939193726,7.057971954345703,11.867453575134277,9.90000057220459,-165.3000030517578,-18.30000114440918
562059,9.85560131072998,19.206371307373047,-4.662524223327637,-3.704291820526123,-2.5533699989318848,1.013725996017456,-9.300000190734863,-179.70001220703125,-27.30000114440918
562079,4.9227166175842285,11.383258819580078,-1.4726279973983765,-0.3734779953956604,-3.7271578311920166,-8.025965690612793,5.100000381469727,-184.5,-22.5
562099,9.04990291595459,19.599349975585938,-5.148814678192139,0.800309956073761,5.304912090301514,8.338467597961426,19.5,-177.3000030517578,-25.500001907348633
562123,9.06904411315918,19.38701057434082,-5.638095855712891,-0.510673999786377,-3.2317278385162354,-7.065593719482422,9.90000057220459,-165.3000030517578,-21.30000114440918
562143,4.89400577545166,12.667471885681152,-2.3082337379455566,0.3201240003108978,-5.838451862335205,-8.81865406036377,14.700000762939453,-172.5,-24.900001525878906
562163,4.006959915161133,10.890987396240234,-2.364459276199341,0.28201398253440857,-0.7469559907913208,-3.696669816970825,24.30000114440918,-177.3000030517578,-20.100000381469727
562183,2.927311658859253,9.20721435546875,-2.5445001125335693,0.5335400104522705,-1.5091559886932373,-3.971061944961548,24.30000114440918,-160.5,-20.100000381469727
562203,1.748371958732605,6.349885940551758,-1.2955776453018188,-0.1600620001554489,-2.789651870727539,-4.67990779876709,24.30000114440918,-172.5,-21.900001525878906
562223,1.208846926689148,4.818639755249023,-0.8577370047569275,-0.48018598556518555,-1.189031958580017,-3.246971845626831,31.500001907348633,-167.70001220703125,-26.700000762939453
562243,1.1759490966796875,4.262366771697998,-1.1735565662384033,-0.2439039945602417,-0.4192099869251251,-2.5000159740448,26.700000762939453,-170.10000610351562,-20.100000381469727
562267,1.0957978963851929,3.6355130672454834,-0.9707860350608826,-0.571649968624115,-0.7621999979019165,-1.6311079263687134,33.900001525878906,-167.70001220703125,-18.900001525878906
562287,1.5868732929229736,4.26954460144043,-0.6400129795074463,-0.8612859845161438,-1.1814099550247192,0.2743920087814331,43.5,-174.90000915527344,-17.700000762939453
562307,1.9230296611785889,4.806078910827637,-0.5054308176040649,-0.914639949798584,-1.1661659479141235,0.3734779953956604,29.100000381469727,-174.90000915527344,-26.100000381469727
562347,2.5319392681121826,6.893597602844238,-0.5807968378067017,-0.6250039935112,-1.1128119230270386,0.4420759975910187,26.700000762939453,-170.10000610351562,-22.5
562369,3.031986713409424,8.300430297851562,-0.6812848448753357,-0.9375059604644775,-0.6478700041770935,0.19054999947547913,36.30000305175781,-172.5,-22.5
562389,2.915348768234253,8.71135425567627,-1.1137422323226929,-0.5411620140075684,0.1600620001554489,-0.18292799592018127,26.700000762939453,-165.3000030517578,-27.900001525878906
562409,3.079838275909424,9.754515647888184,-1.448702335357666,-0.36585599184036255,0.49542999267578125,0.5335400104522705,24.30000114440918,-177.3000030517578,-22.5
562453,5.3814921379089355,14.701157569885254,-2.6402029991149902,-0.7240899801254272,1.9207439422607422,1.6234859228134155,21.900001525878906,-165.3000030517578,-27.900001525878906
562473,3.476407051086426,9.95549201965332,-1.842280387878418,-0.5259180068969727,0.114329993724823,-3.056421995162964,19.5,-167.70001220703125,-23.700000762939453
562493,2.2011661529541016,7.5994062423706055,-1.958320140838623,1.0061039924621582,0.9451279640197754,-1.478667974472046,31.500001907348633,-172.5,-15.90000057220459
562537,2.533733606338501,8.81782341003418,-1.9601144790649414,1.4634239673614502,0.030487999320030212,-0.7621999979019165,29.100000381469727,-167.70001220703125,-20.700000762939453
562557,2.6425955295562744,8.782533645629883,-2.0073678493499756,1.3795819282531738,0,-1.6234859228134155,36.30000305175781,-174.90000915527344,-21.900001525878906
562577,2.841179132461548,8.298635482788086,-1.928412914276123,0.914639949798584,0.015243999660015106,-2.4009299278259277,29.100000381469727,-167.70001220703125,-20.700000762939453
562597,2.9165451526641846,7.643070697784424,-1.8925243616104126,0.4420759975910187,0.15243999660015106,-2.3094658851623535,36.30000305175781,-165.3000030517578,-24.900001525878906
562617,3.1288859844207764,7.720829486846924,-2.0576117038726807,0.114329993724823,0.426831990480423,-1.0518360137939453,41.10000228881836,-179.70001220703125,-32.10000228881836
562637,3.377713441848755,8.41048812866211,-2.3507018089294434,-0.15243999660015106,0.46494197845458984,0.12195199728012085,24.30000114440918,-170.10000610351562,-20.100000381469727
562657,3.68396258354187,8.92249870300293,-2.5857720375061035,-0.41158798336982727,0.16768398880958557,0.8765299916267395,33.900001525878906,-170.10000610351562,-23.100000381469727
562677,3.865797996520996,9.171326637268066,-2.542705774307251,-0.6707359552383423,-0.28201398253440857,1.1737879514694214,36.30000305175781,-170.10000610351562,-20.700000762939453
562697,3.8167502880096436,9.00504207611084,-2.4344418048858643,-0.8307979702949524,-0.5030519962310791,1.196653962135315,36.30000305175781,-172.5,-24.900001525878906
562759,3.514688014984131,8.750831604003906,-2.2376527786254883,-0.2134159952402115,-0.8689079880714417,-1.2804960012435913,31.500001907348633,-186.90000915527344,-19.5
562782,3.3585727214813232,8.39673137664795,-2.1383612155914307,-0.114329993724823,-0.9832379817962646,-1.7301939725875854,41.10000228881836,-184.5,-17.700000762939453
562802,3.177335500717163,7.782438278198242,-1.949347972869873,-0.1295740008354187,-0.9603719711303711,-1.6844619512557983,43.5,-172.5,-23.100000381469727
562823,3.228177547454834,7.798588275909424,-1.934394359588623,-0.12195199728012085,-0.7317119836807251,-1.0594580173492432,38.70000076293945,-165.3000030517578,-22.5
562844,3.2233924865722656,7.984610557556152,-1.9565256834030151,-0.19817200303077698,-0.44969800114631653,-0.7164679765701294,50.70000076293945,-177.3000030517578,-18.30000114440918
562864,3.448294162750244,8.42663860321045,-2.0612006187438965,-0.1600620001554489,-0.2591480016708374,-0.510673999786377,38.70000076293945,-177.3000030517578,-14.700000762939453
562884,3.5601470470428467,8.430825233459473,-1.9816476106643677,-0.2439039945602417,-0.05335399881005287,-0.6250039935112,45.900001525878906,-170.10000610351562,-17.700000762939453
562904,3.6289334297180176,8.374001502990723,-2.044452667236328,-0.25152599811553955,0.2134159952402115,-0.685979962348938,36.30000305175781,-174.90000915527344,-20.700000762939453
562924,3.6702053546905518,8.385964393615723,-2.020526885986328,0.04573199898004532,0.2743920087814331,-0.5868939757347107,36.30000305175781,-182.10000610351562,-20.100000381469727
562946,4.256983757019043,9.630102157592773,-2.24183988571167,0.4344539940357208,0.36585599184036255,-0.12195199728012085,53.10000228881836,-189.3000030517578,-20.100000381469727
562966,3.950136184692383,8.650941848754883,-1.8644115924835205,-0.07621999830007553,0.2134159952402115,-1.1051899194717407,29.100000381469727,-177.3000030517578,-18.900001525878906
562987,4.133167743682861,9.48834228515625,-1.918244481086731,0.4878079891204834,0.23628199100494385,-0.18292799592018127,50.70000076293945,-162.90000915527344,-21.900001525878906
563007,4.151710510253906,9.73238468170166,-1.9140574932098389,0,-0.02286599949002266,-0.7774440050125122,38.70000076293945,-179.70001220703125,-20.100000381469727
563027,3.45786452293396,7.909842491149902,-1.515694260597229,-0.4192099869251251,-0.3125019967556,-1.0594580173492432,55.500003814697266,-162.90000915527344,-21.900001525878906
563050,3.233560800552368,8.336318969726562,-1.3936731815338135,-0.015243999660015106,-0.33536797761917114,0.2743920087814331,43.5,-165.3000030517578,-23.100000381469727
563070,2.7472705841064453,9.51226806640625,-1.4534873962402344,-0.06859800219535828,-0.12195199728012085,0.457319974899292,48.30000305175781,-172.5,-23.100000381469727
563092,1.6975297927856445,9.682140350341797,-1.6909501552581787,-0.35061198472976685,-0.17530599236488342,-0.25152599811553955,33.900001525878906,-167.70001220703125,-16.5
563112,0.9971043467521667,8.570192337036133,-1.3224941492080688,-0.7698220014572144,-0.8384199738502502,-0.9298839569091797,45.900001525878906,-167.70001220703125,-19.5
563135,0.8738868832588196,9.49013614654541,-1.399654507637024,-0.4878079891204834,0.08384199440479279,0.2439039945602417,36.30000305175781,-174.90000915527344,-21.900001525878906
563155,0.3869985044002533,10.210898399353027,-2.0133492946624756,-0.2439039945602417,0.3048799932003021,-0.030487999320030212,43.5,-174.90000915527344,-20.700000762939453
563175,0.11484345048666,10.443575859069824,-2.1832218170166016,0.23628199100494385,-0.060975998640060425,-0.6173819899559021,41.10000228881836,-172.5,-23.100000381469727
563236,-0.1280025988817215,9.984800338745117,-2.3740293979644775,1.4100699424743652,-0.9375059604644775,-2.743919849395752,45.900001525878906,-177.3000030517578,-14.700000762939453
563256,-0.253014475107193,9.059473037719727,-2.331561326980591,1.4862899780273438,-0.7317119836807251,-2.126538038253784,57.900001525878906,-179.70001220703125,-25.500001907348633
563276,0.36008206009864807,9.479968070983887,-2.21791410446167,1.3262280225753784,-0.6173819899559021,-0.6554920077323914,62.70000076293945,-162.90000915527344,-21.30000114440918
563296,0.5706284046173096,9.28018856048584,-2.196381092071533,0.8689079880714417,-0.2591480016708374,-0.07621999830007553,48.30000305175781,-165.3000030517578,-18.900001525878906
563320,0.6238631010055542,8.841151237487793,-2.0223214626312256,0.5182960033416748,-0.26677000522613525,0,62.70000076293945,-189.3000030517578,-16.5
563340,0.9713841676712036,8.800477981567383,-1.9487497806549072,0.23628199100494385,-0.17530599236488342,0.13719600439071655,50.70000076293945,-170.10000610351562,-18.900001525878906
563360,1.0599093437194824,8.2262601852417,-1.699324131011963,-0.10670799762010574,-0.33536797761917114,-0.2896359860897064,53.10000228881836,-158.10000610351562,-16.5
563383,1.2614835500717163,8.1724271774292,-1.5563679933547974,-0.12195199728012085,-0.10670799762010574,-0.007621999830007553,65.10000610351562,-174.90000915527344,-22.5
563403,1.8949168920516968,9.988389015197754,-2.047443389892578,0.07621999830007553,0.19054999947547913,-0.1600620001554489,50.70000076293945,-177.3000030517578,-21.30000114440918
563424,1.9792550802230835,9.87653636932373,-1.9918160438537598,-0.17530599236488342,-0.2134159952402115,-0.7850660085678101,50.70000076293945,-158.10000610351562,-18.30000114440918
563444,1.5342366695404053,8.058181762695312,-1.8034011125564575,-0.3887220025062561,-0.12195199728012085,-2.1189160346984863,55.500003814697266,-172.5,-9.90000057220459
563464,1.9050853252410889,7.936161041259766,-1.9008983373641968,0.2972579896450043,-0.26677000522613525,-0.9756159782409668,55.500003814697266,-170.10000610351562,-17.700000762939453
563486,1.7160722017288208,8.052799224853516,-2.1766421794891357,0.41158798336982727,0.07621999830007553,-0.7469559907913208,48.30000305175781,-177.3000030517578,-20.700000762939453
563546,2.24782133102417,9.338208198547363,-2.978153944015503,0.9832379817962646,-0.26677000522613525,-1.3490939140319824,72.30000305175781,-172.5,-15.90000057220459
563570,2.637810468673706,10.04700756072998,-3.3753206729888916,0.9451279640197754,-0.10670799762010574,-1.5625100135803223,65.10000610351562,-174.90000915527344,-21.900001525878906
563590,2.836992025375366,10.093064308166504,-3.6379055976867676,0.7164679765701294,-0.49542999267578125,-2.3704419136047363,62.70000076293945,-167.70001220703125,-7.500000476837158
563610,2.549285411834717,8.58095932006836,-3.720449209213257,0.7621999979019165,-0.7164679765701294,-2.9725799560546875,60.30000305175781,-158.10000610351562,-21.30000114440918
563673,3.7898337841033936,9.73417854309082,-3.285001277923584,0.457319974899292,-0.39634400606155396,-1.3567159175872803,79.5,-162.90000915527344,-18.30000114440918
563693,3.848451852798462,9.68632698059082,-3.2449257373809814,0.3734779953956604,-0.02286599949002266,-1.5091559886932373,55.500003814697266,-170.10000610351562,-16.5
563713,3.8580222129821777,9.325048446655273,-3.054716110229492,0.09908600151538849,0.2439039945602417,-1.6158639192581177,69.9000015258789,-162.90000915527344,-22.5
563733,3.7162623405456543,8.821412086486816,-2.8543381690979004,0.04573199898004532,0.3125019967556,-1.5091559886932373,57.900001525878906,-165.3000030517578,-12.300000190734863
563753,3.5188751220703125,7.882328033447266,-2.390777349472046,-0.09146399796009064,-0.02286599949002266,-1.1128119230270386,72.30000305175781,-170.10000610351562,-17.700000762939453
563773,3.3723301887512207,7.5671067237854,-2.2107365131378174,0.06859800219535828,-0.228659987449646,-0.7926880121231079,72.30000305175781,-172.5,-19.5
563793,3.404629707336426,7.5611252784729,-2.115631580352783,0.3201240003108978,-0.5259180068969727,-0.6097599864006042,77.10000610351562,-170.10000610351562,-21.900001525878906
563813,3.3519933223724365,7.5790696144104,-2.006171464920044,0.48018598556518555,-0.8993960022926331,-0.8307979702949524,79.5,-172.5,-12.90000057220459
563836,3.4500887393951416,7.8799357414245605,-1.9780588150024414,0.7088459730148315,-1.067080020904541,-1.1661659479141235,79.5,-165.3000030517578,-22.5
563856,3.777272939682007,8.824402809143066,-2.1766421794891357,0.9222619533538818,-1.3795819282531738,-1.3948259353637695,84.30000305175781,-158.10000610351562,-11.100000381469727
563876,3.186905860900879,7.467216968536377,-1.9541330337524414,0.35061198472976685,-1.4405579566955566,-2.225623846054077,69.9000015258789,-172.5,-24.30000114440918
563896,2.8447680473327637,7.8440470695495605,-1.8638135194778442,0.7774440050125122,-1.3186060190200806,-1.0442140102386475,79.5,-165.3000030517578,-17.700000762939453
563917,2.2226991653442383,9.135437965393066,-2.333953857421875,0.8307979702949524,-0.6250039935112,-0.7850660085678101,84.30000305175781,-165.3000030517578,-14.700000762939453
563938,1.7639236450195312,10.38854694366455,-3.1887001991271973,0.9756159782409668,-0.5487840175628662,-1.0061039924621582,81.9000015258789,-150.90000915527344,-8.700000762939453
563958,0.43784064054489136,9.239514350891113,-2.6832692623138428,0.26677000522613525,-1.3186060190200806,-1.9436099529266357,91.5,-153.3000030517578,-20.100000381469727
563979,0.30983805656433105,9.613353729248047,-2.8040943145751953,0.48018598556518555,-1.1585439443588257,-1.4405579566955566,86.70000457763672,-158.10000610351562,-15.300000190734863
563999,-0.3307730555534363,9.760497093200684,-2.9171433448791504,0.6936019659042358,-1.0823240280151367,-1.5548880100250244,96.30000305175781,-167.70001220703125,-18.30000114440918
564019,-0.3445303440093994,10.217477798461914,-2.963200330734253,0.7774440050125122,-1.2042759656906128,-1.242385983467102,93.9000015258789,-148.5,-15.300000190734863
564101,-1.3553919792175293,9.420153617858887,-3.541604518890381,1.935987949371338,-0.8307979702949524,-2.5762360095977783,89.10000610351562,-160.5,-18.30000114440918
564203,-0.4001576602458954,9.354357719421387,-3.630727767944336,0.8993960022926331,0.4344539940357208,-2.835383892059326,125.10000610351562,-146.10000610351562,-18.30000114440918
564227,-0.9420751929283142,8.158670425415039,-3.6313259601593018,0.9527499675750732,-0.114329993724823,-3.9405739307403564,120.30000305175781,-138.90000915527344,-19.5
564309,-0.18901318311691284,9.308300971984863,-3.4153964519500732,-0.04573199898004532,0.1448179930448532,-1.4862899780273438,117.9000015258789,-148.5,-10.5
564329,0.39776507019996643,10.261740684509277,-3.5398101806640625,0.05335399881005287,0.015243999660015106,-1.2271419763565063,113.10000610351562,-150.90000915527344,-9.300000190734863
564349,-0.30804362893104553,9.625914573669434,-3.9603044986724854,-0.44969800114631653,0.36585599184036255,-2.7058098316192627,125.10000610351562,-141.3000030517578,-13.500000953674316
564389,-0.7040143013000488,9.186279296875,-5.044737815856934,0.8765299916267395,-1.196653962135315,-0.7088459730148315,127.50000762939453,-143.70001220703125,-11.100000381469727
564432,0.14774131774902344,9.214990615844727,-4.694226264953613,0.18292799592018127,-2.591480016708374,0.6326259970664978,134.70001220703125,-146.10000610351562,-11.700000762939453
564454,0.5873764157295227,9.131848335266113,-4.3532843589782715,-0.44969800114631653,-2.233245849609375,0.8841519951820374,122.70000457763672,-150.90000915527344,-9.90000057220459
564474,0.9205420613288879,8.954798698425293,-4.020717144012451,-1.0289700031280518,-1.5320219993591309,1.0518360137939453,122.70000457763672,-143.70001220703125,-12.300000190734863
564494,0.8876441717147827,8.446974754333496,-3.9333882331848145,-1.3490939140319824,-0.7774440050125122,0.7469559907913208,115.50000762939453,-150.90000915527344,-8.700000762939453
564514,0.8272317051887512,8.400918006896973,-3.7659082412719727,-0.8460419774055481,-0.4725639820098877,0.9756159782409668,134.70001220703125,-148.5,-11.100000381469727
564574,0.6693220138549805,8.570192337036133,-3.395657539367676,-0.7469559907913208,0.2134159952402115,0.2439039945602417,122.70000457763672,-150.90000915527344,-5.700000286102295
564594,0.362474650144577,8.83576774597168,-3.377713441848755,-0.6554920077323914,0.35061198472976685,-0.09908600151538849,120.30000305175781,-150.90000915527344,-12.90000057220459
564614,0.07895487546920776,8.751429557800293,-3.434536933898926,-0.5640279650688171,0.25152599811553955,-0.4344539940357208,122.70000457763672,-148.5,-13.500000953674316
564634,0.15491902828216553,8.88481616973877,-3.3125157356262207,-0.3887220025062561,0.015243999660015106,-0.19054999947547913,122.70000457763672,-146.10000610351562,-8.100000381469727
564657,0.12261930853128433,8.4116849899292,-3.115128517150879,-0.5411620140075684,0.18292799592018127,-0.15243999660015106,127.50000762939453,-155.70001220703125,-7.500000476837158
564677,0.12860073149204254,8.84892749786377,-3.204252004623413,-0.1448179930448532,0.457319974899292,0.4039659798145294,122.70000457763672,-153.3000030517578,-20.100000381469727
564697,-0.0017944289138540626,8.915321350097656,-3.448294162750244,-0.05335399881005287,0.6402480006217957,0.26677000522613525,134.70001220703125,-148.5,-12.300000190734863
564717,0.09450659155845642,8.747840881347656,-3.430349826812744,0.3277460038661957,0.4420759975910187,0.44969800114631653,120.30000305175781,-141.3000030517578,-11.100000381469727
564737,0.19499461352825165,9.236523628234863,-3.5727078914642334,0.6478700041770935,0.3734779953956604,0.6783579587936401,127.50000762939453,-146.10000610351562,-14.100000381469727
564817,0.30923992395401,8.757411003112793,-3.7066919803619385,-0.10670799762010574,-0.4878079891204834,0.07621999830007553,122.70000457763672,-155.70001220703125,-11.700000762939453
564926,2.0283029079437256,8.869263648986816,-5.345603942871094,-0.7240899801254272,2.5533699989318848,-0.16768398880958557,110.70000457763672,-148.5,-18.900001525878906
564946,2.035480499267578,8.116800308227539,-6.235042095184326,0.16768398880958557,2.9192259311676025,-0.7545779943466187,125.10000610351562,-158.10000610351562,-8.700000762939453
564986,3.293375253677368,8.55882740020752,-4.597326755523682,-1.3948259353637695,1.295740008354187,-0.1600620001554489,117.9000015258789,-150.90000915527344,-11.100000381469727
565007,3.091202974319458,7.21360445022583,-4.133766174316406,-2.14178204536438,3.4375219345092773,-1.4558019638061523,117.9000015258789,-146.10000610351562,-17.700000762939453
565027,3.2323646545410156,6.309810161590576,-3.5780911445617676,-2.134160041809082,4.672286033630371,-2.644834041595459,127.50000762939453,-153.3000030517578,-16.5
565049,3.177335500717163,5.731405735015869,-3.4560701847076416,-1.3490939140319824,5.686011791229248,-3.8262438774108887,120.30000305175781,-150.90000915527344,-17.700000762939453
565070,3.1342692375183105,5.040550708770752,-2.816655158996582,-0.7621999979019165,5.746987819671631,-4.916189670562744,127.50000762939453,-141.3000030517578,-15.300000190734863
565090,3.1910927295684814,4.526147842407227,-1.727436900138855,-1.3795819282531738,6.051867961883545,-5.777475833892822,127.50000762939453,-129.3000030517578,-12.90000057220459
565133,2.46195650100708,3.43393874168396,-0.6262556910514832,-1.7911700010299683,8.795787811279297,-7.515291690826416,129.90000915527344,-146.10000610351562,-15.90000057220459
565183,0.12261930853128433,2.522368907928467,-0.3403433561325073,-0.9984819889068604,10.465005874633789,-7.9268798828125,144.3000030517578,-141.3000030517578,-9.300000190734863
565247,-3.0218183994293213,7.053900241851807,0.0005981429712846875,1.4939119815826416,7.240900039672852,-8.506152153015137,161.10000610351562,-131.70001220703125,-9.90000057220459
565283,-4.366443634033203,6.866083145141602,-0.3648672103881836,2.332331895828247,5.007653713226318,-8.85676383972168,168.3000030517578,-119.70000457763672,-5.700000286102295
565303,-5.12608528137207,7.384075164794922,-0.9612157344818115,3.0716660022735596,3.0640439987182617,-7.35522985458374,173.10000610351562,-122.10000610351562,-6.300000190734863
565343,-5.594431400299072,9.45125675201416,-2.2376527786254883,3.0335559844970703,-1.1585439443588257,-5.419241905212402,180.3000030517578,-88.5,4.5
565363,-5.8827362060546875,9.87474250793457,-2.1096503734588623,2.1570260524749756,-3.5823400020599365,-4.458869934082031,185.10000610351562,-105.30000305175781,-4.5
565383,-6.205135345458984,10.526718139648438,-2.635417938232422,0.9984819889068604,-4.611310005187988,-2.1494040489196777,189.90000915527344,-110.10000610351562,-3.9000000953674316
565446,-7.627519130706787,12.750614166259766,-3.317301034927368,1.3033620119094849,-8.574749946594238,2.1646480560302734,206.70001220703125,-86.10000610351562,-6.900000095367432
565466,-7.372710227966309,14.42302131652832,-3.929201126098633,0.6554920077323914,-8.864385604858398,3.8872199058532715,194.70001220703125,-107.70000457763672,-8.100000381469727
565488,-7.27820348739624,12.917495727539062,-3.3974521160125732,0.342989981174469,-9.664695739746094,2.698187828063965,192.3000030517578,-98.10000610351562,-5.100000381469727
565528,-6.151900291442871,12.694388389587402,-5.091990947723389,1.3109840154647827,-10.061039924621582,9.154022216796875,194.70001220703125,-105.30000305175781,-10.5
565548,-4.88204288482666,15.006211280822754,-3.913649559020996,0,-11.318669319152832,8.78054428100586,194.70001220703125,-112.50000762939453,-10.5
565568,-6.1865925788879395,12.107609748840332,-4.572205066680908,-1.7454379796981812,-7.019861698150635,4.260697841644287,187.5,-124.50000762939453,-8.700000762939453
565588,-5.941354274749756,11.023775100708008,-6.444990634918213,0.06859800219535828,-5.243936061859131,5.312533855438232,187.5,-107.70000457763672,-12.90000057220459
565608,-4.795910358428955,12.970730781555176,-7.595817565917969,1.242385983467102,-5.823207855224609,7.1951680183410645,194.70001220703125,-129.3000030517578,-13.500000953674316
565632,-4.370630741119385,14.859665870666504,-8.340505599975586,0.49542999267578125,-5.343021869659424,7.256144046783447,185.10000610351562,-129.3000030517578,-14.100000381469727
565652,-3.4112093448638916,13.143593788146973,-8.692214012145996,-1.7454379796981812,-5.449729919433594,2.538125991821289,175.5,-124.50000762939453,-18.900001525878906
565672,-4.222889423370361,11.679339408874512,-8.855506896972656,-0.5640279650688171,-4.878079891204834,1.9969639778137207,173.10000610351562,-129.3000030517578,-14.100000381469727
565692,-4.784545421600342,12.092656135559082,-10.249777793884277,1.8140360116958618,-4.740883827209473,6.547297954559326,170.70001220703125,-124.50000762939453,-12.300000190734863
565712,-2.4547786712646484,15.587007522583008,-9.96326732635498,-0.20579399168491364,-8.833897590637207,9.81713581085205,158.70001220703125,-122.10000610351562,-20.700000762939453
565732,-2.5139949321746826,15.584614753723145,-8.543275833129883,-1.3643379211425781,-9.641829490661621,5.4649739265441895,163.5,-138.90000915527344,-19.5
565775,-0.8074930310249329,13.86136531829834,-9.67436408996582,-1.806414008140564,-11.0061674118042,10.274456024169922,127.50000762939453,-129.3000030517578,-20.700000762939453
565816,-0.7787821292877197,11.891680717468262,-8.146109580993652,-1.7911700010299683,-2.888737916946411,6.448211669921875,122.70000457763672,-148.5,-21.900001525878906
565836,-0.35410064458847046,10.609261512756348,-8.52413558959961,-2.088428020477295,-3.041177988052368,6.478699684143066,127.50000762939453,-146.10000610351562,-24.30000114440918
565856,0.7195659875869751,10.469894409179688,-7.089788436889648,-2.4161739349365234,-4.939055919647217,7.553401947021484,127.50000762939453,-155.70001220703125,-25.500001907348633
565877,0.9008033275604248,9.89148998260498,-5.8289031982421875,-3.2698378562927246,-3.2317278385162354,6.829311847686768,103.50000762939453,-155.70001220703125,-24.900001525878906
565898,1.2375577688217163,9.008631706237793,-5.713461875915527,-2.782029867172241,-0.8231759667396545,5.907049655914307,110.70000457763672,-160.5,-25.500001907348633
565918,1.2351652383804321,8.037845611572266,-5.134459495544434,-1.5929979085922241,-0.7621999979019165,4.67990779876709,110.70000457763672,-158.10000610351562,-27.900001525878906
565938,1.616780400276184,7.101751327514648,-3.971071243286133,-1.1509219408035278,-0.9222619533538818,3.9786839485168457,103.50000762939453,-162.90000915527344,-21.30000114440918
565959,1.634724736213684,6.2434163093566895,-3.3131139278411865,-1.5091559886932373,1.5853760242462158,4.2911858558654785,96.30000305175781,-150.90000915527344,-28.500001907348633
565979,1.8045973777770996,5.767892837524414,-2.9009933471679688,-1.189031958580017,3.567095994949341,3.955817937850952,91.5,-167.70001220703125,-25.500001907348633
565999,1.7920362949371338,5.373716354370117,-2.5648369789123535,-0.3734779953956604,3.75002384185791,3.49849796295166,91.5,-165.3000030517578,-27.900001525878906
566021,1.2333707809448242,4.121803283691406,-1.534834861755371,0.7317119836807251,4.809482097625732,2.1570260524749756,84.30000305175781,-165.3000030517578,-25.500001907348633
566041,1.6855669021606445,4.782153129577637,-1.0766572952270508,0.9603719711303711,5.815586090087891,3.003067970275879,77.10000610351562,-170.10000610351562,-26.700000762939453
566063,1.137069821357727,4.717553615570068,-0.8726906180381775,0.5945159792900085,6.814067840576172,1.0823240280151367,86.70000457763672,-160.5,-20.700000762939453
566123,0.6776959896087646,5.054906368255615,-0.5323472619056702,1.5396440029144287,5.937537670135498,-0.10670799762010574,89.10000610351562,-165.3000030517578,-13.500000953674316
566143,0.6812848448753357,5.095580101013184,-0.3798207938671112,1.524399995803833,5.442107677459717,-1.0518360137939453,96.30000305175781,-162.90000915527344,-22.5
566206,1.3793176412582397,5.915035724639893,0.21234075725078583,0.3582339882850647,4.718018054962158,-1.5396440029144287,74.70000457763672,-160.5,-14.100000381469727
566265,1.528853416442871,7.580265998840332,-0.5742172598838806,0.2439039945602417,6.135709762573242,-1.7683039903640747,98.70000457763672,-167.70001220703125,-18.30000114440918
566302,1.043161392211914,8.653932571411133,-1.3625696897506714,0.8765299916267395,3.612828016281128,-1.189031958580017,91.5,-177.3000030517578,-14.100000381469727
566322,1.232772707939148,9.08698844909668,-1.3392421007156372,0.030487999320030212,2.3094658851623535,-1.295740008354187,89.10000610351562,-158.10000610351562,-16.5
566362,1.545601487159729,8.62163257598877,-1.7531570196151733,0.05335399881005287,2.1494040489196777,-1.8673899173736572,93.9000015258789,-153.3000030517578,-18.900001525878906
566382,2.0970892906188965,9.68931770324707,-2.104266881942749,0.6707359552383423,1.8216580152511597,-1.1280559301376343,96.30000305175781,-162.90000915527344,-24.900001525878906
566402,1.9714791774749756,9.580455780029297,-2.21492338180542,0.5259180068969727,1.8140360116958618,-1.4634239673614502,101.10000610351562,-153.3000030517578,-17.700000762939453
566422,1.7208573818206787,9.075623512268066,-2.44102144241333,0.6554920077323914,1.6387299299240112,-1.425313949584961,93.9000015258789,-162.90000915527344,-17.700000762939453
566442,1.8039991855621338,9.25925350189209,-2.462554693222046,0.4344539940357208,0.9832379817962646,-0.8231759667396545,89.10000610351562,-165.3000030517578,-16.5
566522,1.2895961999893188,8.92848014831543,-2.851945638656616,0.3277460038661957,-1.5625100135803223,-0.8765299916267395,101.10000610351562,-167.70001220703125,-21.30000114440918
566548,1.1514252424240112,9.323254585266113,-2.831010580062866,-0.22103799879550934,-0.8765299916267395,-1.0365920066833496,101.10000610351562,-162.90000915527344,-15.90000057220459
566568,0.9929173588752747,9.390844345092773,-2.9560225009918213,-0.17530599236488342,-0.5564059615135193,-1.0747020244598389,101.10000610351562,-165.3000030517578,-20.100000381469727
566608,0.24822933971881866,8.459535598754883,-3.111539840698242,-0.23628199100494385,-0.114329993724823,-1.3109840154647827,101.10000610351562,-162.90000915527344,-15.300000190734863
566628,0.1955927461385727,8.454751014709473,-3.039762496948242,-0.007621999830007553,-0.4192099869251251,-0.36585599184036255,101.10000610351562,-160.5,-17.700000762939453
566648,0.3086417615413666,8.424245834350586,-3.040958881378174,-0.015243999660015106,-0.5411620140075684,0.26677000522613525,98.70000457763672,-165.3000030517578,-24.30000114440918
566668,0.37623193860054016,8.816627502441406,-3.103165626525879,0.17530599236488342,-0.5792719721794128,0.6631140112876892,115.50000762939453,-143.70001220703125,-16.5
566688,0.6196761131286621,9.02298641204834,-3.305338144302368,0.23628199100494385,-0.7317119836807251,0.5182960033416748,105.9000015258789,-150.90000915527344,-15.300000190734863
566708,0.8200539946556091,8.83277702331543,-3.207242727279663,0.19054999947547913,-1.013725996017456,0.39634400606155396,101.10000610351562,-158.10000610351562,-17.700000762939453
566728,0.924130916595459,8.384169578552246,-3.144437551498413,-0.114329993724823,-0.9070180058479309,0.39634400606155396,105.9000015258789,-160.5,-11.100000381469727
566748,1.1903045177459717,8.62462329864502,-3.3137121200561523,0.060975998640060425,-0.7926880121231079,0.5335400104522705,91.5,-150.90000915527344,-9.300000190734863
566768,1.4193933010101318,8.990687370300293,-3.43992018699646,-0.015243999660015106,-0.739333987236023,0.4725639820098877,101.10000610351562,-155.70001220703125,-18.900001525878906
566788,1.2943813800811768,8.665297508239746,-3.499136447906494,-0.571649968624115,-0.7164679765701294,-0.02286599949002266,105.9000015258789,-165.3000030517578,-21.900001525878906
566808,1.515694260597229,8.64376449584961,-3.627737045288086,-0.3887220025062561,-0.7774440050125122,-0.3277460038661957,98.70000457763672,-158.10000610351562,-14.100000381469727
566828,1.696333408355713,8.689223289489746,-3.580483913421631,-0.5182960033416748,-0.8765299916267395,-0.6021379828453064,103.50000762939453,-160.5,-23.100000381469727
566868,1.8763744831085205,8.436806678771973,-3.954921245574951,-0.6173819899559021,-0.2439039945602417,-1.0899460315704346,101.10000610351562,-155.70001220703125,-8.100000381469727
566905,1.7878493070602417,9.2999267578125,-4.21571159362793,0.39634400606155396,-0.457319974899292,-0.22103799879550934,117.9000015258789,-155.70001220703125,-15.300000190734863
566925,1.440926432609558,9.516454696655273,-4.182215690612793,0.2439039945602417,-0.5182960033416748,-0.4725639820098877,96.30000305175781,-158.10000610351562,-13.500000953674316
566965,1.2387540340423584,9.375292778015137,-3.558950662612915,-1.0289700031280518,0.060975998640060425,-1.0442140102386475,101.10000610351562,-165.3000030517578,-22.5
567005,1.2806241512298584,8.748438835144043,-3.314908266067505,-1.4558019638061523,2.1189160346984863,-1.7149499654769897,101.10000610351562,-160.5,-14.700000762939453
567025,1.420589566230774,8.637184143066406,-3.183316946029663,-1.3948259353637695,2.4085519313812256,-1.707327961921692,101.10000610351562,-162.90000915527344,-16.5
567045,1.536629319190979,8.140128135681152,-3.1348674297332764,-1.2500079870224,3.399411916732788,-2.0579400062561035,108.30000305175781,-155.70001220703125,-14.700000762939453
567085,2.489470958709717,7.541386604309082,-3.19587779045105,1.2347639799118042,5.243936061859131,-2.949713945388794,122.70000457763672,-153.3000030517578,-14.700000762939453
567125,3.0242109298706055,7.366130828857422,-2.1712589263916016,1.2804960012435913,7.553401947021484,-4.481735706329346,132.3000030517578,-158.10000610351562,-12.300000190734863
567167,2.515789270401001,6.549067497253418,-2.21492338180542,1.2500079870224,9.984819412231445,-5.9680256843566895,127.50000762939453,-160.5,-17.700000762939453
567205,1.8919261693954468,5.559739112854004,-1.3829065561294556,0.3734779953956604,9.413169860839844,-7.614377975463867,127.50000762939453,-146.10000610351562,-12.90000057220459
567225,1.4827964305877686,4.258179664611816,-0.7165752649307251,-0.1295740008354187,8.414688110351562,-8.963471412658691,125.10000610351562,-146.10000610351562,-9.90000057220459
567267,0.38340964913368225,2.5445001125335693,0.09809544682502747,0.007621999830007553,7.9497456550598145,-9.275973320007324,139.5,-129.3000030517578,-9.300000190734863
567288,-0.1985834687948227,1.8871411085128784,0.28651049733161926,0.5945159792900085,6.913153648376465,-8.60523796081543,151.5,-126.9000015258789,-5.700000286102295
567329,-1.4164025783538818,3.002079486846924,1.20705246925354,2.332331895828247,2.7286758422851562,-3.902463912963867,168.3000030517578,-122.10000610351562,-8.100000381469727
567349,-1.3392421007156372,5.3635478019714355,1.327877402305603,1.9054999351501465,3.460387945175171,-3.7805118560791016,170.70001220703125,-122.10000610351562,-0.9000000357627869
567369,-3.7509546279907227,5.706284046173096,-0.33316564559936523,3.955817937850952,3.4680099487304688,-4.984787940979004,153.90000915527344,-122.10000610351562,-1.5
567412,-4.030885696411133,9.150391578674316,-0.6705182790756226,1.8902559280395508,-2.3018438816070557,-4.344540119171143,177.90000915527344,-112.50000762939453,-2.700000047683716
567439,-4.8868279457092285,10.380172729492188,-1.705305576324463,1.5472660064697266,-2.888737916946411,-2.9649579524993896,168.3000030517578,-110.10000610351562,-8.100000381469727
567459,-5.583066463470459,9.881919860839844,-2.2783265113830566,0.9603719711303711,-4.649419784545898,-3.7424018383026123,180.3000030517578,-112.50000762939453,-4.5
567499,-7.387663841247559,12.029851913452148,-5.065074443817139,0.6097599864006042,-7.957367897033691,5.556437969207764,180.3000030517578,-119.70000457763672,-2.700000047683716
567519,-5.167356967926025,15.085763931274414,-3.555361747741699,-1.189031958580017,-10.686043739318848,3.7195358276367188,185.10000610351562,-102.9000015258789,2.1000001430511475
567539,-8.75023365020752,11.120674133300781,-4.556055068969727,-0.6097599864006042,-7.515291690826416,-1.5396440029144287,170.70001220703125,-119.70000457763672,-7.500000476837158
567559,-8.065958023071289,12.117778778076172,-7.065264701843262,1.0518360137939453,-8.68145751953125,5.068629741668701,187.5,-114.9000015258789,-4.5
567579,-4.772582530975342,15.636653900146484,-4.3682379722595215,-0.6936019659042358,-16.211994171142578,7.8506598472595215,173.10000610351562,-114.9000015258789,-6.900000095367432
567599,-6.372016906738281,13.114882469177246,-2.7203543186187744,-1.8445239067077637,-10.861350059509277,3.056421995162964,189.90000915527344,-122.10000610351562,-9.300000190734863
567619,-6.929486274719238,12.869644165039062,-6.592133522033691,-1.0518360137939453,-5.259180068969727,5.236313819885254,180.3000030517578,-117.30000305175781,-2.1000001430511475
567679,-5.3162946701049805,15.033126831054688,-8.046218872070312,-0.1448179930448532,-7.24852180480957,5.510705947875977,168.3000030517578,-134.10000610351562,-9.90000057220459
567699,-4.52854061126709,15.438070297241211,-8.57796859741211,0.426831990480423,-7.621999740600586,5.846074104309082,168.3000030517578,-138.90000915527344,-12.300000190734863
567719,-3.5487823486328125,15.432088851928711,-8.811244010925293,0.6250039935112,-8.544261932373047,5.076251983642578,165.90000915527344,-138.90000915527344,-20.100000381469727
567739,-4.111036777496338,15.545137405395508,-9.26224422454834,0.5259180068969727,-8.56712818145752,5.282045841217041,161.10000610351562,-129.3000030517578,-12.90000057220459
567759,-3.0026776790618896,16.04937171936035,-9.213794708251953,-0.8384199738502502,-9.771403312683105,5.6174139976501465,151.5,-131.70001220703125,-19.5
567782,-2.527153968811035,14.482237815856934,-8.1963529586792,-0.5030519962310791,-8.650969505310059,2.7591638565063477,149.10000610351562,-138.90000915527344,-8.100000381469727
567802,-2.3835997581481934,13.546143531799316,-9.00324821472168,0.46494197845458984,-7.522913932800293,4.847591876983643,156.3000030517578,-150.90000915527344,-14.100000381469727
567822,-1.3410365581512451,13.644837379455566,-7.417571067810059,-0.8689079880714417,-9.35981559753418,7.164680004119873,144.3000030517578,-136.5,-21.900001525878906
567842,-1.102975606918335,13.321840286254883,-6.212312698364258,-1.4405579566955566,-5.899427890777588,6.379613876342773,153.90000915527344,-153.3000030517578,-31.500001907348633
567866,-1.3721399307250977,12.443168640136719,-7.694511413574219,-1.1509219408035278,-2.2484898567199707,4.923811912536621,144.3000030517578,-146.10000610351562,-18.900001525878906
567886,-1.000095009803772,10.746236801147461,-7.880533695220947,-0.4878079891204834,-2.682943820953369,4.649419784545898,122.70000457763672,-153.3000030517578,-27.30000114440918
567910,0.05562729761004448,11.029158592224121,-6.40072774887085,-0.7698220014572144,-4.908567905426025,5.815586090087891,134.70001220703125,-150.90000915527344,-26.700000762939453
567930,0.040673721581697464,9.896275520324707,-5.651254653930664,-1.4100699424743652,-2.2637338638305664,3.361301898956299,113.10000610351562,-150.90000915527344,-26.700000762939453
567950,-0.6226668357849121,6.951019287109375,-6.470112323760986,-0.19054999947547913,-0.007621999830007553,1.425313949584961,117.9000015258789,-158.10000610351562,-24.30000114440918
567990,1.8057936429977417,8.108426094055176,-4.219898700714111,0.5411620140075684,0.5259180068969727,8.490907669067383,113.10000610351562,-155.70001220703125,-24.30000114440918
568010,1.7806715965270996,6.631012916564941,-4.984325408935547,2.75154185295105,4.1921000480651855,3.711913824081421,101.10000610351562,-158.10000610351562,-23.100000381469727
568030,2.2783265113830566,5.447885990142822,-4.635009765625,5.182960033416748,3.567095994949341,1.3643379211425781,103.50000762939453,-162.90000915527344,-23.700000762939453
568051,2.6539604663848877,5.130870342254639,-3.5218658447265625,4.725639820098877,3.5975840091705322,1.425313949584961,103.50000762939453,-158.10000610351562,-24.30000114440918
568072,1.8440747261047363,5.184104919433594,-3.5780911445617676,2.195136070251465,6.593029975891113,0.9832379817962646,108.30000305175781,-158.10000610351562,-21.900001525878906
568092,1.5814900398254395,4.731909275054932,-3.066679000854492,1.14329993724823,5.762231826782227,-0.08384199440479279,108.30000305175781,-153.3000030517578,-18.900001525878906
568112,1.4792075157165527,4.035670757293701,-1.5509847402572632,0.02286599949002266,4.375028133392334,-0.4878079891204834,91.5,-153.3000030517578,-24.900001525878906
568172,1.3470180034637451,4.009950637817383,-0.30565106868743896,-0.6936019659042358,7.027483940124512,-1.1204339265823364,103.50000762939453,-158.10000610351562,-15.90000057220459
568193,1.5372273921966553,4.241431713104248,0.5138047933578491,-1.2042759656906128,6.814067840576172,-1.5091559886932373,86.70000457763672,-165.3000030517578,-8.100000381469727
568213,1.5826863050460815,4.827611923217773,0.5981429815292358,-1.1661659479141235,7.896391868591309,-1.9740979671478271,103.50000762939453,-167.70001220703125,-15.300000190734863
568233,1.521675705909729,4.810863971710205,0.8415871858596802,-1.471045970916748,8.086941719055176,-2.835383892059326,98.70000457763672,-162.90000915527344,-11.700000762939453
568253,1.4002526998519897,5.523850440979004,0.5568711161613464,-0.8993960022926331,8.811031341552734,-3.0106899738311768,96.30000305175781,-158.10000610351562,-14.700000762939453
568273,1.335653305053711,5.754135608673096,-0.2135370373725891,-0.17530599236488342,8.628104209899902,-3.6890478134155273,98.70000457763672,-165.3000030517578,-21.30000114440918
568293,0.7542582750320435,5.912045001983643,-0.6615461111068726,1.0365920066833496,7.24852180480957,-2.484771966934204,103.50000762939453,-153.3000030517578,-19.5
568333,0.4474109411239624,9.512866020202637,-1.6736040115356445,1.242385983467102,4.504601955413818,0.8079319596290588,96.30000305175781,-148.5,-17.700000762939453
568353,0.05383286625146866,10.107419967651367,-2.43204927444458,0.510673999786377,4.237832069396973,0.060975998640060425,103.50000762939453,-160.5,-11.700000762939453
568377,-0.20935003459453583,10.16663646697998,-3.3735263347625732,0.2134159952402115,2.888737916946411,-0.7012239694595337,110.70000457763672,-155.70001220703125,-14.700000762939453
568397,-0.033496007323265076,9.560717582702637,-3.586465358734131,-0.030487999320030212,0.4192099869251251,-1.013725996017456,84.30000305175781,-150.90000915527344,-12.90000057220459
568419,0.6585553884506226,9.54217529296875,-3.2628698348999023,-0.038109999150037766,-2.225623846054077,0.030487999320030212,98.70000457763672,-158.10000610351562,-10.5
568439,1.3272792100906372,10.197141647338867,-3.0206220149993896,-0.5411620140075684,-1.9588539600372314,0.26677000522613525,105.9000015258789,-158.10000610351562,-12.300000190734863
568460,1.414608120918274,9.953697204589844,-3.1252970695495605,-0.8917739987373352,-1.14329993724823,-0.457319974899292,103.50000762939453,-155.70001220703125,-12.300000190734863
568480,0.9875340461730957,9.210803985595703,-3.109147071838379,-0.7545779943466187,-0.6707359552383423,-0.9527499675750732,110.70000457763672,-170.10000610351562,-14.100000381469727
568500,0.705808699131012,9.13364315032959,-3.0218183994293213,-0.5487840175628662,-0.7469559907913208,-0.7317119836807251,91.5,-153.3000030517578,-15.300000190734863
568520,0.5796005129814148,8.80286979675293,-2.607903242111206,-0.8460419774055481,-1.1204339265823364,-0.8917739987373352,98.70000457763672,-158.10000610351562,-15.90000057220459
568542,0.707004964351654,8.33272933959961,-2.319598436355591,-1.1204339265823364,-1.0823240280151367,-0.9222619533538818,105.9000015258789,-158.10000610351562,-9.300000190734863
568563,0.3869985044002533,7.785429000854492,-2.480498790740967,-0.6021379828453064,-0.8689079880714417,-0.49542999267578125,105.9000015258789,-162.90000915527344,-8.700000762939453
568583,0.3636709153652191,8.232839584350586,-2.7149710655212402,-0.1448179930448532,-1.0975680351257324,0.4420759975910187,108.30000305175781,-158.10000610351562,-8.700000762939453
568665,0.8350076079368591,8.797487258911133,-3.228177547454834,0.4725639820098877,-0.5564059615135193,0.39634400606155396,108.30000305175781,-153.3000030517578,-9.300000190734863
568705,0.9432714581489563,9.408190727233887,-3.678579330444336,0.800309956073761,-0.41158798336982727,0.3201240003108978,93.9000015258789,-146.10000610351562,-19.5
568725,1.0276095867156982,9.535594940185547,-3.5984280109405518,0.5487840175628662,-0.5868939757347107,0.10670799762010574,105.9000015258789,-160.5,-14.700000762939453
568767,0.9648045897483826,8.563612937927246,-3.0828287601470947,-0.6707359552383423,0.038109999150037766,-0.6173819899559021,86.70000457763672,-155.70001220703125,-15.90000057220459
568808,0.9283179044723511,8.580361366271973,-3.3484044075012207,-1.5625100135803223,0.5945159792900085,-0.7698220014572144,110.70000457763672,-150.90000915527344,-17.100000381469727
568828,1.1490325927734375,8.760401725769043,-3.740187883377075,-1.2881180047988892,0.5182960033416748,-0.9070180058479309,96.30000305175781,-146.10000610351562,-18.30000114440918
568870,1.6987260580062866,8.92249870300293,-4.707385063171387,-0.5030519962310791,1.0594580173492432,-0.6707359552383423,93.9000015258789,-148.5,-14.100000381469727
568890,1.937385082244873,8.566603660583496,-4.993297576904297,-0.09908600151538849,1.021347999572754,-0.5411620140075684,105.9000015258789,-167.70001220703125,-5.700000286102295
568910,2.712578296661377,9.21140193939209,-4.914342880249023,0.5792719721794128,1.1661659479141235,0.4725639820098877,108.30000305175781,-172.5,-3.9000000953674316
568950,2.945255994796753,8.213101387023926,-4.753442287445068,0.3582339882850647,3.109776020050049,-1.8978779315948486,108.30000305175781,-158.10000610351562,-15.90000057220459
568974,3.132474660873413,7.527629375457764,-4.078138828277588,1.2500079870224,3.3917899131774902,-2.03507399559021,96.30000305175781,-158.10000610351562,-15.300000190734863
568994,3.3663487434387207,7.386467456817627,-2.6844656467437744,0.06859800219535828,3.955817937850952,-2.6677000522613525,96.30000305175781,-158.10000610351562,-11.700000762939453
569014,3.281412363052368,6.2284626960754395,-1.8476636409759521,-0.6478700041770935,5.762231826782227,-4.32167387008667,110.70000457763672,-155.70001220703125,-8.100000381469727
569034,3.269449472427368,5.144627571105957,-1.1645843982696533,-1.242385983467102,7.286632061004639,-5.3582658767700195,113.10000610351562,-155.70001220703125,-9.300000190734863
569054,2.6701102256774902,3.657644271850586,-0.5018419623374939,-1.471045970916748,8.254626274108887,-6.265284061431885,115.50000762939453,-153.3000030517578,-6.900000095367432
569074,2.975163221359253,4.100868225097656,-0.5299546718597412,-0.6631140112876892,9.626585960388184,-5.312533855438232,115.50000762939453,-150.90000915527344,-16.5
569094,3.0475385189056396,4.246216773986816,-0.3798207938671112,-0.685979962348938,9.443657875061035,-5.663146018981934,125.10000610351562,-150.90000915527344,-14.100000381469727
569115,2.381207227706909,2.9913129806518555,0.12261930853128433,-1.067080020904541,7.942123889923096,-7.454315662384033,127.50000762939453,-136.5,-10.5
569137,1.922431468963623,1.8727856874465942,0.9654027819633484,-1.2728739976882935,6.74547004699707,-7.8506598472595215,132.3000030517578,-141.3000030517578,-12.300000190734863
569157,0.6681256890296936,-0.001196285942569375,1.2232023477554321,-0.46494197845458984,6.501565933227539,-8.666213989257812,132.3000030517578,-138.90000915527344,-9.300000190734863
569179,-0.709397554397583,0.28292161226272583,0.9169531464576721,2.225623846054077,7.614377975463867,-6.029001712799072,132.3000030517578,-134.10000610351562,-17.700000762939453
569201,-0.5347397923469543,5.062084197998047,0.4707385301589966,3.5899620056152344,5.724122047424316,-3.2850818634033203,139.5,-134.10000610351562,-5.100000381469727
569221,-2.2454288005828857,5.306126117706299,0.48509395122528076,2.6219680309295654,5.9680256843566895,-5.8613176345825195,156.3000030517578,-124.50000762939453,-12.300000190734863
569241,-4.666113376617432,6.687836647033691,-0.8852515816688538,4.28356409072876,4.382649898529053,-5.686011791229248,151.5,-138.90000915527344,-8.100000381469727
569261,-3.989015579223633,8.536696434020996,-1.1675751209259033,2.5076379776000977,1.1128119230270386,-5.335400104522705,149.10000610351562,-129.3000030517578,-9.90000057220459
569301,-5.700302600860596,9.150391578674316,-3.148026466369629,3.246971845626831,-0.510673999786377,-2.5609920024871826,151.5,-119.70000457763672,-7.500000476837158
569321,-5.077037334442139,10.258749961853027,-3.380105972290039,2.4237959384918213,-3.3765459060668945,-0.39634400606155396,165.90000915527344,-117.30000305175781,-10.5
569341,-6.218892574310303,11.647638320922852,-4.838378429412842,1.371959924697876,-5.586925983428955,1.0899460315704346,149.10000610351562,-122.10000610351562,-6.300000190734863
569361,-6.208126068115234,12.683023452758789,-5.3581647872924805,1.6387299299240112,-5.846074104309082,1.2347639799118042,163.5,-131.70001220703125,-4.5
569383,-5.683554649353027,14.046789169311523,-5.617160797119141,0.05335399881005287,-10.899459838867188,1.3109840154647827,168.3000030517578,-119.70000457763672,-6.900000095367432
569403,-6.015523910522461,13.00063705444336,-4.896398544311523,-1.5320219993591309,-11.059521675109863,0.030487999320030212,173.10000610351562,-114.9000015258789,-3.9000000953674316
569425,-6.790717124938965,12.165630340576172,-5.929989337921143,0.13719600439071655,-9.977197647094727,1.5853760242462158,165.90000915527344,-124.50000762939453,-8.700000762939453
569445,-4.474109649658203,15.814900398254395,-5.629123687744141,-0.23628199100494385,-11.920807838439941,6.432967662811279,168.3000030517578,-126.9000015258789,-10.5
569466,-4.618860244750977,14.649717330932617,-4.59912109375,-1.7683039903640747,-11.03665542602539,2.225623846054077,158.70001220703125,-119.70000457763672,-5.100000381469727
569487,-5.751144886016846,11.783416748046875,-6.023897647857666,-0.7317119836807251,-8.490907669067383,2.1189160346984863,163.5,-124.50000762939453,-8.100000381469727
569507,-3.576894998550415,14.445751190185547,-6.016121864318848,-0.20579399168491364,-11.0061674118042,7.408583641052246,175.5,-117.30000305175781,-17.700000762939453
569527,-2.860917806625366,16.0403995513916,-5.436521530151367,-2.042695999145508,-8.986337661743164,5.25155782699585,163.5,-136.5,-16.5
569547,-5.218797206878662,13.72797966003418,-8.1425199508667,-0.6707359552383423,-4.146368026733398,2.8658719062805176,153.90000915527344,-124.50000762939453,-6.300000190734863
569568,-2.841179132461548,14.77772045135498,-9.179101943969727,0.6783579587936401,-9.634207725524902,6.318637847900391,153.90000915527344,-134.10000610351562,-11.100000381469727
569589,-2.2555971145629883,16.5428409576416,-5.906063556671143,-1.8673899173736572,-12.515323638916016,6.074733734130859,161.10000610351562,-134.10000610351562,-18.30000114440918
