time,sensor_accX[g],sensor_accY[g],sensor_accZ[g],sensor_gyroX[°/s],sensor_gyroY[°/s],sensor_gyroZ[°/s],sensor_magX[µT],sensor_magY[µT],sensor_magZ[µT]
300149,-2.4942562580108643,8.183194160461426,-4.301844120025635,-0.19054999947547913,0.20579399168491364,-0.1295740008354187,216.3000030517578,-107.70000457763672,-7.500000476837158
300169,-2.5235652923583984,8.141921997070312,-4.349097728729248,-0.10670799762010574,0.2134159952402115,-0.2591480016708374,213.90000915527344,-95.70000457763672,-7.500000476837158
300190,-2.507415294647217,8.11560344696045,-4.356873512268066,-0.09908600151538849,0.23628199100494385,-0.12195199728012085,223.50001525878906,-112.50000762939453,-5.700000286102295
300210,-2.536724328994751,8.260952949523926,-4.42984676361084,-0.2134159952402115,0.22103799879550934,-0.1295740008354187,218.70001220703125,-95.70000457763672,-8.100000381469727
300232,-2.522368907928467,8.09765911102295,-4.381397247314453,-0.22103799879550934,0.13719600439071655,-0.18292799592018127,211.50001525878906,-112.50000762939453,-9.300000190734863
300252,-2.4422178268432617,8.125772476196289,-4.301246166229248,-0.41158798336982727,0.18292799592018127,-0.060975998640060425,225.90000915527344,-107.70000457763672,-5.100000381469727
300272,-2.6216607093811035,7.978031158447266,-4.411304473876953,-0.5259180068969727,0.33536797761917114,-0.1448179930448532,225.90000915527344,-110.10000610351562,-6.900000095367432
300292,-2.5857720375061035,8.152091026306152,-4.468128204345703,-0.06859800219535828,0.007621999830007553,-0.04573199898004532,206.70001220703125,-119.70000457763672,-9.90000057220459
300312,-2.492461681365967,8.310598373413086,-4.38797664642334,-0.06859800219535828,0.02286599949002266,-0.18292799592018127,221.10000610351562,-105.30000305175781,-14.700000762939453
300332,-2.542705774307251,8.213699340820312,-4.416687488555908,-0.17530599236488342,0.18292799592018127,-0.35061198472976685,218.70001220703125,-98.10000610351562,-7.500000476837158
300352,-2.5863702297210693,8.13952922821045,-4.3772101402282715,-0.16768398880958557,0.2134159952402115,-0.2743920087814331,216.3000030517578,-105.30000305175781,-9.90000057220459
300372,-2.5588555335998535,8.060574531555176,-4.324573516845703,-0.3734779953956604,0.3048799932003021,-0.228659987449646,233.10000610351562,-107.70000457763672,-4.5
300393,-2.5050227642059326,8.090481758117676,-4.3622565269470215,-0.3734779953956604,0.4192099869251251,-0.114329993724823,216.3000030517578,-98.10000610351562,-8.100000381469727
300414,-2.5259578227996826,8.161661148071289,-4.402332305908203,-0.3201240003108978,0.5030519962310791,-0.1295740008354187,211.50001525878906,-112.50000762939453,-6.300000190734863
300435,-2.6240532398223877,8.058780670166016,-4.43881893157959,-0.2972579896450043,0.5487840175628662,-0.22103799879550934,218.70001220703125,-117.30000305175781,-7.500000476837158
300455,-2.650371551513672,8.13354778289795,-4.423267364501953,-0.20579399168491364,0.5945159792900085,-0.1448179930448532,211.50001525878906,-107.70000457763672,-7.500000476837158
300498,-2.8842453956604004,8.32375717163086,-4.640393257141113,-0.3125019967556,0.8307979702949524,-0.20579399168491364,213.90000915527344,-105.30000305175781,-5.700000286102295
300519,-3.201261281967163,8.432021141052246,-4.9137444496154785,-0.2439039945602417,0.9984819889068604,-0.33536797761917114,209.10000610351562,-105.30000305175781,-8.700000762939453
300539,-3.445303440093994,8.457741737365723,-5.007054805755615,-0.2972579896450043,0.9222619533538818,-0.23628199100494385,221.10000610351562,-107.70000457763672,-5.700000286102295
300559,-3.553567409515381,8.271718978881836,-5.019615650177002,-0.6402480006217957,1.0365920066833496,-0.06859800219535828,216.3000030517578,-114.9000015258789,-6.300000190734863
300579,-3.5212676525115967,8.39852523803711,-4.920323848724365,-0.8917739987373352,1.0594580173492432,0.5182960033416748,213.90000915527344,-107.70000457763672,-7.500000476837158
300603,-3.5344269275665283,8.184988021850586,-4.8868279457092285,-1.5396440029144287,1.1356779336929321,0.7850660085678101,218.70001220703125,-95.70000457763672,-8.700000762939453
300623,-3.4022371768951416,7.598210334777832,-4.481287002563477,-1.707327961921692,0.967993974685669,1.14329993724823,218.70001220703125,-107.70000457763672,-2.1000001430511475
300645,-3.308926820755005,7.655033588409424,-4.211524486541748,-1.7987920045852661,1.1661659479141235,1.6311079263687134,199.50001525878906,-102.9000015258789,-5.100000381469727
300665,-3.564932107925415,8.094070434570312,-4.622448921203613,-1.753059983253479,1.2652519941329956,1.5091559886932373,206.70001220703125,-110.10000610351562,-0.30000001192092896
300685,-3.720449209213257,8.205923080444336,-4.9795403480529785,-1.2195199728012085,0.6097599864006042,1.1356779336929321,201.90000915527344,-93.30000305175781,-11.100000381469727
300705,-4.080531120300293,7.962479114532471,-5.330051898956299,-0.9070180058479309,-0.7774440050125122,1.524399995803833,211.50001525878906,-105.30000305175781,-8.700000762939453
300725,-4.19178581237793,7.951114654541016,-5.3133039474487305,-0.8917739987373352,-1.2576299905776978,1.8369019031524658,211.50001525878906,-114.9000015258789,-3.9000000953674316
300749,-4.138551235198975,8.339309692382812,-5.067467212677002,-1.4939119815826416,-2.2637338638305664,3.1859958171844482,211.50001525878906,-110.10000610351562,-8.100000381469727
300769,-4.182215690612793,8.414076805114746,-5.059093475341797,-2.339953899383545,-2.4085519313812256,3.620450019836426,209.10000610351562,-117.30000305175781,-16.5
300789,-4.0972795486450195,8.516958236694336,-5.049522876739502,-2.583858013153076,-2.9116039276123047,3.917707920074463,199.50001525878906,-124.50000762939453,-5.100000381469727
300810,-3.684560775756836,8.601295471191406,-4.68585205078125,-2.6295900344848633,-3.559473991394043,4.352161884307861,204.3000030517578,-122.10000610351562,-14.700000762939453
300830,-3.2802159786224365,8.873451232910156,-4.088905334472656,-2.8201398849487305,-3.85673189163208,4.794238090515137,194.70001220703125,-131.70001220703125,-15.90000057220459
300850,-3.0900065898895264,8.84773063659668,-3.8909199237823486,-3.292703866958618,-3.246971845626831,4.794238090515137,199.50001525878906,-134.10000610351562,-9.90000057220459
300870,-2.6419975757598877,8.90156364440918,-3.5374176502227783,-3.0869100093841553,-3.1402640342712402,5.083873748779297,187.5,-134.10000610351562,-11.700000762939453
300890,-2.4254696369171143,8.887207984924316,-3.174344778060913,-3.147886037826538,-2.5686140060424805,5.289668083190918,194.70001220703125,-124.50000762939453,-12.90000057220459
300910,-2.4631526470184326,8.869263648986816,-3.189298391342163,-2.9802019596099854,-2.0655620098114014,5.564059734344482,180.3000030517578,-131.70001220703125,-12.90000057220459
300930,-2.4272642135620117,9.007434844970703,-3.0541179180145264,-2.545747995376587,-2.1646480560302734,5.731743812561035,175.5,-134.10000610351562,-16.5
300950,-2.2843079566955566,9.313684463500977,-3.076847553253174,-2.431417942047119,-2.073184013366699,5.884183883666992,173.10000610351562,-158.10000610351562,-12.90000057220459
300970,-2.121613025665283,9.254467964172363,-2.885441780090332,-2.195136070251465,-2.2561118602752686,5.739366054534912,173.10000610351562,-148.5,-20.700000762939453
300990,-2.1688663959503174,8.918312072753906,-2.7323172092437744,-2.324709892272949,-2.2103798389434814,5.746987819671631,168.3000030517578,-148.5,-15.300000190734863
301010,-1.934394359588623,9.429125785827637,-2.8932175636291504,-1.9588539600372314,-2.080806016921997,6.013757705688477,149.10000610351562,-146.10000610351562,-19.5
301030,-1.6143878698349,9.4195556640625,-2.742485523223877,-1.9131219387054443,-2.1722700595855713,5.731743812561035,156.3000030517578,-150.90000915527344,-17.700000762939453
301092,-0.6513776779174805,9.05887508392334,-2.24782133102417,-1.7149499654769897,-1.1204339265823364,5.838451862335205,134.70001220703125,-172.5,-17.100000381469727
301112,-0.5622543692588806,9.18927001953125,-1.9577219486236572,-1.6844619512557983,-0.5411620140075684,5.853695869445801,132.3000030517578,-160.5,-24.30000114440918
301133,-0.6555647253990173,9.43630313873291,-1.9086742401123047,-1.6234859228134155,0.4878079891204834,5.586925983428955,125.10000610351562,-158.10000610351562,-24.900001525878906
301197,-1.2004729509353638,8.45833969116211,-1.8733837604522705,-0.3734779953956604,1.9588539600372314,5.39637565612793,117.9000015258789,-167.70001220703125,-22.5
301277,-0.14056359231472015,8.680251121520996,-1.518684983253479,0.4344539940357208,1.6082419157028198,4.580821990966797,98.70000457763672,-184.5,-20.100000381469727
301297,0.27574390172958374,8.696998596191406,-1.3775233030319214,0.09146399796009064,1.4100699424743652,3.7728898525238037,81.9000015258789,-165.3000030517578,-20.100000381469727
301338,0.7135845422744751,8.12756633758545,-1.0652925968170166,-0.25152599811553955,1.7911700010299683,2.5000159740448,79.5,-174.90000915527344,-11.700000762939453
301358,0.9008033275604248,8.393141746520996,-1.1352753639221191,-0.13719600439071655,1.92836594581604,2.2103798389434814,65.10000610351562,-167.70001220703125,-26.700000762939453
301378,1.0563204288482666,8.325551986694336,-1.0521334409713745,-0.19054999947547913,1.9436099529266357,1.6615959405899048,81.9000015258789,-177.3000030517578,-20.700000762939453
301399,1.1574066877365112,8.197549819946289,-1.0963960886001587,-0.2134159952402115,2.1189160346984863,1.4405579566955566,57.900001525878906,-182.10000610351562,-15.300000190734863
301419,1.7824660539627075,9.161157608032227,-1.2806241512298584,-0.12195199728012085,2.179892063140869,1.875011920928955,65.10000610351562,-174.90000915527344,-23.100000381469727
301441,2.345916748046875,9.634288787841797,-1.2423429489135742,-0.6326259970664978,2.294221878051758,1.4329359531402588,69.9000015258789,-174.90000915527344,-19.5
301461,2.623455047607422,9.287365913391113,-1.4654502868652344,-0.7850660085678101,2.843005895614624,0.7317119836807251,60.30000305175781,-179.70001220703125,-23.700000762939453
301481,3.302945375442505,9.691710472106934,-1.8662060499191284,-0.8460419774055481,3.4298999309539795,0.8155539631843567,67.5,-172.5,-18.900001525878906
301501,3.6552517414093018,9.468005180358887,-2.4487972259521484,-0.8841519951820374,4.352161884307861,0.510673999786377,72.30000305175781,-177.3000030517578,-14.100000381469727
301524,4.226478099822998,10.15766429901123,-3.5751004219055176,-0.4192099869251251,5.152472019195557,0.44969800114631653,60.30000305175781,-174.90000915527344,-23.100000381469727
301544,3.9010884761810303,9.44647216796875,-3.6056058406829834,-0.48018598556518555,4.557955741882324,-0.5792719721794128,67.5,-177.3000030517578,-24.30000114440918
301566,3.9632952213287354,9.787413597106934,-3.747365713119507,-0.342989981174469,4.557955741882324,-0.17530599236488342,62.70000076293945,-165.3000030517578,-25.500001907348633
301586,3.5511748790740967,9.31488037109375,-3.910658836364746,-0.22103799879550934,4.603687763214111,-0.5335400104522705,65.10000610351562,-186.90000915527344,-26.100000381469727
301648,2.5235652923583984,9.06605339050293,-4.358667850494385,1.2728739976882935,1.524399995803833,0.5411620140075684,62.70000076293945,-162.90000915527344,-23.100000381469727
301668,2.2992615699768066,8.823206901550293,-3.842470407485962,0.8079319596290588,1.417691946029663,0.038109999150037766,60.30000305175781,-162.90000915527344,-17.100000381469727
301688,1.8644115924835205,8.429030418395996,-3.841872215270996,0.41158798336982727,1.7606819868087769,-0.7545779943466187,60.30000305175781,-170.10000610351562,-11.100000381469727
301711,1.720259189605713,7.842850685119629,-3.8532369136810303,0.030487999320030212,2.027451992034912,-1.3109840154647827,62.70000076293945,-177.3000030517578,-12.90000057220459
301771,1.9278148412704468,7.6209397315979,-3.949537992477417,-0.8993960022926331,1.6311079263687134,1.2500079870224,57.900001525878906,-179.70001220703125,-18.900001525878906
301818,2.26576566696167,7.482768535614014,-3.9782488346099854,-0.7545779943466187,0.8841519951820374,0.8689079880714417,57.900001525878906,-162.90000915527344,-20.700000762939453
301838,2.540313243865967,7.351775169372559,-3.7928245067596436,-0.8917739987373352,0.4344539940357208,0.7240899801254272,53.10000228881836,-170.10000610351562,-18.900001525878906
301879,3.061295747756958,7.719633102416992,-3.49674391746521,-0.800309956073761,0.015243999660015106,0.7850660085678101,50.70000076293945,-167.70001220703125,-17.700000762939453
301899,3.1821205615997314,7.7303996086120605,-3.282010555267334,-0.8841519951820374,-0.038109999150037766,0.41158798336982727,57.900001525878906,-179.70001220703125,-13.500000953674316
301919,3.040360689163208,7.459441184997559,-3.144437551498413,-0.7774440050125122,-0.060975998640060425,0.015243999660015106,60.30000305175781,-165.3000030517578,-20.100000381469727
301941,3.051725387573242,7.163360118865967,-2.521770715713501,-0.8307979702949524,-0.1448179930448532,-0.2972579896450043,45.900001525878906,-165.3000030517578,-14.700000762939453
302007,4.444202423095703,10.232431411743164,-3.037968158721924,-0.25152599811553955,-0.8079319596290588,0.9375059604644775,53.10000228881836,-165.3000030517578,-17.700000762939453
302065,2.947648525238037,8.853114128112793,-1.7938307523727417,-0.6021379828453064,-1.5701320171356201,0.8307979702949524,43.5,-174.90000915527344,-19.5
302107,1.9415720701217651,10.057175636291504,-1.7615309953689575,-0.9756159782409668,-1.2652519941329956,0.07621999830007553,48.30000305175781,-177.3000030517578,-20.100000381469727
302241,0.3989613652229309,8.62582015991211,-0.91575688123703,-0.8307979702949524,3.506119966506958,-0.3582339882850647,55.500003814697266,-174.90000915527344,-20.700000762939453
302261,0.5191881060600281,8.235830307006836,-1.126901388168335,-0.44969800114631653,3.1707520484924316,0.39634400606155396,65.10000610351562,-174.90000915527344,-22.5
302301,1.5312459468841553,7.8709635734558105,-0.9540380239486694,0.2439039945602417,1.6768399477005005,1.5625100135803223,67.5,-186.90000915527344,-21.900001525878906
302321,2.21193265914917,8.31478500366211,-0.9043921828269958,0.5335400104522705,1.2271419763565063,1.9740979671478271,69.9000015258789,-177.3000030517578,-19.5
302363,3.2383460998535156,8.777748107910156,-0.8732887506484985,0.3734779953956604,0.8155539631843567,1.8140360116958618,48.30000305175781,-182.10000610351562,-17.100000381469727
302384,3.395657539367676,8.606081008911133,-1.1227144002914429,0.2591480016708374,0.9756159782409668,1.600619912147522,53.10000228881836,-177.3000030517578,-19.5
302404,3.341226577758789,8.81602954864502,-1.426571011543274,0.5487840175628662,0.8460419774055481,1.577754020690918,50.70000076293945,-172.5,-18.900001525878906
302424,3.2443275451660156,8.688026428222656,-1.424776554107666,0.426831990480423,0.46494197845458984,1.1356779336929321,50.70000076293945,-172.5,-23.700000762939453
302444,3.2443275451660156,8.819618225097656,-1.3625696897506714,0.26677000522613525,0.4344539940357208,0.5868939757347107,53.10000228881836,-170.10000610351562,-14.700000762939453
302464,3.6050076484680176,9.39263916015625,-1.2590909004211426,-0.07621999830007553,0.685979962348938,0.02286599949002266,41.10000228881836,-179.70001220703125,-21.30000114440918
302487,3.910658836364746,10.007530212402344,-1.3912805318832397,-0.5945159792900085,1.4939119815826416,-0.5945159792900085,48.30000305175781,-177.3000030517578,-17.100000381469727
302508,3.7246363162994385,9.674962997436523,-1.7017167806625366,-1.1509219408035278,2.1570260524749756,-1.6234859228134155,48.30000305175781,-174.90000915527344,-15.300000190734863
302529,3.332254409790039,8.79987907409668,-2.036078691482544,-1.2500079870224,2.4085519313812256,-1.653973937034607,41.10000228881836,-170.10000610351562,-19.5
302549,2.796318292617798,7.4893479347229,-2.0187325477600098,-1.5091559886932373,2.4771499633789062,-1.6920839548110962,50.70000076293945,-172.5,-22.5
302589,2.577996253967285,7.894888877868652,-3.467434883117676,0.4420759975910187,3.5213639736175537,-0.3734779953956604,53.10000228881836,-167.70001220703125,-21.900001525878906
302653,3.1916909217834473,10.474081993103027,-3.549978494644165,-1.196653962135315,1.7606819868087769,-2.2027578353881836,45.900001525878906,-160.5,-15.90000057220459
302673,2.4553768634796143,8.822608947753906,-3.7282252311706543,-0.36585599184036255,1.021347999572754,-2.2713558673858643,53.10000228881836,-174.90000915527344,-19.5
302693,2.122809410095215,8.021097183227539,-3.6773829460144043,0.8307979702949524,-0.3887220025062561,-1.3490939140319824,53.10000228881836,-165.3000030517578,-18.30000114440918
302713,2.339337110519409,9.04392147064209,-3.7132716178894043,1.8673899173736572,-1.2804960012435913,-0.04573199898004532,57.900001525878906,-182.10000610351562,-20.700000762939453
302735,2.3207948207855225,9.397424697875977,-3.7365992069244385,1.806414008140564,-1.653973937034607,-0.02286599949002266,67.5,-170.10000610351562,-18.30000114440918
302755,2.5881645679473877,9.275403022766113,-3.3376376628875732,1.2881180047988892,-1.7759259939193726,-0.09146399796009064,43.5,-172.5,-21.900001525878906
302776,2.741887331008911,8.262746810913086,-2.9009933471679688,-0.114329993724823,-0.46494197845458984,0.4039659798145294,57.900001525878906,-170.10000610351562,-23.100000381469727
302796,2.763420581817627,7.789616107940674,-2.845964193344116,-0.8765299916267395,0.5411620140075684,1.1356779336929321,53.10000228881836,-170.10000610351562,-23.100000381469727
302819,2.8926193714141846,7.541386604309082,-2.844169855117798,-1.3948259353637695,1.1280559301376343,1.829279899597168,57.900001525878906,-162.90000915527344,-17.100000381469727
302839,2.9919111728668213,7.2776055335998535,-2.9320969581604004,-1.5472660064697266,1.4329359531402588,2.233245849609375,29.100000381469727,-177.3000030517578,-14.700000762939453
302859,3.156998634338379,7.248296737670898,-2.861515998840332,-1.425313949584961,1.3338500261306763,2.591480016708374,41.10000228881836,-182.10000610351562,-23.100000381469727
302899,3.8592183589935303,8.002554893493652,-2.584575891494751,-1.2804960012435913,1.0975680351257324,2.5228819847106934,41.10000228881836,-174.90000915527344,-23.100000381469727
302919,4.029689311981201,8.067752838134766,-2.367449998855591,-1.524399995803833,0.9451279640197754,2.0655620098114014,24.30000114440918,-182.10000610351562,-23.100000381469727
302941,4.125990390777588,7.986404895782471,-2.2585878372192383,-1.4024479389190674,0.5182960033416748,1.699705958366394,38.70000076293945,-174.90000915527344,-20.700000762939453
302961,3.956117630004883,7.477385520935059,-2.140753746032715,-1.067080020904541,0.19054999947547913,1.3643379211425781,33.900001525878906,-174.90000915527344,-21.900001525878906
302982,4.509997844696045,8.725709915161133,-2.4194884300231934,-0.19817200303077698,-0.48018598556518555,1.6920839548110962,29.100000381469727,-167.70001220703125,-14.100000381469727
303022,4.589550971984863,8.779542922973633,-1.9648996591567993,-0.48018598556518555,-1.3490939140319824,1.1128119230270386,29.100000381469727,-172.5,-18.900001525878906
303086,3.8891255855560303,8.77894401550293,-1.4516929388046265,-1.013725996017456,-1.5396440029144287,2.080806016921997,31.500001907348633,-184.5,-27.900001525878906
303106,3.768300771713257,9.153382301330566,-1.3045498132705688,-0.9070180058479309,-1.7759259939193726,1.6082419157028198,26.700000762939453,-165.3000030517578,-18.30000114440918
303126,3.422574043273926,9.127063751220703,-0.8822608590126038,-1.0899460315704346,-1.7606819868087769,0.7698220014572144,19.5,-174.90000915527344,-16.5
303149,3.2766273021698,9.57088565826416,-0.8804664611816406,-0.9375059604644775,-1.196653962135315,0.1448179930448532,33.900001525878906,-174.90000915527344,-28.500001907348633
303169,3.239542245864868,10.16065502166748,-0.8888404369354248,-0.9756159782409668,-0.8689079880714417,-0.5335400104522705,26.700000762939453,-165.3000030517578,-20.100000381469727
303191,3.0212202072143555,9.78801155090332,-0.703416109085083,-1.0442140102386475,-0.3887220025062561,-1.1509219408035278,26.700000762939453,-170.10000610351562,-24.900001525878906
303211,2.5971367359161377,9.13962459564209,-0.46595337986946106,-0.8231759667396545,0.1295740008354187,-1.1280559301376343,31.500001907348633,-179.70001220703125,-21.30000114440918
303255,1.4630577564239502,8.96735954284668,-0.9815526008605957,-0.09908600151538849,1.0823240280151367,-1.3109840154647827,29.100000381469727,-170.10000610351562,-21.30000114440918
303319,2.277728319168091,9.242505073547363,-0.9384863376617432,0.09908600151538849,-0.26677000522613525,-1.1509219408035278,29.100000381469727,-182.10000610351562,-22.5
303339,2.5032284259796143,9.124073028564453,-0.7668192982673645,-0.18292799592018127,-0.13719600439071655,-0.5868939757347107,26.700000762939453,-174.90000915527344,-21.900001525878906
303361,2.7490651607513428,9.080408096313477,-0.7135845422744751,-0.49542999267578125,0.20579399168491364,-0.030487999320030212,24.30000114440918,-182.10000610351562,-17.700000762939453
303382,2.9314987659454346,8.854310035705566,-0.6681256890296936,-0.6783579587936401,0.48018598556518555,0.3887220025062561,29.100000381469727,-174.90000915527344,-21.900001525878906
303442,3.582278251647949,8.85789966583252,-0.5903671383857727,-0.5030519962310791,1.2728739976882935,1.3414719104766846,33.900001525878906,-179.70001220703125,-16.5
303462,3.770693302154541,9.315478324890137,-0.6639387011528015,-0.5030519962310791,1.3948259353637695,1.1661659479141235,26.700000762939453,-170.10000610351562,-20.700000762939453
303482,3.6462795734405518,8.64974594116211,-0.6950421333312988,-0.6250039935112,1.4862899780273438,0.4878079891204834,26.700000762939453,-177.3000030517578,-23.100000381469727
303502,3.723439931869507,8.442788124084473,-0.7991189956665039,-0.22103799879550934,1.3643379211425781,0.4192099869251251,24.30000114440918,-174.90000915527344,-23.700000762939453
303522,4.009950637817383,8.902161598205566,-0.9815526008605957,0.12195199728012085,1.189031958580017,0.5411620140075684,29.100000381469727,-182.10000610351562,-26.100000381469727
303584,4.066773891448975,8.57497787475586,-1.0156468152999878,0.25152599811553955,1.4558019638061523,1.1128119230270386,14.700000762939453,-177.3000030517578,-23.700000762939453
303619,3.6492702960968018,8.134146690368652,-1.4941611289978027,0.8155539631843567,1.295740008354187,1.4329359531402588,21.900001525878906,-174.90000915527344,-26.100000381469727
303640,3.6050076484680176,8.638381004333496,-1.6179767847061157,0.9603719711303711,0.8079319596290588,1.242385983467102,5.100000381469727,-172.5,-16.5
303681,3.9184346199035645,9.5032958984375,-2.033087968826294,0.46494197845458984,0.5259180068969727,0.19817200303077698,19.5,-172.5,-21.900001525878906
303701,3.603811502456665,8.87285327911377,-2.2454288005828857,0.13719600439071655,0.5564059615135193,-0.3277460038661957,24.30000114440918,-184.5,-22.5
303721,3.4596588611602783,8.255569458007812,-2.44401216506958,-0.02286599949002266,0.6631140112876892,0.060975998640060425,14.700000762939453,-162.90000915527344,-20.700000762939453
303741,3.543398857116699,8.64555835723877,-2.712578296661377,-0.1295740008354187,0.8384199738502502,0.4344539940357208,12.300000190734863,-179.70001220703125,-19.5
303801,3.3513951301574707,8.570192337036133,-3.3005528450012207,0.36585599184036255,0.7774440050125122,-0.33536797761917114,17.100000381469727,-184.5,-20.700000762939453
303821,3.5009307861328125,8.44637680053711,-3.338235855102539,0.3734779953956604,0.426831990480423,-0.5411620140075684,5.100000381469727,-167.70001220703125,-25.500001907348633
303841,3.5601470470428467,8.107230186462402,-3.156400442123413,0.060975998640060425,0.06859800219535828,-0.3582339882850647,9.90000057220459,-177.3000030517578,-17.100000381469727
303861,3.5571563243865967,7.893094539642334,-3.013444185256958,-0.16768398880958557,0.09908600151538849,0.05335399881005287,12.300000190734863,-182.10000610351562,-18.30000114440918
303884,3.479397773742676,7.821915626525879,-3.034977436065674,-0.3887220025062561,0.23628199100494385,0.2972579896450043,14.700000762939453,-174.90000915527344,-27.30000114440918
303904,3.5637357234954834,7.903263092041016,-3.0744547843933105,-0.5487840175628662,0.1600620001554489,0.46494197845458984,21.900001525878906,-174.90000915527344,-24.30000114440918
303924,3.8197410106658936,8.263943672180176,-2.980546474456787,-0.8079319596290588,-0.02286599949002266,0.7088459730148315,-2.1000001430511475,-177.3000030517578,-16.5
303944,3.9070699214935303,8.132351875305176,-2.851945638656616,-1.1128119230270386,-0.1448179930448532,0.9298839569091797,14.700000762939453,-179.70001220703125,-23.100000381469727
303964,4.151112079620361,8.3698148727417,-2.650371551513672,-1.2804960012435913,-0.426831990480423,1.3033620119094849,2.700000047683716,-165.3000030517578,-21.900001525878906
303984,4.346107006072998,8.553444862365723,-2.3746275901794434,-1.6387299299240112,-0.5259180068969727,1.5625100135803223,17.100000381469727,-172.5,-20.100000381469727
304004,4.42087459564209,8.596510887145996,-2.2125308513641357,-1.875011920928955,-0.3582339882850647,1.5625100135803223,-2.1000001430511475,-179.70001220703125,-15.90000057220459
304024,4.594336032867432,9.023585319519043,-2.121613025665283,-2.0122079849243164,-0.3734779953956604,1.5320219993591309,2.700000047683716,-170.10000610351562,-17.100000381469727
304044,4.553662300109863,9.164148330688477,-1.7699050903320312,-2.1646480560302734,-0.5030519962310791,1.1661659479141235,7.500000476837158,-174.90000915527344,-17.100000381469727
304105,3.9686787128448486,8.141324043273926,-1.105966329574585,-1.6692179441452026,0.3277460038661957,-0.510673999786377,5.100000381469727,-184.5,-26.100000381469727
304126,3.9453511238098145,8.923096656799316,-0.9498510360717773,-1.0061039924621582,0.228659987449646,-0.6783579587936401,5.100000381469727,-167.70001220703125,-26.100000381469727
304146,3.9597065448760986,9.05588436126709,-0.6196761131286621,-0.9070180058479309,0.35061198472976685,-1.4329359531402588,14.700000762939453,-172.5,-23.100000381469727
304166,3.786245107650757,8.38476848602295,-0.5490952730178833,-0.3734779953956604,0.9984819889068604,-2.14178204536438,0.30000001192092896,-184.5,-23.100000381469727
304186,3.797609806060791,8.400918006896973,-0.7644267082214355,-0.1448179930448532,1.2271419763565063,-2.027451992034912,9.90000057220459,-177.3000030517578,-23.100000381469727
304247,4.0524187088012695,8.424843788146973,-1.4564781188964844,-0.3048799932003021,0.8841519951820374,-1.371959924697876,19.5,-177.3000030517578,-23.700000762939453
304282,3.983034133911133,7.330242156982422,-1.513899803161621,-0.8079319596290588,1.0747020244598389,0.4725639820098877,19.5,-167.70001220703125,-29.100000381469727
304302,4.25459098815918,8.240615844726562,-1.8979076147079468,-0.6097599864006042,1.2042759656906128,1.6158639192581177,17.100000381469727,-174.90000915527344,-29.100000381469727
304345,3.67499041557312,7.666398525238037,-1.7758865356445312,-0.6097599864006042,0.4039659798145294,1.0289700031280518,0.30000001192092896,-179.70001220703125,-18.900001525878906
304367,3.4147982597351074,7.681950092315674,-1.8997020721435547,0.10670799762010574,0.030487999320030212,0.7164679765701294,5.100000381469727,-182.10000610351562,-25.500001907348633
304387,3.145035743713379,7.818326950073242,-1.8357007503509521,0.4344539940357208,-0.39634400606155396,-0.1600620001554489,9.90000057220459,-174.90000915527344,-21.30000114440918
304407,3.5332305431365967,9.364526748657227,-1.9708811044692993,0.9908599853515625,-0.853663980960846,-0.6173819899559021,2.700000047683716,-177.3000030517578,-27.30000114440918
304427,3.7300195693969727,9.715636253356934,-1.5844807624816895,0.457319974899292,-1.8140360116958618,-1.3033620119094849,0.30000001192092896,-177.3000030517578,-23.700000762939453
304447,3.0750529766082764,8.562417030334473,-1.2919888496398926,0.4878079891204834,-1.6311079263687134,-0.8307979702949524,19.5,-186.90000915527344,-29.700000762939453
304467,3.2652623653411865,9.2999267578125,-1.3948694467544556,0.5259180068969727,-1.646351933479309,-0.2743920087814331,17.100000381469727,-189.3000030517578,-21.900001525878906
304490,3.514090061187744,10.029661178588867,-1.536629319190979,0.19054999947547913,-1.935987949371338,0.48018598556518555,2.700000047683716,-179.70001220703125,-21.900001525878906
304510,3.371133804321289,8.924891471862793,-1.024020791053772,-0.6173819899559021,-2.2637338638305664,1.1737879514694214,7.500000476837158,-191.70001220703125,-32.10000228881836
304530,3.6044094562530518,10.14151382446289,-0.9516454935073853,-0.7317119836807251,-1.6768399477005005,2.1494040489196777,9.90000057220459,-172.5,-24.30000114440918
304571,3.239542245864868,9.5391845703125,-0.6830793023109436,-1.3948259353637695,-0.9984819889068604,-0.9756159782409668,5.100000381469727,-177.3000030517578,-20.100000381469727
304591,2.7532520294189453,8.207717895507812,-0.718967854976654,-1.0747020244598389,-0.8612859845161438,-1.6844619512557983,21.900001525878906,-182.10000610351562,-23.700000762939453
304611,2.6778860092163086,7.875150203704834,-0.5144029259681702,-0.3201240003108978,-0.8231759667396545,-1.1356779336929321,14.700000762939453,-177.3000030517578,-29.100000381469727
304631,2.862114191055298,8.216092109680176,-0.38939106464385986,0.09908600151538849,-0.5259180068969727,-0.7545779943466187,17.100000381469727,-182.10000610351562,-24.30000114440918
304651,2.9279098510742188,8.769373893737793,-0.5467026829719543,0.457319974899292,0.02286599949002266,-0.7012239694595337,9.90000057220459,-172.5,-23.700000762939453
304671,2.9069747924804688,8.65572738647461,-0.6902570128440857,0.5868939757347107,0.3201240003108978,-0.9832379817962646,7.500000476837158,-177.3000030517578,-20.100000381469727
304694,2.8627121448516846,8.708961486816406,-0.915158748626709,0.7469559907913208,0.4420759975910187,-0.8917739987373352,14.700000762939453,-179.70001220703125,-23.700000762939453
304714,2.900395154953003,8.314187049865723,-0.9432714581489563,0.7545779943466187,0.5259180068969727,-0.4344539940357208,12.300000190734863,-174.90000915527344,-26.700000762939453
304734,3.1229045391082764,8.91352653503418,-1.1514252424240112,0.7774440050125122,0.7850660085678101,0.16768398880958557,7.500000476837158,-172.5,-23.700000762939453
304754,3.2981603145599365,9.340002059936523,-1.3882898092269897,0.6707359552383423,0.914639949798584,0.33536797761917114,7.500000476837158,-182.10000610351562,-16.5
304774,3.189298391342163,9.04990291595459,-1.6646318435668945,0.6173819899559021,0.8612859845161438,0.1600620001554489,17.100000381469727,-177.3000030517578,-19.5
304794,3.2299721240997314,9.05409049987793,-1.9044872522354126,0.800309956073761,0.5792719721794128,0.18292799592018127,21.900001525878906,-167.70001220703125,-26.700000762939453
304814,3.2772252559661865,8.972743034362793,-1.9158519506454468,0.6402480006217957,-0.060975998640060425,-0.07621999830007553,24.30000114440918,-177.3000030517578,-18.900001525878906
304834,3.4291536808013916,9.12467098236084,-1.912263035774231,0.5411620140075684,-0.19817200303077698,-0.015243999660015106,17.100000381469727,-179.70001220703125,-17.700000762939453
304854,3.4776031970977783,8.914722442626953,-1.7358108758926392,-0.06859800219535828,-0.26677000522613525,-0.17530599236488342,2.700000047683716,-174.90000915527344,-23.100000381469727
304874,3.4213778972625732,8.61086654663086,-1.7136796712875366,-0.5335400104522705,-0.114329993724823,-0.038109999150037766,24.30000114440918,-172.5,-23.700000762939453
304934,3.434536933898926,8.839356422424316,-1.7507644891738892,-1.0518360137939453,-0.6631140112876892,-0.007621999830007553,21.900001525878906,-177.3000030517578,-20.100000381469727
304954,3.5368194580078125,8.71733570098877,-1.6682207584381104,-0.9070180058479309,-0.9832379817962646,-0.20579399168491364,9.90000057220459,-174.90000915527344,-22.5
304977,3.723439931869507,8.64854907989502,-1.5886677503585815,-0.6783579587936401,-1.2042759656906128,-0.2134159952402115,17.100000381469727,-179.70001220703125,-24.30000114440918
305041,3.7216455936431885,8.667091369628906,-1.5180869102478027,-0.6936019659042358,-0.6554920077323914,-0.030487999320030212,24.30000114440918,-179.70001220703125,-26.100000381469727
305061,3.7102808952331543,8.661109924316406,-1.4911704063415527,-0.7545779943466187,-0.457319974899292,-0.13719600439071655,14.700000762939453,-172.5,-20.700000762939453
305101,3.744374990463257,8.668288230895996,-1.5240682363510132,-0.36585599184036255,-0.3277460038661957,0.05335399881005287,19.5,-189.3000030517578,-20.700000762939453
305125,3.7222437858581543,8.676063537597656,-1.519881248474121,-0.26677000522613525,-0.15243999660015106,-0.15243999660015106,9.90000057220459,-172.5,-24.900001525878906
305146,3.6702053546905518,8.737672805786133,-1.5192831754684448,-0.13719600439071655,-0.09146399796009064,-0.41158798336982727,-2.1000001430511475,-165.3000030517578,-21.900001525878906
305186,3.8287131786346436,8.474489212036133,-1.5150961875915527,0.20579399168491364,0.15243999660015106,-0.6707359552383423,12.300000190734863,-167.70001220703125,-24.900001525878906
305206,3.875368356704712,8.500807762145996,-1.5342366695404053,0.15243999660015106,0.3277460038661957,-0.457319974899292,12.300000190734863,-177.3000030517578,-22.5
305226,3.780263662338257,8.288467407226562,-1.4857871532440186,0.06859800219535828,0.4878079891204834,-0.17530599236488342,5.100000381469727,-172.5,-26.100000381469727
305266,3.3400304317474365,7.306316375732422,-1.2943813800811768,-0.39634400606155396,0.510673999786377,-0.33536797761917114,7.500000476837158,-182.10000610351562,-21.900001525878906
305295,2.0067696571350098,3.546389579772949,-0.30565106868743896,-1.2804960012435913,0.08384199440479279,-1.1509219408035278,14.700000762939453,-177.3000030517578,-25.500001907348633
305318,1.3410365581512451,1.7651199102401733,0.34632477164268494,-1.600619912147522,0.26677000522613525,-0.5030519962310791,24.30000114440918,-179.70001220703125,-33.30000305175781
305359,3.6343166828155518,7.101153373718262,-0.4013539254665375,-1.1585439443588257,3.2317278385162354,4.306429862976074,9.90000057220459,-172.5,-24.900001525878906
305422,8.30282211303711,19.530563354492188,-5.3671369552612305,1.5701320171356201,2.3170878887176514,-1.9054999351501465,9.90000057220459,-174.90000915527344,-20.100000381469727
305542,2.2974672317504883,6.235042095184326,-1.0234225988388062,-0.08384199440479279,-3.7195358276367188,-8.125051498413086,21.900001525878906,-174.90000915527344,-22.5
305562,0.7231548428535461,2.268158197402954,-0.6172835230827332,0.12195199728012085,-1.4862899780273438,-8.231760025024414,26.700000762939453,-165.3000030517578,-24.900001525878906
305582,-0.712388277053833,-0.4372425079345703,-0.3086417615413666,-1.2652519941329956,-0.3582339882850647,-5.243936061859131,41.10000228881836,-174.90000915527344,-25.500001907348633
305602,-0.906186580657959,-0.6591535806655884,-0.4767199456691742,-1.2500079870224,0.8917739987373352,-1.1356779336929321,36.30000305175781,-182.10000610351562,-18.900001525878906
305622,0.11603973805904388,1.4534873962402344,-0.5508896708488464,-0.5259180068969727,0.12195199728012085,0.6173819899559021,43.5,-182.10000610351562,-23.100000381469727
305642,0.23507018387317657,1.5150961875915527,-0.2135370373725891,-0.853663980960846,0.25152599811553955,-0.7240899801254272,43.5,-165.3000030517578,-24.30000114440918
305665,-0.1309933066368103,0.28651049733161926,-0.08553444594144821,-1.1661659479141235,0.04573199898004532,-1.417691946029663,43.5,-179.70001220703125,-15.300000190734863
305685,-0.37324121594429016,-0.7363139986991882,0.29368820786476135,-1.1814099550247192,-0.2439039945602417,-1.478667974472046,43.5,-177.3000030517578,-17.700000762939453
305705,-0.6465925574302673,-1.0706759691238403,0.47492551803588867,-0.6707359552383423,0.007621999830007553,-0.8460419774055481,41.10000228881836,-172.5,-26.100000381469727
305725,-0.6077132821083069,-0.9827489256858826,0.5736191272735596,-0.9603719711303711,0.09908600151538849,0.2972579896450043,43.5,-177.3000030517578,-22.5
305745,-0.6669294238090515,-0.8523537516593933,0.5891708135604858,-0.8841519951820374,0.5945159792900085,1.417691946029663,43.5,-172.5,-24.30000114440918
305769,0.09211401641368866,1.3183071613311768,0.08015115559101105,-0.13719600439071655,0.9832379817962646,3.666181802749634,45.900001525878906,-189.3000030517578,-23.100000381469727
305789,1.5605549812316895,4.818639755249023,-0.6268538236618042,0.49542999267578125,1.7454379796981812,6.836933612823486,41.10000228881836,-179.70001220703125,-19.5
305809,3.550576686859131,11.371295928955078,-1.9116649627685547,0.4039659798145294,3.048799991607666,11.974162101745605,17.100000381469727,-165.3000030517578,-24.30000114440918
305829,5.981429576873779,16.813199996948242,-2.9709761142730713,-1.1204339265823364,3.871975898742676,9.4970121383667,19.5,-172.5,-28.500001907348633
305849,7.013226509094238,17.21575164794922,-3.782656192779541,-1.5625100135803223,1.8216580152511597,3.346057891845703,-2.1000001430511475,-179.70001220703125,-22.5
305869,8.149100303649902,18.852869033813477,-3.1581947803497314,-1.2195199728012085,0.8155539631843567,4.07014799118042,12.300000190734863,-170.10000610351562,-14.700000762939453
305892,14.34645938873291,19.580209732055664,-5.7810516357421875,-2.6067240238189697,5.8689398765563965,13.384231567382812,-16.5,-172.5,-21.900001525878906
305912,15.100717544555664,19.599349975585938,-5.753537178039551,-0.5640279650688171,0.8460419774055481,5.0533857345581055,-18.900001525878906,-162.90000915527344,-29.100000381469727
305932,11.526214599609375,19.599349975585938,-5.4149885177612305,1.9588539600372314,-2.195136070251465,-4.062525749206543,-21.30000114440918,-170.10000610351562,-25.500001907348633
305952,8.447572708129883,18.27625846862793,-4.323975563049316,1.6387299299240112,-4.207344055175781,-4.771371841430664,-6.900000095367432,-174.90000915527344,-21.900001525878906
305972,5.850436210632324,12.541861534118652,-2.6892507076263428,0.7850660085678101,-5.632658004760742,-6.6844940185546875,-11.700000762939453,-165.3000030517578,-23.700000762939453
305992,3.1073527336120605,6.819427967071533,-0.48210322856903076,-0.12195199728012085,-5.960403919219971,-10.259211540222168,-18.900001525878906,-174.90000915527344,-26.100000381469727
306012,1.3033535480499268,0.915158748626709,0.2631829082965851,-0.3201240003108978,-3.9786839485168457,-11.593061447143555,2.700000047683716,-177.3000030517578,-19.5
306033,-0.35529693961143494,-1.9517405033111572,1.0174411535263062,-2.7667858600616455,-1.1509219408035278,-4.375028133392334,17.100000381469727,-174.90000915527344,-26.100000381469727
306053,0.7040143013000488,-0.6549665331840515,0.6172835230827332,-2.8734939098358154,0.6554920077323914,1.646351933479309,19.5,-170.10000610351562,-22.5
306073,1.1053682565689087,0.6298445463180542,0.711790144443512,-1.5625100135803223,0.3887220025062561,1.7301939725875854,9.90000057220459,-174.90000915527344,-23.700000762939453
306093,1.1592010259628296,0.7482768297195435,0.5532822608947754,-1.067080020904541,0.6097599864006042,1.2576299905776978,14.700000762939453,-170.10000610351562,-13.500000953674316
306113,0.9492529034614563,0.596946656703949,0.707004964351654,-0.6631140112876892,0.1295740008354187,0.7698220014572144,12.300000190734863,-177.3000030517578,-32.70000076293945
306133,0.34811919927597046,-0.3822133541107178,0.8547462821006775,-0.2439039945602417,-0.015243999660015106,-0.3201240003108978,7.500000476837158,-179.70001220703125,-25.500001907348633
306153,0.0059814294800162315,-0.4551868140697479,0.8529518842697144,0.5259180068969727,0.1295740008354187,-1.0594580173492432,21.900001525878906,-174.90000915527344,-21.900001525878906
306173,-0.17346146702766418,-0.4342517852783203,0.6764997243881226,0.7774440050125122,0.12195199728012085,-1.4405579566955566,17.100000381469727,-179.70001220703125,-23.100000381469727
306193,-0.22849062085151672,-0.5622543692588806,0.5431138277053833,0.8841519951820374,0.1600620001554489,-1.707327961921692,17.100000381469727,-186.90000915527344,-20.100000381469727
306213,-0.19379831850528717,-0.4139149487018585,0.3176139295101166,0.8079319596290588,0.25152599811553955,-0.8841519951820374,9.90000057220459,-165.3000030517578,-24.900001525878906
306236,0.37443751096725464,1.505525827407837,-0.30266034603118896,1.5929979085922241,0.9375059604644775,0.8993960022926331,24.30000114440918,-179.70001220703125,-27.30000114440918
306256,2.057013750076294,5.304930210113525,-1.305746078491211,1.8902559280395508,0.8460419774055481,3.49849796295166,14.700000762939453,-172.5,-22.5
306278,2.566033363342285,8.95539665222168,-2.1945865154266357,2.2561118602752686,3.4832539558410645,6.166197776794434,0.30000001192092896,-172.5,-23.700000762939453
306298,7.885916709899902,19.227903366088867,-5.148216724395752,-0.1600620001554489,6.74547004699707,14.794301986694336,0.30000001192092896,-172.5,-19.5
306318,8.764589309692383,19.431272506713867,-5.13804817199707,-1.6082419157028198,-0.19817200303077698,1.5396440029144287,-6.900000095367432,-165.3000030517578,-27.30000114440918
306340,9.590025901794434,19.27037239074707,-5.052513599395752,1.6234859228134155,0.457319974899292,-0.8612859845161438,2.700000047683716,-172.5,-25.500001907348633
306361,17.131412506103516,19.589181900024414,-6.45456075668335,-3.1402640342712402,6.402479648590088,11.829343795776367,-33.30000305175781,-167.70001220703125,-23.700000762939453
306382,15.555904388427734,19.599349975585938,-5.609385013580322,-2.9116039276123047,0.17530599236488342,2.995445966720581,-30.900001525878906,-172.5,-35.10000228881836
306402,11.880315780639648,19.599349975585938,-4.845556259155273,-1.3872039318084717,0.1448179930448532,-2.8582499027252197,-21.30000114440918,-160.5,-25.500001907348633
306422,8.116800308227539,17.853370666503906,-3.980043411254883,-1.2728739976882935,-1.2576299905776978,-3.452765941619873,-16.5,-172.5,-20.700000762939453
306442,5.060887813568115,10.953792572021484,-2.4787044525146484,-1.1128119230270386,-3.9329519271850586,-7.149435997009277,-9.300000190734863,-179.70001220703125,-29.700000762939453
306462,2.3824033737182617,6.062777042388916,-0.13577845692634583,-0.5640279650688171,-4.100636005401611,-8.452797889709473,-11.700000762939453,-179.70001220703125,-27.30000114440918
306482,-0.5939559936523438,-0.8104837536811829,0.6334334015846252,-1.3109840154647827,-1.0289700031280518,-8.612859725952148,17.100000381469727,-182.10000610351562,-20.700000762939453
306502,-1.4636558294296265,-2.045050859451294,0.7704081535339355,-1.021347999572754,-0.060975998640060425,-6.631139755249023,7.500000476837158,-174.90000915527344,-21.900001525878906
306523,-0.258995920419693,-0.49526238441467285,0.1351803094148636,-0.800309956073761,0.3201240003108978,-0.3582339882850647,7.500000476837158,-177.3000030517578,-27.900001525878906
306543,0.9073829054832458,1.6867631673812866,0.38640037178993225,0.06859800219535828,-0.5868939757347107,-0.571649968624115,17.100000381469727,-179.70001220703125,-23.100000381469727
306563,0.6651349663734436,0.6113021373748779,0.33914706110954285,0.25152599811553955,-0.18292799592018127,-1.7606819868087769,14.700000762939453,-177.3000030517578,-27.900001525878906
306585,0.3666616380214691,0.12740445137023926,0.28471603989601135,0.7545779943466187,-0.48018598556518555,-1.4100699424743652,19.5,-172.5,-23.700000762939453
306605,-0.11245087534189224,-0.2673698961734772,0.5766098499298096,1.0365920066833496,-0.5792719721794128,-1.7225719690322876,12.300000190734863,-167.70001220703125,-17.100000381469727
306625,-0.3116324841976166,-0.3840077817440033,0.5646469593048096,1.021347999572754,-0.38109999895095825,-2.2180018424987793,21.900001525878906,-179.70001220703125,-20.700000762939453
306688,0.3235953450202942,0.811680018901825,-0.06160872429609299,0.7469559907913208,0.9756159782409668,0.3887220025062561,24.30000114440918,-177.3000030517578,-20.100000381469727
306708,1.928412914276123,4.606897354125977,-1.23695969581604,1.6234859228134155,1.6692179441452026,3.7195358276367188,19.5,-177.3000030517578,-18.900001525878906
306730,2.9255173206329346,7.598210334777832,-1.3589807748794556,0.7469559907913208,1.8673899173736572,5.121984004974365,14.700000762939453,-182.10000610351562,-20.100000381469727
306750,5.3695292472839355,13.860767364501953,-3.404629707336426,0.4039659798145294,5.647902011871338,12.096114158630371,0.30000001192092896,-177.3000030517578,-20.700000762939453
306770,8.612062454223633,18.488000869750977,-4.928100109100342,-4.153989791870117,4.6951518058776855,10.434517860412598,-6.900000095367432,-177.3000030517578,-23.100000381469727
306790,7.3374199867248535,19.183042526245117,-4.935277462005615,-1.4405579566955566,2.439039945602417,4.451247692108154,-14.100000381469727,-162.90000915527344,-18.900001525878906
306810,13.72080135345459,19.599349975585938,-7.342803001403809,-3.7195358276367188,7.4466938972473145,11.432999610900879,-16.5,-170.10000610351562,-21.30000114440918
306830,17.529178619384766,19.599349975585938,-5.977242946624756,-7.0351057052612305,-1.1051899194717407,7.50004768371582,-30.900001525878906,-167.70001220703125,-27.900001525878906
306850,12.937832832336426,19.599349975585938,-4.38498592376709,-2.5228819847106934,-2.5152599811553955,-4.832347869873047,-35.70000076293945,-170.10000610351562,-26.700000762939453
306870,10.545858383178711,19.49826431274414,-4.075746059417725,-2.583858013153076,-3.1402640342712402,-2.545747995376587,-28.500001907348633,-172.5,-25.500001907348633
306890,7.233941078186035,15.153353691101074,-2.3853940963745117,-2.2561118602752686,-5.632658004760742,-5.594547748565674,-35.70000076293945,-167.70001220703125,-20.700000762939453
306910,4.4400153160095215,9.480566024780273,-0.5939559936523438,-2.0579400062561035,-6.5320539474487305,-9.28359603881836,-2.1000001430511475,-174.90000915527344,-27.900001525878906
306950,-0.2338739037513733,-1.0808444023132324,1.6119953393936157,0.030487999320030212,-2.7667858600616455,-13.384231567382812,7.500000476837158,-174.90000915527344,-23.100000381469727
306985,0.92472904920578,0.24344418942928314,1.318905234336853,1.2347639799118042,-0.18292799592018127,-0.19817200303077698,12.300000190734863,-177.3000030517578,-24.30000114440918
307006,1.0443576574325562,0.20037789642810822,1.0503391027450562,1.6615959405899048,1.1814099550247192,-0.7545779943466187,17.100000381469727,-174.90000915527344,-22.5
307026,1.0144504308700562,0.4665515124797821,0.8726906180381775,1.646351933479309,1.524399995803833,0.5945159792900085,14.700000762939453,-174.90000915527344,-29.700000762939453
307046,0.42288708686828613,-0.04306629300117493,0.3517080545425415,1.646351933479309,1.8978779315948486,0.7621999979019165,36.30000305175781,-174.90000915527344,-26.700000762939453
307066,0.06400129944086075,-0.17106889188289642,0.2883049249649048,1.7606819868087769,1.1737879514694214,0.8384199738502502,14.700000762939453,-174.90000915527344,-22.5
307086,-0.04964586719870567,-0.042468149214982986,0.17106889188289642,1.5167779922485352,0.6631140112876892,0.342989981174469,14.700000762939453,-170.10000610351562,-20.100000381469727
307106,0.00239257188513875,-0.2398553341627121,0.08553444594144821,1.0518360137939453,0.18292799592018127,-0.5335400104522705,19.5,-179.70001220703125,-23.700000762939453
307166,2.5857720375061035,5.713461875915527,-1.0234225988388062,1.471045970916748,0.9451279640197754,4.78661584854126,24.30000114440918,-172.5,-21.30000114440918
307219,7.309905052185059,16.786882400512695,-2.9285080432891846,-1.653973937034607,1.2804960012435913,6.242417812347412,-2.1000001430511475,-165.3000030517578,-22.5
307239,8.362038612365723,18.326501846313477,-2.996098041534424,-0.2134159952402115,2.1112940311431885,3.803377866744995,-6.900000095367432,-174.90000915527344,-20.100000381469727
307279,17.065019607543945,19.598752975463867,-6.149507999420166,-2.637212038040161,4.1921000480651855,12.926911354064941,-18.900001525878906,-174.90000915527344,-25.500001907348633
307301,14.700559616088867,19.598752975463867,-5.3731184005737305,0.36585599184036255,0.12195199728012085,1.2881180047988892,-47.70000076293945,-172.5,-21.30000114440918
307321,11.959868431091309,19.599349975585938,-5.138646125793457,0.3887220025062561,-0.05335399881005287,-1.4939119815826416,-35.70000076293945,-172.5,-20.700000762939453
307341,9.345385551452637,18.09023666381836,-4.133167743682861,0.02286599949002266,-1.9207439422607422,-4.504601955413818,-38.10000228881836,-179.70001220703125,-25.500001907348633
307361,6.4336256980896,11.797173500061035,-2.313018798828125,-0.342989981174469,-3.9253299236297607,-8.079319953918457,-35.70000076293945,-172.5,-17.700000762939453
307384,1.5952472686767578,3.8705830574035645,-0.9654027819633484,1.699705958366394,-2.644834041595459,-13.117462158203125,-16.5,-172.5,-22.5
307407,-1.7106889486312866,-1.8279249668121338,-0.1591060310602188,1.0365920066833496,-1.1814099550247192,-13.734843254089355,2.700000047683716,-170.10000610351562,-17.700000762939453
307447,0.8499611616134644,1.4223840236663818,-0.05502915382385254,1.1737879514694214,-2.896359920501709,0.35061198472976685,17.100000381469727,-177.3000030517578,-18.30000114440918
307467,1.1909027099609375,1.4726279973983765,0.14833945035934448,0.739333987236023,-1.600619912147522,-2.027451992034912,14.700000762939453,-184.5,-16.5
307487,1.2907925844192505,0.8206521272659302,0.32718420028686523,-0.16768398880958557,-1.3033620119094849,-1.4024479389190674,17.100000381469727,-174.90000915527344,-20.100000381469727
307508,0.909177303314209,0.06878644227981567,0.358885794878006,-0.7545779943466187,-0.9375059604644775,-1.7911700010299683,24.30000114440918,-172.5,-17.700000762939453
307528,0.38640037178993225,-0.8954200148582458,0.7985208630561829,-1.1280559301376343,-0.9222619533538818,-1.6692179441452026,17.100000381469727,-170.10000610351562,-32.10000228881836
307548,0.47193479537963867,-0.30266034603118896,0.7165752649307251,-1.3414719104766846,-0.038109999150037766,-1.2042759656906128,19.5,-184.5,-23.100000381469727
307568,0.014953574165701866,-0.9761693477630615,0.5981429815292358,-1.3033620119094849,0.28201398253440857,-2.0579400062561035,14.700000762939453,-182.10000610351562,-26.100000381469727
307588,-0.17884474992752075,-1.2393522262573242,0.6459944248199463,-0.426831990480423,0.1600620001554489,-1.7759259939193726,36.30000305175781,-174.90000915527344,-21.30000114440918
307608,-0.04725329577922821,-0.7536601424217224,0.6531721353530884,0.18292799592018127,0.10670799762010574,-0.8917739987373352,26.700000762939453,-179.70001220703125,-19.5
307652,1.613789677619934,5.8946990966796875,-0.16688188910484314,-0.08384199440479279,2.0198299884796143,2.027451992034912,24.30000114440918,-177.3000030517578,-22.5
307672,2.9799482822418213,10.16962718963623,-2.268158197402954,1.6920839548110962,5.015275955200195,8.589993476867676,19.5,-179.70001220703125,-20.100000381469727
307694,7.928983211517334,19.599349975585938,-4.336536407470703,-2.538125991821289,8.60523796081543,17.401025772094727,14.700000762939453,-162.90000915527344,-22.5
307715,8.056387901306152,19.528770446777344,-6.474299430847168,0.13719600439071655,3.4908759593963623,1.6158639192581177,-14.100000381469727,-186.90000915527344,-19.5
307735,12.586722373962402,19.599349975585938,-5.758920669555664,-0.3201240003108978,-1.3109840154647827,1.4862899780273438,-11.700000762939453,-167.70001220703125,-19.5
307755,17.675722122192383,19.599349975585938,-4.563232898712158,-4.131124019622803,3.399411916732788,9.123534202575684,-18.900001525878906,-167.70001220703125,-25.500001907348633
307777,13.966638565063477,19.599349975585938,-6.4096999168396,-0.8612859845161438,1.8521459102630615,-1.600619912147522,-23.700000762939453,-167.70001220703125,-24.30000114440918
307797,11.630291938781738,19.599349975585938,-4.370630741119385,-2.088428020477295,-1.935987949371338,-2.225623846054077,-30.900001525878906,-160.5,-24.900001525878906
307817,8.438002586364746,18.193117141723633,-3.3137121200561523,-1.9893419742584229,-1.9969639778137207,-3.696669816970825,2.700000047683716,-174.90000915527344,-26.100000381469727
307881,-1.3470180034637451,-0.6872662901878357,-0.15970417857170105,-0.7012239694595337,-0.5411620140075684,-9.024447441101074,24.30000114440918,-184.5,-23.100000381469727
307901,-1.1885100603103638,-0.4737292230129242,-0.6513776779174805,-0.38109999895095825,-0.426831990480423,-0.967993974685669,36.30000305175781,-177.3000030517578,-26.700000762939453
307921,0.02691643312573433,1.9003002643585205,-0.3822133541107178,0.426831990480423,-2.187514066696167,-0.038109999150037766,14.700000762939453,-160.5,-20.700000762939453
307941,0.24344418942928314,0.3636709153652191,-0.10108616203069687,0.030487999320030212,-2.2180018424987793,-1.3795819282531738,17.100000381469727,-182.10000610351562,-26.700000762939453
307965,0.4976549446582794,0.08074930310249329,0.36127835512161255,0.10670799762010574,-2.39330792427063,-0.5792719721794128,19.5,-172.5,-17.100000381469727
307986,0.5544785261154175,0.0897214487195015,0.608909547328949,-0.2743920087814331,-1.4329359531402588,-0.18292799592018127,19.5,-165.3000030517578,-20.700000762939453
308006,0.21234075725078583,-0.19738717377185822,0.6944440007209778,-0.6631140112876892,-0.800309956073761,-0.7774440050125122,31.500001907348633,-186.90000915527344,-27.900001525878906
308026,-0.025122005492448807,-0.42587780952453613,0.715378999710083,-0.800309956073761,-0.12195199728012085,-1.0365920066833496,24.30000114440918,-186.90000915527344,-21.30000114440918
308046,-0.1561153084039688,-0.7763895988464355,0.7488750219345093,-0.7240899801254272,0.22103799879550934,-1.2347639799118042,24.30000114440918,-162.90000915527344,-27.900001525878906
308069,-0.19918161630630493,-1.0658907890319824,0.7548564076423645,-0.4878079891204834,0.4039659798145294,-0.007621999830007553,26.700000762939453,-182.10000610351562,-20.700000762939453
308131,3.097184419631958,8.83277702331543,-0.8003153204917908,1.0975680351257324,2.7210538387298584,6.326260089874268,21.900001525878906,-172.5,-20.100000381469727
308151,5.956905841827393,15.389620780944824,-2.956620693206787,0.4344539940357208,5.754610061645508,11.669281959533691,5.100000381469727,-177.3000030517578,-23.100000381469727
308171,8.525331497192383,19.599349975585938,-4.315003395080566,-1.882633924484253,4.8018598556518555,8.269869804382324,-4.5,-162.90000915527344,-24.30000114440918
308193,7.6981000900268555,19.575424194335938,-5.4054179191589355,-0.20579399168491364,3.7195358276367188,0.7317119836807251,-9.300000190734863,-177.3000030517578,-27.30000114440918
308213,14.471470832824707,19.599349975585938,-6.006551742553711,-3.9253299236297607,5.937537670135498,10.74701976776123,-9.300000190734863,-167.70001220703125,-29.700000762939453
308235,16.22223472595215,19.599349975585938,-5.3814921379089355,-6.920775890350342,2.987823963165283,7.919257640838623,-28.500001907348633,-172.5,-27.30000114440918
308255,12.073515892028809,19.599349975585938,-5.087804317474365,-1.8521459102630615,0.685979962348938,-6.882665634155273,-23.700000762939453,-174.90000915527344,-23.100000381469727
308297,4.754040241241455,11.667974472045898,-2.0576117038726807,-0.2743920087814331,-1.295740008354187,-7.583889961242676,-2.1000001430511475,-182.10000610351562,-30.900001525878906
308317,2.7951221466064453,7.018011569976807,-0.41870006918907166,0.7698220014572144,-2.530503988265991,-9.085423469543457,7.500000476837158,-189.3000030517578,-27.900001525878906
308338,0.36725977063179016,1.123910665512085,0.6615461111068726,0.5030519962310791,-1.3567159175872803,-11.311047554016113,7.500000476837158,-170.10000610351562,-24.900001525878906
308358,-0.39836323261260986,-2.143146276473999,0.26138848066329956,1.0061039924621582,0.2743920087814331,-4.382649898529053,24.30000114440918,-174.90000915527344,-24.30000114440918
308420,1.552779197692871,0.7141827344894409,0.503038227558136,0.7698220014572144,-0.1600620001554489,1.8597679138183594,17.100000381469727,-179.70001220703125,-22.5
308484,0.42169079184532166,-0.4492053687572479,0.812278151512146,0.3582339882850647,0.2439039945602417,-0.030487999320030212,19.5,-177.3000030517578,-23.100000381469727
308505,0.20875190198421478,-0.715977132320404,1.0144504308700562,0.038109999150037766,0.4192099869251251,-0.5792719721794128,0.30000001192092896,-179.70001220703125,-20.100000381469727
308525,0.14056359231472015,-0.8984107375144958,1.001291275024414,-0.015243999660015106,0.44969800114631653,-0.18292799592018127,2.700000047683716,-177.3000030517578,-18.30000114440918
308545,0.5018419623374939,0.4725329577922821,0.818857729434967,0.6097599864006042,0.9527499675750732,1.3109840154647827,5.100000381469727,-170.10000610351562,-23.100000381469727
308565,2.8178515434265137,7.443291187286377,-0.599937379360199,2.2027578353881836,2.134160041809082,6.516809940338135,14.700000762939453,-177.3000030517578,-27.30000114440918
308585,5.876156330108643,14.654502868652344,-1.5838825702667236,0,3.757645845413208,6.440589904785156,-4.5,-179.70001220703125,-26.100000381469727
308605,7.384075164794922,17.72536849975586,-3.7342066764831543,0.6021379828453064,3.551851987838745,3.239349842071533,-9.300000190734863,-172.5,-27.30000114440918
308625,8.2920560836792,16.325115203857422,-2.9111618995666504,-0.5868939757347107,-1.8445239067077637,-1.3033620119094849,-9.300000190734863,-174.90000915527344,-23.700000762939453
308666,9.917808532714844,19.599349975585938,-2.909367322921753,-1.3186060190200806,2.9802019596099854,4.89332389831543,-9.300000190734863,-162.90000915527344,-19.5
308686,8.78911304473877,19.174070358276367,-4.163074970245361,-1.3567159175872803,3.2698378562927246,-0.8307979702949524,-23.700000762939453,-172.5,-30.30000114440918
308706,5.669198989868164,15.061838150024414,-3.782656192779541,1.242385983467102,0.5411620140075684,-3.4680099487304688,-2.1000001430511475,-170.10000610351562,-26.100000381469727
308726,4.645776271820068,12.340287208557129,-3.2987585067749023,2.6067240238189697,-2.0579400062561035,-5.061007976531982,0.30000001192092896,-174.90000915527344,-23.100000381469727
308746,3.377713441848755,8.948817253112793,-2.1383612155914307,3.0183119773864746,-4.230209827423096,-6.89028787612915,14.700000762939453,-172.5,-25.500001907348633
308766,2.7460744380950928,6.153695106506348,-1.119125485420227,2.14178204536438,-4.474113941192627,-6.3719916343688965,5.100000381469727,-172.5,-19.5
308787,2.5355279445648193,4.795312404632568,-0.6136946678161621,0.7164679765701294,-2.9725799560546875,-3.7957558631896973,5.100000381469727,-177.3000030517578,-25.500001907348633
308808,2.2998597621917725,4.581775188446045,-0.6047225594520569,-0.5792719721794128,-1.3567159175872803,-2.0122079849243164,31.500001907348633,-170.10000610351562,-29.100000381469727
308828,2.1838200092315674,4.151710510253906,-1.1472382545471191,-1.5701320171356201,-0.6250039935112,-2.3018438816070557,21.900001525878906,-182.10000610351562,-21.30000114440918
308848,2.6330254077911377,4.009352207183838,-0.5682358145713806,-1.0518360137939453,-1.1204339265823364,-0.7850660085678101,26.700000762939453,-170.10000610351562,-21.30000114440918
308868,2.6629323959350586,5.118309497833252,-0.7267436981201172,-0.5411620140075684,-0.6707359552383423,-0.12195199728012085,17.100000381469727,-177.3000030517578,-23.700000762939453
308888,4.056605815887451,7.845841407775879,-1.1867156028747559,-0.6554920077323914,-0.7698220014572144,0.5945159792900085,2.700000047683716,-177.3000030517578,-17.700000762939453
308909,5.892306327819824,10.02906322479248,-0.49346795678138733,-1.7987920045852661,-0.9603719711303711,-0.007621999830007553,9.90000057220459,-179.70001220703125,-24.900001525878906
308930,5.115916728973389,8.17541790008545,-0.6980328559875488,-0.9527499675750732,1.0365920066833496,-1.5701320171356201,31.500001907348633,-179.70001220703125,-23.700000762939453
308950,5.237937927246094,9.173120498657227,-1.4648520946502686,0.38109999895095825,0.9984819889068604,0.2591480016708374,12.300000190734863,-177.3000030517578,-21.30000114440918
308971,4.95681095123291,10.048802375793457,-1.8961132764816284,1.0365920066833496,0.9451279640197754,0.28201398253440857,17.100000381469727,-158.10000610351562,-29.100000381469727
308992,4.297657012939453,9.68931770324707,-2.3710386753082275,1.8521459102630615,-1.14329993724823,-1.1737879514694214,14.700000762939453,-177.3000030517578,-23.100000381469727
309012,4.370630741119385,8.93745231628418,-2.1060614585876465,1.6158639192581177,-2.187514066696167,-1.5853760242462158,17.100000381469727,-177.3000030517578,-16.5
309033,4.346704959869385,8.470900535583496,-1.9439646005630493,1.5091559886932373,-2.637212038040161,-1.4481799602508545,14.700000762939453,-177.3000030517578,-24.30000114440918
309053,4.033876419067383,7.934964656829834,-1.7280350923538208,1.2271419763565063,-2.8734939098358154,-1.2728739976882935,31.500001907348633,-167.70001220703125,-22.5
309073,3.883742332458496,7.759110450744629,-1.6203693151474,0.9984819889068604,-2.949713945388794,-1.1661659479141235,33.900001525878906,-196.50001525878906,-18.900001525878906
309095,3.981837749481201,7.794999122619629,-1.3571864366531372,0.5640279650688171,-3.0335559844970703,-1.5167779922485352,21.900001525878906,-174.90000915527344,-23.700000762939453
309115,3.71386981010437,7.100555419921875,-1.2315763235092163,0.3125019967556,-2.850627899169922,-2.1494040489196777,36.30000305175781,-172.5,-21.30000114440918
309135,4.693627834320068,9.107922554016113,-1.317708969116211,0.39634400606155396,-2.545747995376587,-1.3262280225753784,41.10000228881836,-165.3000030517578,-28.500001907348633
309195,4.342517852783203,10.654122352600098,-1.3093349933624268,0.48018598556518555,-1.5091559886932373,-1.0289700031280518,33.900001525878906,-184.5,-21.900001525878906
309217,2.8328051567077637,9.46142578125,-1.6867631673812866,0.28201398253440857,-0.8155539631843567,-1.653973937034607,24.30000114440918,-177.3000030517578,-23.100000381469727
309237,1.293783187866211,7.783036231994629,-1.1909027099609375,0.6631140112876892,-2.4237959384918213,-1.6387299299240112,50.70000076293945,-182.10000610351562,-29.100000381469727
309257,0.7662211656570435,9.209009170532227,-1.4666465520858765,0.7240899801254272,-0.48018598556518555,0.2896359860897064,38.70000076293945,-182.10000610351562,-25.500001907348633
309337,-0.16807816922664642,10.599093437194824,-2.3471131324768066,0.8765299916267395,-0.9908599853515625,-3.2317278385162354,45.900001525878906,-167.70001220703125,-17.700000762939453
309396,-0.6501814126968384,9.270617485046387,-2.628838300704956,2.0198299884796143,-1.0975680351257324,-2.9725799560546875,57.900001525878906,-158.10000610351562,-14.100000381469727
309439,0.17106889188289642,9.381872177124023,-2.6910452842712402,1.7683039903640747,-1.3109840154647827,-1.2500079870224,65.10000610351562,-172.5,-20.100000381469727
309459,0.7668192982673645,9.52303409576416,-2.706596851348877,1.4558019638061523,-1.0823240280151367,-0.8993960022926331,67.5,-158.10000610351562,-18.900001525878906
309499,0.7410991191864014,8.466115951538086,-2.524163246154785,1.0061039924621582,-0.5564059615135193,-0.4725639820098877,65.10000610351562,-160.5,-18.30000114440918
309522,0.5987411141395569,8.950013160705566,-2.632427215576172,0.967993974685669,-0.06859800219535828,-1.0442140102386475,67.5,-165.3000030517578,-15.90000057220459
309565,0.90977543592453,8.713149070739746,-2.6784842014312744,0.967993974685669,-0.07621999830007553,-1.6234859228134155,65.10000610351562,-162.90000915527344,-15.300000190734863
309585,1.0419650077819824,8.988892555236816,-2.682671308517456,0.8155539631843567,0.09908600151538849,-1.4405579566955566,60.30000305175781,-172.5,-18.30000114440918
309606,1.0957978963851929,8.938050270080566,-3.0008833408355713,0.6402480006217957,0.2743920087814331,-1.7987920045852661,69.9000015258789,-165.3000030517578,-11.700000762939453
309626,1.0617038011550903,8.207717895507812,-2.9368820190429688,0.9222619533538818,-0.060975998640060425,-1.8597679138183594,72.30000305175781,-167.70001220703125,-11.700000762939453
309646,1.455880045890808,8.810646057128906,-3.1677651405334473,1.6615959405899048,0.114329993724823,-1.4634239673614502,77.10000610351562,-170.10000610351562,-17.100000381469727
309666,2.0366768836975098,9.872947692871094,-3.1934852600097656,1.8902559280395508,0.39634400606155396,-1.577754020690918,72.30000305175781,-167.70001220703125,-15.90000057220459
309706,1.61737859249115,8.225064277648926,-3.814955949783325,1.5472660064697266,1.1128119230270386,-3.567095994949341,72.30000305175781,-167.70001220703125,-12.300000190734863
309740,2.4398252964019775,8.87883472442627,-3.5338287353515625,0.007621999830007553,0.07621999830007553,-1.9664759635925293,81.9000015258789,-160.5,-7.500000476837158
309760,2.9344894886016846,9.621129989624023,-3.6253445148468018,-0.7850660085678101,0.12195199728012085,-1.7378159761428833,77.10000610351562,-162.90000915527344,-16.5
309800,2.6330254077911377,9.09296989440918,-3.5075104236602783,-1.1737879514694214,0.04573199898004532,-2.2103798389434814,93.9000015258789,-160.5,-12.300000190734863
309820,2.339935302734375,8.793299674987793,-3.5063140392303467,-0.7774440050125122,-0.060975998640060425,-2.439039945602417,101.10000610351562,-160.5,-13.500000953674316
309840,2.4314510822296143,9.324450492858887,-3.505117893218994,-0.09146399796009064,-0.16768398880958557,-2.5076379776000977,72.30000305175781,-167.70001220703125,-14.100000381469727
309860,2.4039366245269775,9.423144340515137,-3.4883697032928467,0.1295740008354187,-0.030487999320030212,-2.75154185295105,89.10000610351562,-158.10000610351562,-11.100000381469727
309880,2.1090521812438965,8.94044303894043,-3.4058260917663574,0.23628199100494385,0.33536797761917114,-2.6067240238189697,103.50000762939453,-158.10000610351562,-14.700000762939453
309901,1.9529367685317993,8.543275833129883,-3.374124526977539,0.2591480016708374,0.5792719721794128,-2.088428020477295,89.10000610351562,-150.90000915527344,-11.700000762939453
309921,1.6700152158737183,8.214895248413086,-3.410611152648926,0.36585599184036255,0.8079319596290588,-1.3109840154647827,98.70000457763672,-160.5,-11.700000762939453
310001,1.8410841226577759,8.013320922851562,-2.531341075897217,-0.5640279650688171,-0.09146399796009064,0.16768398880958557,93.9000015258789,-150.90000915527344,-15.90000057220459
310040,2.712578296661377,8.938050270080566,-2.158099889755249,-0.7545779943466187,-0.38109999895095825,1.1356779336929321,101.10000610351562,-160.5,-24.30000114440918
310060,3.3675448894500732,9.998558044433594,-2.1598942279815674,-0.8689079880714417,-0.8079319596290588,0.4725639820098877,98.70000457763672,-172.5,-17.700000762939453
310105,3.3633580207824707,9.230542182922363,-1.7471755743026733,-0.1448179930448532,-1.0899460315704346,-0.7164679765701294,86.70000457763672,-160.5,-10.5
310125,2.5983331203460693,9.041528701782227,-2.483489513397217,0.1448179930448532,-0.22103799879550934,-1.3795819282531738,91.5,-162.90000915527344,-17.700000762939453
310147,1.7609329223632812,9.510473251342773,-2.9344894886016846,1.1509219408035278,-0.38109999895095825,-1.1585439443588257,110.70000457763672,-160.5,-10.5
310167,0.5712265372276306,9.36273193359375,-3.2622718811035156,1.3414719104766846,-0.07621999830007553,-1.189031958580017,98.70000457763672,-155.70001220703125,-9.90000057220459
310187,-0.25421077013015747,9.269421577453613,-3.335245132446289,1.0518360137939453,-0.007621999830007553,-0.6783579587936401,103.50000762939453,-153.3000030517578,-16.5
310207,-0.8421853184700012,9.192859649658203,-3.4626495838165283,0.6478700041770935,0.5640279650688171,-0.49542999267578125,101.10000610351562,-148.5,-16.5
310227,-1.116134762763977,8.79090690612793,-3.8047873973846436,0.426831990480423,0.6173819899559021,-0.457319974899292,96.30000305175781,-165.3000030517578,-16.5
310247,-1.205856204032898,8.370412826538086,-3.64209246635437,0.4420759975910187,0.19817200303077698,-0.114329993724823,108.30000305175781,-153.3000030517578,-20.100000381469727
310269,-1.3595789670944214,8.670082092285156,-3.838881492614746,0.6631140112876892,0.1448179930448532,0.44969800114631653,101.10000610351562,-155.70001220703125,-15.300000190734863
310309,-1.5103110074996948,8.967957496643066,-4.126588344573975,0.8460419774055481,-0.6783579587936401,-0.2743920087814331,101.10000610351562,-158.10000610351562,-18.900001525878906
310360,-1.146041989326477,8.62163257598877,-3.7844505310058594,0.20579399168491364,-1.3033620119094849,-1.1204339265823364,108.30000305175781,-158.10000610351562,-6.900000095367432
310418,0.07177715748548508,8.048013687133789,-3.0188276767730713,-1.5091559886932373,-0.6326259970664978,-0.8155539631843567,105.9000015258789,-167.70001220703125,-15.90000057220459
310463,1.1233124732971191,8.59770679473877,-2.5205745697021484,-0.7088459730148315,-0.33536797761917114,-0.457319974899292,103.50000762939453,-160.5,-17.100000381469727
310520,0.7853617072105408,8.095865249633789,-3.0684733390808105,0.04573199898004532,1.013725996017456,-2.3704419136047363,103.50000762939453,-148.5,-13.500000953674316
310560,0.024523861706256866,9.351964950561523,-3.9058735370635986,1.6844619512557983,-0.030487999320030212,-1.021347999572754,115.50000762939453,-162.90000915527344,-11.100000381469727
310600,-0.15671345591545105,9.3956298828125,-4.009950637817383,1.1051899194717407,-1.1585439443588257,-1.9664759635925293,122.70000457763672,-162.90000915527344,-20.700000762939453
310639,-0.09031958878040314,9.02717399597168,-3.800600528717041,0.4725639820098877,-1.5625100135803223,-1.5929979085922241,110.70000457763672,-148.5,-17.100000381469727
310661,-0.09091772884130478,8.93147087097168,-3.6564478874206543,-0.12195199728012085,-1.5853760242462158,-0.9832379817962646,117.9000015258789,-143.70001220703125,-8.700000762939453
310702,0.010168430395424366,9.04212760925293,-3.4082186222076416,-0.5411620140075684,-1.067080020904541,-0.3125019967556,120.30000305175781,-148.5,-14.700000762939453
310762,0.18662060797214508,8.685633659362793,-3.1785316467285156,-0.3734779953956604,-0.2743920087814331,-0.2134159952402115,134.70001220703125,-158.10000610351562,-12.300000190734863
310782,0.1058713048696518,9.20841121673584,-3.1677651405334473,0.07621999830007553,0.02286599949002266,0.16768398880958557,127.50000762939453,-143.70001220703125,-21.30000114440918
310822,0.09211401641368866,9.045716285705566,-3.359170913696289,-0.060975998640060425,0.5030519962310791,-0.510673999786377,141.90000915527344,-148.5,-14.700000762939453
310842,-0.06220686808228493,8.891395568847656,-3.3998446464538574,0.19817200303077698,0.49542999267578125,-0.5487840175628662,129.90000915527344,-155.70001220703125,-9.300000190734863
310862,-0.18602246046066284,9.000855445861816,-3.6079983711242676,0.35061198472976685,0.5411620140075684,-0.3201240003108978,127.50000762939453,-155.70001220703125,-15.300000190734863
310882,-0.22250919044017792,9.042725563049316,-3.699514389038086,0.4344539940357208,0.3125019967556,-0.08384199440479279,127.50000762939453,-153.3000030517578,-16.5
310905,-0.13278773427009583,8.83875846862793,-3.5840725898742676,0.3125019967556,0.2439039945602417,-0.12195199728012085,122.70000457763672,-143.70001220703125,-11.700000762939453
310925,0.0065795728005468845,8.906349182128906,-3.535623073577881,0.28201398253440857,0.4420759975910187,-0.030487999320030212,132.3000030517578,-155.70001220703125,-8.100000381469727
310945,-0.001196285942569375,8.719130516052246,-3.589456081390381,0.08384199440479279,0.8079319596290588,-0.19817200303077698,134.70001220703125,-150.90000915527344,-9.90000057220459
310965,-0.024523861706256866,8.563612937927246,-3.776674747467041,0.19817200303077698,0.9222619533538818,-0.2134159952402115,108.30000305175781,-150.90000915527344,-16.5
310985,-0.07716044038534164,8.656325340270996,-3.8998920917510986,0.2896359860897064,0.7164679765701294,-0.1448179930448532,129.90000915527344,-148.5,-15.90000057220459
311009,-0.14056359231472015,8.945228576660156,-3.984828472137451,0.18292799592018127,0.39634400606155396,-0.114329993724823,125.10000610351562,-141.3000030517578,-13.500000953674316
311071,0.040075577795505524,8.83576774597168,-3.577493190765381,-0.5487840175628662,-0.04573199898004532,-0.2591480016708374,129.90000915527344,-143.70001220703125,-14.100000381469727
311142,-0.06280501186847687,8.902759552001953,-3.499136447906494,-0.4192099869251251,-0.3048799932003021,0.12195199728012085,132.3000030517578,-153.3000030517578,-11.100000381469727
311177,0.14235801994800568,8.933265686035156,-3.47580885887146,-0.4192099869251251,-0.114329993724823,0.05335399881005287,127.50000762939453,-153.3000030517578,-9.300000190734863
311197,0.2147333323955536,8.83098316192627,-3.416592597961426,-0.3201240003108978,0.007621999830007553,0.038109999150037766,117.9000015258789,-153.3000030517578,-11.700000762939453
311237,0.12441373616456985,8.84892749786377,-3.4118075370788574,-0.3125019967556,0.3887220025062561,0.09146399796009064,127.50000762939453,-143.70001220703125,-11.700000762939453
311261,0.18422803282737732,9.159363746643066,-3.392068862915039,-0.3277460038661957,0.5640279650688171,0.06859800219535828,127.50000762939453,-148.5,-14.100000381469727
311281,0.05801986902952194,8.815430641174316,-3.4620516300201416,-0.510673999786377,0.6936019659042358,-0.08384199440479279,129.90000915527344,-153.3000030517578,-14.700000762939453
311301,-0.07536601275205612,8.70836353302002,-3.47281813621521,-0.2134159952402115,0.7240899801254272,0.19817200303077698,129.90000915527344,-155.70001220703125,-6.300000190734863
311363,0.179442897439003,9.038537979125977,-3.371731996536255,-0.17530599236488342,0.914639949798584,0.33536797761917114,122.70000457763672,-162.90000915527344,-8.100000381469727
311384,0.18063917756080627,8.87584400177002,-3.3759188652038574,-0.26677000522613525,0.9756159782409668,-0.05335399881005287,122.70000457763672,-162.90000915527344,-11.100000381469727
311404,0.19200389087200165,8.705970764160156,-3.356180191040039,-0.510673999786377,0.7240899801254272,0.06859800219535828,113.10000610351562,-153.3000030517578,-20.100000381469727
311424,0.17884474992752075,9.093567848205566,-3.353189468383789,-0.5564059615135193,0.853663980960846,0.15243999660015106,127.50000762939453,-150.90000915527344,-6.900000095367432
311444,0.08314187079668045,9.164148330688477,-3.6085965633392334,0.038109999150037766,1.0823240280151367,-0.38109999895095825,113.10000610351562,-141.3000030517578,-12.90000057220459
311464,0.09331030398607254,9.087586402893066,-3.4710235595703125,0.06859800219535828,0.8307979702949524,-0.6097599864006042,117.9000015258789,-155.70001220703125,-17.100000381469727
311484,0.1339840292930603,8.852516174316406,-3.4656403064727783,-0.09908600151538849,0.8384199738502502,-0.6402480006217957,113.10000610351562,-150.90000915527344,-12.90000057220459
311504,0.14355431497097015,8.779542922973633,-3.5457916259765625,-0.09146399796009064,0.8612859845161438,-0.4192099869251251,117.9000015258789,-148.5,-8.700000762939453
311524,0.20576117932796478,9.003846168518066,-3.5075104236602783,-0.09146399796009064,0.6936019659042358,-0.13719600439071655,125.10000610351562,-153.3000030517578,-11.100000381469727
311564,0.2781364917755127,8.625221252441406,-3.314310312271118,-0.4725639820098877,0.6402480006217957,-0.18292799592018127,120.30000305175781,-150.90000915527344,-14.100000381469727
311600,0.39656877517700195,8.794496536254883,-3.216214656829834,-0.4192099869251251,0.7545779943466187,-0.3734779953956604,117.9000015258789,-150.90000915527344,-14.100000381469727
311620,0.4486072361469269,8.911731719970703,-3.070267915725708,-0.3277460038661957,0.7850660085678101,-0.5868939757347107,120.30000305175781,-150.90000915527344,-11.700000762939453
311660,0.11723602563142776,8.729896545410156,-3.076249361038208,-0.1600620001554489,1.013725996017456,-0.8155539631843567,125.10000610351562,-150.90000915527344,-6.900000095367432
311680,-0.25540703535079956,9.05708122253418,-3.236551523208618,0.18292799592018127,0.9908599853515625,-0.7621999979019165,125.10000610351562,-155.70001220703125,-14.700000762939453
311700,-0.6531721353530884,9.345983505249023,-3.4530794620513916,0.2591480016708374,0.571649968624115,-0.853663980960846,122.70000457763672,-160.5,-14.100000381469727
311720,-0.8481667041778564,9.807151794433594,-3.24372935295105,0.4192099869251251,-0.23628199100494385,-0.7317119836807251,117.9000015258789,-155.70001220703125,-11.700000762939453
311740,-1.1233124732971191,10.576363563537598,-3.076847553253174,-0.1448179930448532,-0.5868939757347107,-0.8765299916267395,115.50000762939453,-148.5,-12.90000057220459
311763,-1.7310258150100708,10.645150184631348,-3.21382212638855,-0.8612859845161438,-0.342989981174469,-1.7683039903640747,115.50000762939453,-155.70001220703125,-2.1000001430511475
311783,-2.2765321731567383,10.328134536743164,-3.5075104236602783,-1.4405579566955566,-0.7926880121231079,-1.8978779315948486,127.50000762939453,-148.5,-10.5
311803,-3.0421552658081055,9.098352432250977,-3.359170913696289,-1.981719970703125,-2.187514066696167,-2.3704419136047363,125.10000610351562,-146.10000610351562,-11.700000762939453
311823,-3.225186824798584,8.667689323425293,-3.6438870429992676,-1.7987920045852661,-3.666181802749634,-1.3262280225753784,137.10000610351562,-153.3000030517578,-18.30000114440918
311843,-2.333953857421875,9.565502166748047,-3.64508318901062,-1.0747020244598389,-6.486321926116943,-0.07621999830007553,134.70001220703125,-146.10000610351562,-6.300000190734863
311865,-2.095892906188965,8.733485221862793,-3.002079486846924,-1.2195199728012085,-8.551883697509766,-0.457319974899292,132.3000030517578,-148.5,-14.700000762939453
311885,-1.0694795846939087,9.153980255126953,-2.999088764190674,-0.6707359552383423,-10.160125732421875,1.1585439443588257,134.70001220703125,-136.5,-18.900001525878906
311905,-0.7769877314567566,8.86268424987793,-2.8274219036102295,-0.08384199440479279,-11.516841888427734,0.685979962348938,137.10000610351562,-153.3000030517578,-17.700000762939453
311928,-0.8284280300140381,7.214202404022217,-2.3530943393707275,1.6615959405899048,-14.2836275100708,0.9908599853515625,134.70001220703125,-153.3000030517578,-20.700000762939453
311948,-0.7596415877342224,6.497627258300781,-1.818354606628418,1.4939119815826416,-15.083937644958496,0.9070180058479309,139.5,-158.10000610351562,-13.500000953674316
311970,-0.32419347763061523,5.621945858001709,-1.5061240196228027,2.1494040489196777,-15.167779922485352,0.2896359860897064,141.90000915527344,-150.90000915527344,-15.300000190734863
311990,-0.28770676255226135,5.350389003753662,-1.2321745157241821,2.9268479347229004,-15.076315879821777,0.16768398880958557,137.10000610351562,-146.10000610351562,-24.30000114440918
312010,-0.13757288455963135,5.7810516357421875,-2.6192681789398193,2.4009299278259277,-12.827825546264648,1.0061039924621582,144.3000030517578,-148.5,-18.900001525878906
312031,0.4653552174568176,5.348594665527344,-2.7227468490600586,3.7957558631896973,-12.82020378112793,1.2881180047988892,153.90000915527344,-148.5,-20.100000381469727
312051,0.8972144722938538,6.073543548583984,-3.1761391162872314,2.9268479347229004,-11.25007152557373,2.7286758422851562,139.5,-148.5,-25.500001907348633
312071,1.2549039125442505,7.15079927444458,-4.024305820465088,2.8582499027252197,-8.292736053466797,3.155508041381836,132.3000030517578,-150.90000915527344,-24.30000114440918
312091,1.5790973901748657,8.888404846191406,-4.755236625671387,2.5686140060424805,-5.335400104522705,3.620450019836426,139.5,-162.90000915527344,-21.900001525878906
312114,1.414009928703308,10.985493659973145,-5.900082111358643,1.2804960012435913,-1.3872039318084717,3.567095994949341,137.10000610351562,-148.5,-24.900001525878906
312176,1.2166228294372559,11.671564102172852,-8.471498489379883,0.46494197845458984,1.7149499654769897,0.015243999660015106,132.3000030517578,-150.90000915527344,-15.90000057220459
312220,0.4133167862892151,11.401203155517578,-8.2382230758667,-0.114329993724823,6.760714054107666,-1.8597679138183594,146.70001220703125,-165.3000030517578,-17.100000381469727
312260,-1.511507272720337,8.848328590393066,-7.7220258712768555,-1.1128119230270386,10.24396800994873,-4.710395812988281,137.10000610351562,-160.5,-11.700000762939453
312281,-2.1718571186065674,8.421255111694336,-7.28717565536499,-0.800309956073761,10.007685661315918,-3.551851987838745,134.70001220703125,-148.5,-24.900001525878906
312322,-2.268158197402954,8.019901275634766,-5.15599250793457,-1.7987920045852661,7.652487754821777,-2.995445966720581,132.3000030517578,-143.70001220703125,-21.30000114440918
312345,-1.6885576248168945,7.046722412109375,-3.2802159786224365,-3.147886037826538,6.74547004699707,-3.0640439987182617,141.90000915527344,-153.3000030517578,-14.700000762939453
312385,-0.6196761131286621,6.40670919418335,-1.8560376167297363,-2.987823963165283,8.094563484191895,-3.0640439987182617,151.5,-148.5,-9.300000190734863
312405,-0.4414295256137848,6.3917555809021,-1.5581624507904053,-2.644834041595459,8.9329833984375,-3.5366079807281494,137.10000610351562,-143.70001220703125,-15.90000057220459
312448,-0.721360445022583,5.922811508178711,-1.81955087184906,-0.9984819889068604,8.765299797058105,-3.8262438774108887,158.70001220703125,-143.70001220703125,-11.700000762939453
312491,-0.7363139986991882,7.5790696144104,-1.8440747261047363,-0.342989981174469,8.086941719055176,-2.5228819847106934,153.90000915527344,-141.3000030517578,-20.700000762939453
312560,-1.7818678617477417,8.77415943145752,-2.4733211994171143,-1.4481799602508545,6.4253458976745605,-5.137228012084961,151.5,-126.9000015258789,-5.100000381469727
312581,-2.310028076171875,9.427929878234863,-2.9434616565704346,-0.9222619533538818,6.615895748138428,-3.5213639736175537,153.90000915527344,-146.10000610351562,-12.90000057220459
312621,-3.4776031970977783,9.486547470092773,-4.096083164215088,0.5487840175628662,4.2149658203125,-2.5686140060424805,163.5,-131.70001220703125,-9.300000190734863
312641,-3.42496657371521,9.60378360748291,-4.267750263214111,1.1204339265823364,2.2713558673858643,-1.189031958580017,163.5,-136.5,-3.9000000953674316
312661,-3.43393874168396,9.786815643310547,-4.593738079071045,1.196653962135315,1.2728739976882935,-0.510673999786377,156.3000030517578,-141.3000030517578,-9.90000057220459
312681,-3.0780436992645264,9.776646614074707,-4.952025890350342,1.4634239673614502,0.038109999150037766,0.17530599236488342,151.5,-126.9000015258789,-11.100000381469727
312701,-2.238250970840454,8.797487258911133,-4.201954364776611,0.41158798336982727,-1.8597679138183594,1.5320219993591309,161.10000610351562,-138.90000915527344,-6.300000190734863
312721,-1.7848585844039917,8.899170875549316,-3.892714500427246,0.02286599949002266,-2.1189160346984863,2.2484898567199707,158.70001220703125,-141.3000030517578,-9.90000057220459
312742,-0.9265234470367432,8.66350269317627,-3.359769105911255,-1.2576299905776978,-1.9207439422607422,2.5000159740448,165.90000915527344,-150.90000915527344,-9.90000057220459
312762,-0.7141827344894409,8.289663314819336,-3.1737465858459473,-1.3109840154647827,-2.080806016921997,1.9740979671478271,146.70001220703125,-141.3000030517578,-5.700000286102295
312784,-0.19499461352825165,8.042630195617676,-2.5803887844085693,-0.6631140112876892,-2.987823963165283,1.699705958366394,158.70001220703125,-134.10000610351562,-6.300000190734863
312808,0.1561153084039688,7.900870323181152,-2.256195306777954,-0.5640279650688171,-2.942091941833496,1.1128119230270386,170.70001220703125,-143.70001220703125,-10.5
312828,-0.21592961251735687,7.660417079925537,-2.145538806915283,0.06859800219535828,-2.4542839527130127,0.6478700041770935,134.70001220703125,-124.50000762939453,-16.5
312848,-0.7943338751792908,8.56600570678711,-2.7472705841064453,0.6097599864006042,-2.03507399559021,0.25152599811553955,139.5,-138.90000915527344,-6.300000190734863
312928,-3.7515528202056885,10.247983932495117,-3.42795729637146,-0.4039659798145294,-1.0365920066833496,1.067080020904541,156.3000030517578,-138.90000915527344,-8.700000762939453
312984,-4.556653022766113,10.825789451599121,-4.535717964172363,0.5945159792900085,-3.9939279556274414,4.207344055175781,149.10000610351562,-138.90000915527344,-10.5
313005,-4.217505931854248,10.228842735290527,-4.557849407196045,-0.510673999786377,-4.253076076507568,5.175337791442871,139.5,-134.10000610351562,-12.300000190734863
313045,-2.4362363815307617,8.79509449005127,-4.838976860046387,0.19054999947547913,-5.655523777008057,5.548815727233887,132.3000030517578,-150.90000915527344,-8.700000762939453
313065,-1.7752883434295654,8.507387161254883,-5.041149139404297,0.4192099869251251,-7.286632061004639,5.495461940765381,129.90000915527344,-148.5,-11.700000762939453
313085,-1.2764370441436768,7.172930717468262,-4.925109386444092,1.0747020244598389,-9.664695739746094,4.123501777648926,129.90000915527344,-153.3000030517578,-14.700000762939453
313105,-0.8290261626243591,5.688937664031982,-3.9626972675323486,2.0655620098114014,-12.881179809570312,4.275941848754883,137.10000610351562,-143.70001220703125,-15.90000057220459
313127,0.3152213394641876,5.848043918609619,-2.7652149200439453,2.530503988265991,-14.908631324768066,5.800342082977295,132.3000030517578,-150.90000915527344,-15.300000190734863
313147,0.9193457365036011,5.739181995391846,-1.8476636409759521,1.9740979671478271,-14.42082405090332,5.335400104522705,120.30000305175781,-153.3000030517578,-14.700000762939453
313169,1.3033535480499268,5.205638408660889,-1.6550616025924683,1.9588539600372314,-12.972643852233887,4.649419784545898,129.90000915527344,-153.3000030517578,-11.100000381469727
313189,2.0976874828338623,5.143431186676025,-1.445711612701416,2.1646480560302734,-11.905563354492188,5.030519962310791,120.30000305175781,-158.10000610351562,-17.100000381469727
313209,2.6073052883148193,5.096776485443115,-2.2819154262542725,1.7301939725875854,-9.336949348449707,4.847591876983643,125.10000610351562,-146.10000610351562,-12.300000190734863
313232,2.765813112258911,6.470710754394531,-3.496145725250244,3.2164838314056396,-7.5991339683532715,5.312533855438232,113.10000610351562,-158.10000610351562,-12.90000057220459
313252,3.430349826812744,8.56899642944336,-4.122999668121338,2.3551979064941406,-5.121984004974365,5.022897720336914,110.70000457763672,-143.70001220703125,-24.900001525878906
313272,2.676689863204956,9.307703018188477,-5.687741279602051,1.3490939140319824,-0.44969800114631653,1.9131219387054443,113.10000610351562,-165.3000030517578,-14.100000381469727
313295,2.0845282077789307,10.219870567321777,-8.339309692382812,3.353679895401001,4.908567905426025,1.5091559886932373,98.70000457763672,-160.5,-9.300000190734863
313315,2.545696496963501,11.505878448486328,-10.901753425598145,4.077769756317139,6.349125862121582,2.957335948944092,91.5,-141.3000030517578,-18.30000114440918
313336,3.785646915435791,12.941421508789062,-11.382660865783691,0.6173819899559021,1.5625100135803223,2.4542839527130127,103.50000762939453,-162.90000915527344,-13.500000953674316
313356,3.46982741355896,12.062748908996582,-9.046314239501953,-1.4939119815826416,-1.1585439443588257,-0.9832379817962646,84.30000305175781,-162.90000915527344,-11.700000762939453
313376,2.8447680473327637,10.169028282165527,-8.104837417602539,-1.9969639778137207,3.818621873855591,-2.743919849395752,98.70000457763672,-153.3000030517578,-14.100000381469727
313396,2.1975772380828857,8.971546173095703,-8.168838500976562,-3.246971845626831,7.240900039672852,-3.0259339809417725,108.30000305175781,-155.70001220703125,-9.300000190734863
313418,1.0718722343444824,7.7662882804870605,-6.894196033477783,-3.094532012939453,8.018343925476074,-3.9329519271850586,101.10000610351562,-158.10000610351562,-13.500000953674316
313439,0.6406111121177673,7.112517833709717,-5.755331516265869,-2.6677000522613525,8.879630088806152,-3.818621873855591,108.30000305175781,-153.3000030517578,-12.90000057220459
313459,0.48629024624824524,7.16575288772583,-4.92092227935791,-2.7591638565063477,10.434517860412598,-3.810999870300293,108.30000305175781,-158.10000610351562,-12.90000057220459
313522,-0.6489851474761963,6.190181732177734,-4.343116283416748,-0.7926880121231079,10.015307426452637,-4.64179801940918,120.30000305175781,-150.90000915527344,-9.300000190734863
313542,-0.6699201464653015,6.299043655395508,-3.645681381225586,-0.5792719721794128,8.475664138793945,-4.5503339767456055,120.30000305175781,-150.90000915527344,-5.700000286102295
313562,-0.7865580320358276,6.370820999145508,-3.2347571849823,-0.35061198472976685,7.400961875915527,-4.6951518058776855,120.30000305175781,-146.10000610351562,-9.300000190734863
313582,-1.108957052230835,5.838473320007324,-2.9338912963867188,-0.04573199898004532,6.204308032989502,-4.908567905426025,129.90000915527344,-153.3000030517578,-10.5
313606,-1.4606651067733765,6.084310531616211,-2.843571662902832,0.853663980960846,4.740883827209473,-3.8414878845214844,117.9000015258789,-143.70001220703125,-11.100000381469727
313626,-0.9504491686820984,8.640174865722656,-2.23585844039917,1.875011920928955,1.5015339851379395,-2.0579400062561035,115.50000762939453,-158.10000610351562,-16.5
313646,-0.2015741765499115,11.020784378051758,-1.2052581310272217,0.571649968624115,0.8231759667396545,-1.5091559886932373,122.70000457763672,-150.90000915527344,-7.500000476837158
313666,-0.7141827344894409,10.768367767333984,-0.9079810380935669,-0.8384199738502502,2.8811159133911133,-3.7347798347473145,132.3000030517578,-146.10000610351562,-6.300000190734863
313707,-1.4899741411209106,11.468792915344238,-3.940565824508667,0.16768398880958557,5.076251983642578,-1.4329359531402588,141.90000915527344,-143.70001220703125,-10.5
313731,-2.4727230072021484,10.718722343444824,-4.706787109375,-0.9222619533538818,4.260697841644287,-3.4680099487304688,141.90000915527344,-143.70001220703125,-5.100000381469727
313751,-2.963200330734253,8.845337867736816,-4.346107006072998,0.060975998640060425,1.600619912147522,-2.7667858600616455,129.90000915527344,-136.5,-11.700000762939453
313773,-2.128790855407715,10.483652114868164,-3.972865581512451,-0.46494197845458984,0.7850660085678101,-0.7012239694595337,141.90000915527344,-146.10000610351562,-12.90000057220459
313793,-2.1144354343414307,10.161850929260254,-4.325171947479248,-1.5929979085922241,1.3338500261306763,-1.7911700010299683,129.90000915527344,-150.90000915527344,-6.900000095367432
313813,-2.137164831161499,9.080408096313477,-4.424463748931885,-1.2881180047988892,0.23628199100494385,-1.0518360137939453,153.90000915527344,-150.90000915527344,-5.700000286102295
313833,-1.9625071287155151,8.79509449005127,-4.29347038269043,-1.295740008354187,-0.13719600439071655,-0.6478700041770935,134.70001220703125,-148.5,-4.5
313854,-1.296773910522461,8.631202697753906,-3.920228958129883,-1.0975680351257324,-0.5335400104522705,0.35061198472976685,144.3000030517578,-136.5,-7.500000476837158
313874,-0.6304426789283752,8.39852523803711,-3.552969217300415,-1.2118979692459106,-0.09146399796009064,0.8612859845161438,139.5,-148.5,-10.5
313894,-0.4300647974014282,8.44637680053711,-3.470425605773926,-1.0747020244598389,0,0.8917739987373352,127.50000762939453,-143.70001220703125,-6.300000190734863
313914,-0.16568560898303986,8.237027168273926,-3.329861879348755,-1.0747020244598389,0.1448179930448532,0.36585599184036255,134.70001220703125,-146.10000610351562,-16.5
313934,0.026318291202187538,8.113809585571289,-3.3131139278411865,-0.7545779943466187,0.36585599184036255,-0.05335399881005287,132.3000030517578,-141.3000030517578,-8.700000762939453
313956,0.37144678831100464,8.302224159240723,-2.968583583831787,-0.5564059615135193,0.38109999895095825,-0.4039659798145294,149.10000610351562,-146.10000610351562,-11.100000381469727
313976,0.4103260636329651,8.481667518615723,-3.1318767070770264,-0.7164679765701294,1.021347999572754,-0.6326259970664978,139.5,-138.90000915527344,-17.700000762939453
313996,0.2679680585861206,8.436806678771973,-3.347806215286255,-0.426831990480423,1.1814099550247192,-1.0061039924621582,141.90000915527344,-150.90000915527344,-6.900000095367432
314016,-0.1943964660167694,8.4057035446167,-3.469229221343994,-0.15243999660015106,1.1509219408035278,-0.9908599853515625,139.5,-141.3000030517578,-7.500000476837158
314037,-0.34512850642204285,8.53490161895752,-3.532632350921631,-0.09146399796009064,0.7469559907913208,-0.9451279640197754,146.70001220703125,-136.5,-6.300000190734863
314057,-0.31402507424354553,8.442788124084473,-3.3304600715637207,-0.030487999320030212,0.5411620140075684,-0.914639949798584,146.70001220703125,-143.70001220703125,-7.500000476837158
314077,-0.5670395493507385,8.719130516052246,-3.5182769298553467,-0.19817200303077698,0.6478700041770935,-0.853663980960846,134.70001220703125,-138.90000915527344,-7.500000476837158
314097,-0.9396826028823853,8.712550163269043,-3.439321994781494,-0.2134159952402115,0.342989981174469,-0.8079319596290588,141.90000915527344,-131.70001220703125,-8.100000381469727
314117,-1.1926970481872559,8.812440872192383,-3.052921772003174,-0.16768398880958557,-0.007621999830007553,-0.5640279650688171,139.5,-150.90000915527344,-15.300000190734863
314137,-1.9020946025848389,8.977527618408203,-2.760429859161377,-0.2896359860897064,0.18292799592018127,-0.060975998640060425,137.10000610351562,-143.70001220703125,-8.100000381469727
314157,-2.7048025131225586,10.218674659729004,-3.0421552658081055,-0.3734779953956604,0.4039659798145294,0.7240899801254272,141.90000915527344,-134.10000610351562,-12.90000057220459
314177,-3.892714500427246,10.316171646118164,-3.3346471786499023,-1.2728739976882935,0.09146399796009064,0.17530599236488342,141.90000915527344,-141.3000030517578,-16.5
314197,-4.83419132232666,9.28497314453125,-3.606802225112915,-1.7301939725875854,-0.6707359552383423,0.7469559907913208,151.5,-143.70001220703125,-15.300000190734863
314217,-4.507007122039795,9.944127082824707,-4.32337760925293,-1.9054999351501465,-2.0960500240325928,3.399411916732788,144.3000030517578,-158.10000610351562,-11.700000762939453
314237,-4.43881893157959,10.270712852478027,-4.89998722076416,-1.9893419742584229,-3.7347798347473145,4.763750076293945,139.5,-143.70001220703125,-15.90000057220459
314257,-3.6971216201782227,9.863377571105957,-5.214610576629639,-1.8140360116958618,-6.112843990325928,5.929915904998779,132.3000030517578,-150.90000915527344,-14.100000381469727
314277,-2.7879443168640137,10.477072715759277,-5.609385013580322,-1.021347999572754,-7.911635875701904,7.644865989685059,125.10000610351562,-160.5,-8.700000762939453
314297,-1.712483286857605,10.092466354370117,-5.954513072967529,-0.33536797761917114,-10.24396800994873,7.279009819030762,129.90000915527344,-158.10000610351562,-10.5
314317,-0.6513776779174805,8.755617141723633,-4.835387706756592,-0.04573199898004532,-14.085455894470215,7.096081733703613,127.50000762939453,-143.70001220703125,-14.100000381469727
314397,1.2519131898880005,5.630918025970459,-2.363262891769409,1.3414719104766846,-14.169297218322754,5.2134480476379395,117.9000015258789,-162.90000915527344,-18.30000114440918
314423,1.5611531734466553,5.048924922943115,-1.649678349494934,2.179892063140869,-12.591544151306152,4.588443756103516,98.70000457763672,-153.3000030517578,-9.90000057220459
314443,2.1826236248016357,5.3043317794799805,-1.6401079893112183,2.0122079849243164,-10.266833305358887,4.0396599769592285,105.9000015258789,-158.10000610351562,-14.100000381469727
314463,1.8853466510772705,4.237244606018066,-2.801701784133911,1.829279899597168,-7.454315662384033,2.797273874282837,103.50000762939453,-150.90000915527344,-18.30000114440918
314526,3.785048723220825,10.887996673583984,-5.140440464019775,1.0594580173492432,0.23628199100494385,2.8734939098358154,91.5,-158.10000610351562,-21.900001525878906
314546,3.246121883392334,11.831268310546875,-7.146612167358398,2.3628199100494385,4.57319974899292,0.5487840175628662,89.10000610351562,-160.5,-15.90000057220459
314569,3.249112606048584,12.187163352966309,-9.24908447265625,2.75154185295105,5.510705947875977,-0.7926880121231079,65.10000610351562,-158.10000610351562,-14.700000762939453
314609,3.824526071548462,11.435895919799805,-7.805765628814697,0.030487999320030212,2.5762360095977783,-2.7058098316192627,93.9000015258789,-162.90000915527344,-15.300000190734863
314629,3.7252345085144043,11.093159675598145,-8.001956939697266,-0.44969800114631653,6.013757705688477,-3.559473991394043,86.70000457763672,-165.3000030517578,-14.700000762939453
314649,2.9733686447143555,10.072129249572754,-7.443889141082764,-1.646351933479309,7.682975769042969,-5.381131649017334,86.70000457763672,-158.10000610351562,-19.5
314669,1.4020471572875977,7.992984294891357,-6.64776086807251,-2.4237959384918213,9.466524124145508,-7.218033790588379,101.10000610351562,-158.10000610351562,-15.300000190734863
314689,0.19678904116153717,6.567609786987305,-6.390559673309326,-2.2713558673858643,11.189095497131348,-6.5320539474487305,101.10000610351562,-162.90000915527344,-14.100000381469727
314709,0.22250919044017792,6.780548572540283,-5.668002605438232,-2.2713558673858643,10.70890998840332,-4.268320083618164,103.50000762939453,-158.10000610351562,-12.300000190734863
314731,0.2972770631313324,6.533515453338623,-4.171449184417725,-2.4695279598236084,10.945191383361816,-4.1921000480651855,105.9000015258789,-162.90000915527344,-12.90000057220459
314751,0.48748651146888733,6.594526290893555,-3.880751609802246,-1.9740979671478271,11.372023582458496,-3.9405739307403564,103.50000762939453,-153.3000030517578,-14.100000381469727
314773,0.22131289541721344,6.642975807189941,-3.612783432006836,-1.6692179441452026,11.013790130615234,-4.458869934082031,122.70000457763672,-155.70001220703125,-11.700000762939453
314793,0.19738717377185822,6.642377853393555,-3.2048499584198,-1.4329359531402588,10.365920066833496,-4.992409706115723,110.70000457763672,-162.90000915527344,-11.100000381469727
314813,-0.25122004747390747,6.227864742279053,-3.4082186222076416,-1.6082419157028198,10.045795440673828,-6.036623954772949,117.9000015258789,-150.90000915527344,-8.700000762939453
314833,-0.7871561646461487,5.449680805206299,-3.4716217517852783,-0.9451279640197754,8.536640167236328,-5.8613176345825195,113.10000610351562,-150.90000915527344,-15.90000057220459
314853,-0.8379983305931091,6.159676551818848,-3.2568883895874023,0.038109999150037766,6.2805280685424805,-4.329296112060547,122.70000457763672,-160.5,-9.300000190734863
314873,-1.0479464530944824,7.606584072113037,-2.878862142562866,0.19054999947547913,4.260697841644287,-3.300325870513916,117.9000015258789,-155.70001220703125,-6.300000190734863
314893,-0.08613258600234985,9.74913215637207,-2.510406017303467,-1.2728739976882935,3.0716660022735596,-3.0106899738311768,115.50000762939453,-150.90000915527344,-15.300000190734863
314913,-0.3176139295101166,9.575072288513184,-1.7716994285583496,-2.4161739349365234,3.9329519271850586,-6.2729058265686035,120.30000305175781,-148.5,-12.90000057220459
314933,-1.7938307523727417,8.1784086227417,-2.920732021331787,-1.7835479974746704,5.533571720123291,-6.615895748138428,125.10000610351562,-143.70001220703125,-12.300000190734863
314953,-2.0821356773376465,9.941734313964844,-3.219205379486084,-0.6250039935112,4.032037734985352,-3.3308138847351074,127.50000762939453,-146.10000610351562,-13.500000953674316
314973,-2.3536925315856934,11.081794738769531,-3.2353553771972656,-1.524399995803833,3.1783738136291504,-3.353679895401001,146.70001220703125,-150.90000915527344,-11.700000762939453
314993,-2.622856855392456,9.957883834838867,-3.469229221343994,-0.8993960022926331,2.5686140060424805,-4.230209827423096,125.10000610351562,-138.90000915527344,-16.5
315013,-2.1234076023101807,10.749227523803711,-3.564333915710449,-0.2439039945602417,1.653973937034607,-2.7286758422851562,144.3000030517578,-141.3000030517578,-9.300000190734863
315033,-2.1826236248016357,10.395126342773438,-3.9417622089385986,-0.8993960022926331,1.5548880100250244,-2.14178204536438,139.5,-138.90000915527344,-11.700000762939453
315053,-2.6031181812286377,9.119287490844727,-4.26356315612793,-0.7012239694595337,1.3186060190200806,-1.707327961921692,149.10000610351562,-141.3000030517578,-12.90000057220459
315073,-2.0552191734313965,9.472789764404297,-4.230067253112793,-0.1295740008354187,-0.7926880121231079,0.26677000522613525,144.3000030517578,-141.3000030517578,-4.5
315094,-1.6448931694030762,9.068445205688477,-4.020717144012451,-0.5868939757347107,-1.3490939140319824,0.46494197845458984,139.5,-153.3000030517578,-8.100000381469727
315114,-1.1932952404022217,8.747840881347656,-3.8466575145721436,-0.5945159792900085,-1.9969639778137207,1.0061039924621582,141.90000915527344,-141.3000030517578,-11.700000762939453
315134,-0.7524638772010803,8.51516342163086,-3.4650421142578125,-0.7621999979019165,-2.2027578353881836,1.3262280225753784,141.90000915527344,-148.5,-7.500000476837158
315154,-0.3385489284992218,8.602492332458496,-3.1988685131073,-0.8993960022926331,-1.8521459102630615,1.577754020690918,137.10000610351562,-143.70001220703125,-6.900000095367432
315177,0.0065795728005468845,8.947620391845703,-3.0295941829681396,-1.0365920066833496,-1.2347639799118042,1.242385983467102,129.90000915527344,-138.90000915527344,-15.300000190734863
315198,0.15133017301559448,8.601295471191406,-3.005070209503174,-1.295740008354187,-0.426831990480423,0.38109999895095825,149.10000610351562,-141.3000030517578,-19.5
315221,-0.06220686808228493,8.19934368133545,-3.0595014095306396,-0.9222619533538818,0.36585599184036255,-0.04573199898004532,146.70001220703125,-143.70001220703125,-9.300000190734863
315242,-0.06699201464653015,8.381178855895996,-3.1342692375183105,-0.2591480016708374,0.8307979702949524,0.02286599949002266,146.70001220703125,-143.70001220703125,-12.90000057220459
315305,-0.30804362893104553,8.664100646972656,-3.45188307762146,0.6554920077323914,1.7683039903640747,-0.9908599853515625,137.10000610351562,-143.70001220703125,-9.90000057220459
315325,-0.3307730555534363,8.579164505004883,-3.5003325939178467,0.7164679765701294,1.7225719690322876,-0.9451279640197754,144.3000030517578,-155.70001220703125,-14.100000381469727
315345,-0.4946642518043518,8.83098316192627,-3.7389917373657227,0.6783579587936401,1.8673899173736572,-0.6707359552383423,139.5,-148.5,-12.90000057220459
315387,-0.46894410252571106,9.10074520111084,-3.5164825916290283,-0.13719600439071655,1.2500079870224,-0.9603719711303711,139.5,-141.3000030517578,-10.5
315407,-0.3840077817440033,9.100147247314453,-3.350796937942505,-0.23628199100494385,1.1280559301376343,-0.8689079880714417,134.70001220703125,-148.5,-11.700000762939453
315427,-0.4617663621902466,9.086389541625977,-3.2323646545410156,-0.5640279650688171,1.2118979692459106,-0.8765299916267395,139.5,-138.90000915527344,-11.100000381469727
315447,-0.5167955160140991,8.701784133911133,-3.2586829662323,-0.6021379828453064,1.1204339265823364,-1.021347999572754,144.3000030517578,-146.10000610351562,-1.5
315467,-0.5490952730178833,8.35067367553711,-3.1103434562683105,-0.22103799879550934,0.853663980960846,-0.685979962348938,134.70001220703125,-141.3000030517578,-9.300000190734863
315487,-0.4551868140697479,8.799281120300293,-2.9637985229492188,0.06859800219535828,0.5945159792900085,0.030487999320030212,146.70001220703125,-141.3000030517578,-14.100000381469727
315507,-0.7303325533866882,8.990687370300293,-3.091202974319458,0.228659987449646,0.48018598556518555,-0.06859800219535828,153.90000915527344,-141.3000030517578,-15.300000190734863
315527,-1.102975606918335,9.101343154907227,-3.2048499584198,0.09908600151538849,0.04573199898004532,0.030487999320030212,153.90000915527344,-138.90000915527344,-11.700000762939453
315547,-1.5617512464523315,9.322656631469727,-3.1019694805145264,0.05335399881005287,-0.510673999786377,0.35061198472976685,134.70001220703125,-141.3000030517578,-9.90000057220459
315567,-1.8787670135498047,9.92438793182373,-3.0600993633270264,-0.426831990480423,-1.0365920066833496,0.8384199738502502,141.90000915527344,-141.3000030517578,-2.700000047683716
315587,-2.8064868450164795,9.974632263183594,-3.267056941986084,-1.0899460315704346,-0.8917739987373352,0.9298839569091797,137.10000610351562,-136.5,-9.90000057220459
315607,-3.8412742614746094,9.57686710357666,-4.039259433746338,-0.9070180058479309,-1.3567159175872803,1.3262280225753784,141.90000915527344,-143.70001220703125,-10.5
315627,-4.216907978057861,10.794686317443848,-4.734301567077637,0.2972579896450043,-3.5747179985046387,3.0869100093841553,144.3000030517578,-150.90000915527344,-8.100000381469727
315647,-4.511194229125977,10.33292007446289,-4.617663860321045,-0.228659987449646,-6.074733734130859,3.399411916732788,127.50000762939453,-146.10000610351562,-19.5
315689,-3.582278251647949,9.624120712280273,-4.609289646148682,-1.0061039924621582,-8.902495384216309,5.929915904998779,127.50000762939453,-141.3000030517578,-13.500000953674316
315710,-2.369244337081909,8.251381874084473,-4.794713973999023,-0.2591480016708374,-10.78512954711914,5.914671897888184,132.3000030517578,-148.5,-17.100000381469727
315730,-0.8924292922019958,7.846439361572266,-4.31739616394043,1.417691946029663,-13.32325553894043,6.897909641265869,113.10000610351562,-138.90000915527344,-15.90000057220459
315751,0.07237529754638672,7.336821556091309,-3.591250419616699,1.5548880100250244,-14.352225303649902,6.669250011444092,110.70000457763672,-160.5,-23.100000381469727
315771,0.6567609906196594,6.667499542236328,-2.832206964492798,1.699705958366394,-14.45893383026123,5.525949954986572,120.30000305175781,-160.5,-20.100000381469727
315791,1.0485446453094482,6.299043655395508,-2.6090996265411377,1.875011920928955,-13.330877304077148,5.083873748779297,122.70000457763672,-160.5,-9.300000190734863
315851,1.9415720701217651,4.627831935882568,-2.1479313373565674,2.324709892272949,-10.876593589782715,4.900945663452148,101.10000610351562,-153.3000030517578,-17.100000381469727
315911,3.977052688598633,8.13952922821045,-4.015333652496338,2.6677000522613525,-2.2180018424987793,6.097599983215332,108.30000305175781,-162.90000915527344,-22.5
315931,3.2209999561309814,9.744945526123047,-6.118404388427734,3.353679895401001,1.9588539600372314,4.885701656341553,89.10000610351562,-148.5,-14.700000762939453
315951,3.5308380126953125,11.392230987548828,-7.920608997344971,3.803377866744995,3.5899620056152344,3.4908759593963623,79.5,-155.70001220703125,-26.100000381469727
315971,3.481192111968994,12.462308883666992,-8.61565113067627,2.6753220558166504,1.9512319564819336,1.1585439443588257,91.5,-155.70001220703125,-9.90000057220459
315991,3.22578501701355,12.8433256149292,-8.707765579223633,1.524399995803833,1.7454379796981812,-1.0442140102386475,79.5,-150.90000915527344,-6.300000190734863
316011,3.6050076484680176,12.175798416137695,-8.357254028320312,-0.19817200303077698,2.4237959384918213,-3.109776020050049,81.9000015258789,-160.5,-7.500000476837158
316033,3.4590609073638916,10.667282104492188,-7.3553643226623535,-1.981719970703125,4.336917877197266,-4.344540119171143,74.70000457763672,-170.10000610351562,-14.100000381469727
316053,2.355487108230591,9.13364315032959,-6.964178562164307,-3.1402640342712402,7.301876068115234,-4.9542999267578125,84.30000305175781,-148.5,-13.500000953674316
316073,1.2818204164505005,8.216690063476562,-6.822418689727783,-2.8811159133911133,8.612859725952148,-5.076251983642578,89.10000610351562,-158.10000610351562,-16.5
316093,0.45817750692367554,7.3045220375061035,-5.967074394226074,-2.1036720275878906,8.109807968139648,-5.403997898101807,89.10000610351562,-158.10000610351562,-14.700000762939453
316113,0.14355431497097015,6.8038763999938965,-5.194273471832275,-1.5701320171356201,7.911635875701904,-5.25155782699585,98.70000457763672,-160.5,-18.30000114440918
316135,-0.20576117932796478,5.8797454833984375,-4.250403881072998,-0.8307979702949524,8.125051498413086,-4.870458126068115,115.50000762939453,-167.70001220703125,-12.300000190734863
316155,-0.10228244960308075,6.376802444458008,-4.205543041229248,-0.967993974685669,8.788166046142578,-4.28356409072876,110.70000457763672,-158.10000610351562,-9.90000057220459
316175,-0.1561153084039688,6.438410758972168,-4.0883073806762695,-1.371959924697876,8.833897590637207,-4.367405891418457,113.10000610351562,-160.5,-17.700000762939453
316195,-0.23447205126285553,6.611274242401123,-3.9118549823760986,-1.5853760242462158,8.254626274108887,-4.496979713439941,110.70000457763672,-158.10000610351562,-13.500000953674316
316215,-0.09689915925264359,6.6812567710876465,-3.732412099838257,-1.5472660064697266,7.545779705047607,-4.367405891418457,101.10000610351562,-143.70001220703125,-18.30000114440918
316279,-0.16987259685993195,6.2996416091918945,-2.396758794784546,-2.0503180027008057,5.25155782699585,-4.4436259269714355,120.30000305175781,-143.70001220703125,-8.100000381469727
316299,-0.32718420028686523,7.119695663452148,-2.399749517440796,-1.699705958366394,5.304912090301514,-3.7424018383026123,115.50000762939453,-143.70001220703125,-14.100000381469727
316342,-0.43185922503471375,10.862874031066895,-2.3058412075042725,-1.3414719104766846,4.062525749206543,-3.5289859771728516,134.70001220703125,-153.3000030517578,-10.5
316363,-1.8614208698272705,9.563109397888184,-3.1910927295684814,-1.4405579566955566,5.731743812561035,-5.03814172744751,132.3000030517578,-146.10000610351562,-14.100000381469727
316383,-2.3201966285705566,9.849021911621094,-3.5667264461517334,-0.28201398253440857,5.236313819885254,-3.612828016281128,134.70001220703125,-141.3000030517578,-16.5
316403,-1.6179767847061157,11.529804229736328,-3.9626972675323486,0.4344539940357208,4.8018598556518555,-2.3018438816070557,134.70001220703125,-146.10000610351562,-14.100000381469727
316423,-2.0408637523651123,11.661395072937012,-4.389771461486816,-0.12195199728012085,4.2149658203125,-2.6143460273742676,127.50000762939453,-153.3000030517578,-8.100000381469727
316443,-2.3357481956481934,10.4154634475708,-4.4130988121032715,0.05335399881005287,2.8811159133911133,-3.0106899738311768,134.70001220703125,-148.5,-12.300000190734863
316463,-2.295074462890625,9.62770938873291,-3.9752581119537354,0.05335399881005287,1.5396440029144287,-2.4619059562683105,139.5,-141.3000030517578,-11.700000762939453
316485,-1.9427683353424072,9.27121639251709,-3.9806413650512695,-0.342989981174469,1.013725996017456,-1.6234859228134155,137.10000610351562,-131.70001220703125,-5.100000381469727
316505,-1.7627273797988892,8.82201099395752,-3.9357807636260986,-0.46494197845458984,0.38109999895095825,-0.6021379828453064,141.90000915527344,-141.3000030517578,-8.700000762939453
316525,-1.3936731815338135,8.520546913146973,-3.8616111278533936,-0.6021379828453064,-0.26677000522613525,0.510673999786377,141.90000915527344,-131.70001220703125,-7.500000476837158
316545,-0.9971043467521667,8.213699340820312,-3.3783113956451416,-0.6936019659042358,-0.685979962348938,1.1585439443588257,134.70001220703125,-146.10000610351562,-11.100000381469727
316565,-0.38640037178993225,8.213699340820312,-3.168363332748413,-0.9451279640197754,-0.39634400606155396,1.2652519941329956,141.90000915527344,-153.3000030517578,-14.700000762939453
316588,-0.0705808699131012,7.992984294891357,-3.2180092334747314,-1.0747020244598389,-0.04573199898004532,0.914639949798584,134.70001220703125,-146.10000610351562,-5.700000286102295
316608,0.12979702651500702,8.334524154663086,-3.3573765754699707,-0.7469559907913208,0.114329993724823,1.2195199728012085,141.90000915527344,-143.70001220703125,-9.300000190734863
316629,0.1884150356054306,8.805262565612793,-3.505117893218994,-0.510673999786377,-0.08384199440479279,1.067080020904541,144.3000030517578,-148.5,-12.90000057220459
316649,0.1955927461385727,8.78911304473877,-3.359170913696289,-0.4039659798145294,-0.41158798336982727,0.6554920077323914,137.10000610351562,-146.10000610351562,-5.700000286102295
316669,0.3176139295101166,8.840553283691406,-3.3011510372161865,-0.5640279650688171,-0.2972579896450043,0.15243999660015106,129.90000915527344,-141.3000030517578,-11.100000381469727
316689,0.2177240401506424,8.77595329284668,-3.3310582637786865,-0.6097599864006042,-0.15243999660015106,0,132.3000030517578,-158.10000610351562,-13.500000953674316
316709,0.011962858960032463,8.65871810913086,-3.4943511486053467,-0.41158798336982727,0.09146399796009064,-0.12195199728012085,137.10000610351562,-141.3000030517578,-10.5
316749,0.0047851437702775,8.80107593536377,-3.371731996536255,-0.4192099869251251,0.4725639820098877,-0.571649968624115,134.70001220703125,-141.3000030517578,-9.300000190734863
316771,-0.12261930853128433,8.52413558959961,-3.3663487434387207,-0.5640279650688171,0.8612859845161438,-0.7469559907913208,141.90000915527344,-136.5,-9.90000057220459
316791,-0.3235953450202942,8.39673137664795,-3.570913553237915,-0.35061198472976685,1.0899460315704346,-0.7621999979019165,137.10000610351562,-150.90000915527344,-11.100000381469727
316811,-0.43604621291160583,8.487648963928223,-3.711477041244507,0.1295740008354187,0.7774440050125122,-0.6250039935112,134.70001220703125,-153.3000030517578,-8.100000381469727
316831,-0.4342517852783203,8.65453052520752,-3.6851587295532227,0.3887220025062561,0.4420759975910187,-0.5487840175628662,129.90000915527344,-143.70001220703125,-11.100000381469727
316851,-0.35529693961143494,8.814234733581543,-3.6833643913269043,0.33536797761917114,0.33536797761917114,-0.5792719721794128,137.10000610351562,-143.70001220703125,-0.30000001192092896
316871,-0.3397451937198639,8.941040992736816,-3.7754783630371094,-0.007621999830007553,0.6097599864006042,-0.7621999979019165,144.3000030517578,-134.10000610351562,-11.100000381469727
316891,-0.356493204832077,8.96915340423584,-3.902284860610962,-0.07621999830007553,0.7545779943466187,-0.800309956073761,127.50000762939453,-148.5,-8.700000762939453
316911,-0.46236452460289,8.778346061706543,-3.974061965942383,-0.030487999320030212,0.7088459730148315,-0.7469559907913208,132.3000030517578,-138.90000915527344,-11.100000381469727
316931,-0.515599250793457,8.740663528442383,-3.820937395095825,0.05335399881005287,0.5335400104522705,-0.4725639820098877,149.10000610351562,-141.3000030517578,-4.5
316955,-0.47313109040260315,8.777748107910156,-3.642690658569336,-0.114329993724823,0.5335400104522705,-0.4192099869251251,144.3000030517578,-131.70001220703125,-12.300000190734863
316975,-0.3840077817440033,8.923694610595703,-3.454275608062744,-0.16768398880958557,0.5564059615135193,-0.5411620140075684,132.3000030517578,-136.5,-14.700000762939453
316995,-0.43185922503471375,8.628211975097656,-3.2239906787872314,-0.3582339882850647,0.6707359552383423,-0.8765299916267395,146.70001220703125,-134.10000610351562,-5.100000381469727
317015,-0.6741071343421936,8.42245101928711,-3.1366617679595947,-0.1295740008354187,0.7926880121231079,-0.7774440050125122,151.5,-148.5,-11.700000762939453
317035,-1.0646945238113403,8.115005493164062,-2.983537197113037,-0.015243999660015106,0.7545779943466187,-0.571649968624115,127.50000762939453,-153.3000030517578,-5.100000381469727
317059,-0.924130916595459,8.66170883178711,-2.530144691467285,0.38109999895095825,0.38109999895095825,-0.19817200303077698,139.5,-143.70001220703125,-10.5
317079,-0.9289160370826721,9.587035179138184,-2.4691340923309326,0.4420759975910187,0.7698220014572144,-0.5182960033416748,146.70001220703125,-134.10000610351562,-8.100000381469727
317099,-1.845271110534668,9.254467964172363,-2.7012135982513428,-0.114329993724823,1.0365920066833496,-1.471045970916748,146.70001220703125,-143.70001220703125,-8.700000762939453
317119,-2.7263357639312744,8.709559440612793,-2.6922414302825928,-0.2134159952402115,0.5411620140075684,-1.2500079870224,146.70001220703125,-143.70001220703125,-8.100000381469727
317139,-3.287393808364868,9.059473037719727,-3.052921772003174,-0.49542999267578125,0.114329993724823,-0.6402480006217957,132.3000030517578,-143.70001220703125,-12.300000190734863
317161,-3.49674391746521,9.698887825012207,-4.106849670410156,-0.2743920087814331,-0.36585599184036255,0.48018598556518555,134.70001220703125,-141.3000030517578,-6.900000095367432
317181,-3.654653549194336,10.858089447021484,-5.407810688018799,0.7012239694595337,-2.187514066696167,1.707327961921692,151.5,-141.3000030517578,-18.900001525878906
317201,-2.8663010597229004,10.924483299255371,-5.908456325531006,1.2500079870224,-5.9680256843566895,2.896359920501709,144.3000030517578,-153.3000030517578,-11.700000762939453
317221,-3.0977823734283447,9.61574649810791,-5.231956481933594,0.5564059615135193,-9.001582145690918,3.513741970062256,134.70001220703125,-143.70001220703125,-8.100000381469727
317241,-3.198270559310913,8.754420280456543,-5.699704170227051,0.7088459730148315,-10.914703369140625,4.230209827423096,141.90000915527344,-146.10000610351562,-10.5
317323,-1.8811596632003784,5.925802230834961,-3.475210666656494,1.8369019031524658,-21.219648361206055,3.6433160305023193,120.30000305175781,-146.10000610351562,-14.100000381469727
317359,0.7476786971092224,5.355772018432617,-2.345916748046875,2.2561118602752686,-20.861413955688477,6.219552040100098,137.10000610351562,-153.3000030517578,-11.700000762939453
317379,1.85543954372406,5.022008419036865,-2.041461944580078,2.1722700595855713,-18.750120162963867,7.027483940124512,137.10000610351562,-150.90000915527344,-18.900001525878906
317419,4.0344743728637695,7.744755268096924,-2.9709761142730713,1.5548880100250244,-8.64334774017334,5.586925983428955,105.9000015258789,-165.3000030517578,-22.5
317439,3.997389554977417,8.793299674987793,-4.229468822479248,1.3186060190200806,-3.2164838314056396,2.8658719062805176,110.70000457763672,-160.5,-21.30000114440918
317481,3.296365976333618,11.578253746032715,-7.423552513122559,1.4481799602508545,4.89332389831543,0.7469559907913208,108.30000305175781,-167.70001220703125,-20.100000381469727
317541,1.85543954372406,10.161850929260254,-7.968460559844971,-0.510673999786377,8.346089363098145,-4.74850606918335,120.30000305175781,-153.3000030517578,-15.300000190734863
317561,1.439730167388916,9.664793968200684,-8.068350791931152,-0.5182960033416748,9.405548095703125,-5.152472019195557,120.30000305175781,-143.70001220703125,-15.90000057220459
317604,-0.17465774714946747,8.499611854553223,-7.541386604309082,-2.39330792427063,12.39337158203125,-5.350644111633301,134.70001220703125,-153.3000030517578,-18.900001525878906
317624,-0.6244612336158752,7.964273452758789,-7.300932884216309,-2.6677000522613525,12.522945404052734,-4.413137912750244,125.10000610351562,-153.3000030517578,-12.90000057220459
317644,-0.705808699131012,7.917618274688721,-6.598114967346191,-3.4222779273986816,12.408616065979004,-3.2317278385162354,129.90000915527344,-141.3000030517578,-17.700000762939453
317664,-1.1508270502090454,7.318877220153809,-6.5412917137146,-3.5289859771728516,12.698251724243164,-3.003067970275879,149.10000610351562,-146.10000610351562,-14.100000381469727
317684,-0.9145606160163879,7.378093719482422,-5.660825252532959,-2.8048958778381348,10.75464153289795,-1.6615959405899048,139.5,-131.70001220703125,-11.700000762939453
317704,-0.92771977186203,7.300932884216309,-4.782153129577637,-3.612828016281128,10.701288223266602,-1.7378159761428833,125.10000610351562,-158.10000610351562,-14.100000381469727
317724,-1.2321745157241821,5.9186248779296875,-4.283899784088135,-3.6433160305023193,10.106771469116211,-2.027451992034912,139.5,-155.70001220703125,-17.700000762939453
317786,-0.6657330989837646,6.992889404296875,-2.011554718017578,-2.949713945388794,7.736330032348633,-1.1356779336929321,129.90000915527344,-150.90000915527344,-6.300000190734863
317839,-0.06280501186847687,9.122278213500977,-0.6723126769065857,-1.8673899173736572,5.198204040527344,-1.0975680351257324,122.70000457763672,-148.5,-9.300000190734863
317879,-2.3112244606018066,8.56899642944336,-1.3410365581512451,-1.021347999572754,4.2911858558654785,-4.93143367767334,122.70000457763672,-150.90000915527344,-12.90000057220459
317903,-1.8823559284210205,9.345385551452637,-1.6102008819580078,-0.2591480016708374,3.9481959342956543,-3.2622158527374268,134.70001220703125,-155.70001220703125,-10.5
317923,-2.1359684467315674,11.657806396484375,-2.1676700115203857,-0.33536797761917114,3.353679895401001,-2.446661949157715,125.10000610351562,-148.5,-16.5
