time,sensor_accX[g],sensor_accY[g],sensor_accZ[g],sensor_gyroX[°/s],sensor_gyroY[°/s],sensor_gyroZ[°/s],sensor_magX[µT],sensor_magY[µT],sensor_magZ[µT]
100016,1.7501662969589233,7.6921186447143555,-1.2291837930679321,-2.6295900344848633,14.687593460083008,-4.756127834320068,139.5,-136.5,-9.300000190734863
100036,1.84646737575531,7.071246147155762,-1.5773030519485474,-2.789651870727539,17.62206268310547,-6.3719916343688965,153.90000915527344,-136.5,-9.90000057220459
100100,-1.9056835174560547,6.437812805175781,-4.041652202606201,0.16768398880958557,20.160188674926758,-11.615927696228027,137.10000610351562,-124.50000762939453,-2.700000047683716
100120,-2.7000174522399902,8.815430641174316,-2.1712589263916016,-2.080806016921997,15.899491310119629,-11.455865859985352,153.90000915527344,-114.9000015258789,0.9000000357627869
100140,-3.6803736686706543,8.750831604003906,-2.6246514320373535,-1.7835479974746704,15.747051239013672,-11.775989532470703,168.3000030517578,-117.30000305175781,-1.5
100160,-4.338929176330566,10.13254165649414,-2.8657028675079346,-1.7225719690322876,12.340017318725586,-9.39792537689209,173.10000610351562,-122.10000610351562,-3.3000001907348633
100180,-4.625439643859863,12.424625396728516,-2.5947442054748535,-1.6844619512557983,9.725671768188477,-7.332363605499268,156.3000030517578,-110.10000610351562,5.100000381469727
100203,-5.754733562469482,13.64603328704834,-3.1097452640533447,-1.471045970916748,6.989373683929443,-5.480217933654785,158.70001220703125,-105.30000305175781,0.30000001192092896
100223,-5.578879356384277,14.559996604919434,-3.3280675411224365,-2.0198299884796143,2.797273874282837,-3.5289859771728516,175.5,-112.50000762939453,0.30000001192092896
100285,-5.638693809509277,15.01757526397705,-3.8233299255371094,-1.7225719690322876,-11.326292037963867,1.8673899173736572,170.70001220703125,-110.10000610351562,3.9000000953674316
100305,-5.548374176025391,13.160341262817383,-2.795720338821411,-1.9131219387054443,-12.56867790222168,3.1250200271606445,173.10000610351562,-107.70000457763672,-0.9000000357627869
100325,-5.20683479309082,11.407184600830078,-3.130082130432129,-1.7759259939193726,-13.872039794921875,4.977165699005127,168.3000030517578,-110.10000610351562,-3.9000000953674316
100346,-4.064979553222656,9.892088890075684,-1.9565256834030151,-1.981719970703125,-15.968090057373047,6.730226039886475,189.90000915527344,-122.10000610351562,-10.5
100366,-3.3573765754699707,8.640174865722656,-1.7513625621795654,-1.524399995803833,-16.00619888305664,8.033587455749512,177.90000915527344,-112.50000762939453,-8.100000381469727
100386,-2.334552049636841,8.068350791931152,-1.6891556978225708,-1.2804960012435913,-16.494007110595703,8.750056266784668,175.5,-136.5,-9.300000190734863
100406,-1.2854092121124268,7.7064738273620605,-1.0862276554107666,-1.5015339851379395,-16.631202697753906,8.361333847045898,173.10000610351562,-129.3000030517578,-12.300000190734863
100426,-0.9528417587280273,6.784735679626465,-0.8906348943710327,-1.3872039318084717,-15.404061317443848,6.875043869018555,165.90000915527344,-117.30000305175781,-8.700000762939453
100446,-0.9929173588752747,5.611179351806641,-1.1286958456039429,-0.7469559907913208,-14.00161361694336,5.625035762786865,165.90000915527344,-131.70001220703125,-7.500000476837158
100466,-0.91874760389328,4.948436737060547,-1.137069821357727,0.060975998640060425,-13.018375396728516,5.625035762786865,173.10000610351562,-143.70001220703125,-6.900000095367432
100490,-0.6723126769065857,5.879147052764893,-1.7621291875839233,1.3186060190200806,-10.739398002624512,6.379613876342773,153.90000915527344,-129.3000030517578,-17.100000381469727
100510,-0.4575793743133545,6.863092422485352,-2.083332061767578,2.2103798389434814,-9.86286735534668,6.204308032989502,153.90000915527344,-148.5,-17.700000762939453
100530,0.11125459522008896,7.951114654541016,-2.0881171226501465,2.5686140060424805,-8.902495384216309,5.663146018981934,149.10000610351562,-138.90000915527344,-14.700000762939453
100550,-0.06699201464653015,8.2442045211792,-2.3507018089294434,2.3628199100494385,-7.042727947235107,3.6890478134155273,144.3000030517578,-146.10000610351562,-18.30000114440918
100570,-0.14475059509277344,8.080911636352539,-2.7071950435638428,2.530503988265991,-6.128087997436523,3.0106899738311768,144.3000030517578,-148.5,-18.30000114440918
100592,-0.49645867943763733,8.063565254211426,-3.9327900409698486,3.3231918811798096,-5.518327713012695,2.225623846054077,137.10000610351562,-141.3000030517578,-9.90000057220459
100612,-0.40075579285621643,8.948817253112793,-4.0434465408325195,3.056421995162964,-5.990891933441162,2.5152599811553955,134.70001220703125,-150.90000915527344,-17.100000381469727
100632,-0.013757288455963135,8.34469223022461,-4.594934463500977,4.009171962738037,-4.824726104736328,0.8612859845161438,137.10000610351562,-150.90000915527344,-14.100000381469727
100652,0.20396675169467926,8.85490894317627,-4.251002311706543,4.123501777648926,-5.030519962310791,1.577754020690918,139.5,-158.10000610351562,-21.900001525878906
100674,0.35529693961143494,9.149792671203613,-3.9806413650512695,2.8811159133911133,-3.803377866744995,0.8384199738502502,137.10000610351562,-148.5,-15.90000057220459
100694,0.20635932683944702,8.83098316192627,-4.011146545410156,2.225623846054077,-2.4085519313812256,-0.12195199728012085,139.5,-150.90000915527344,-18.30000114440918
100716,-0.09869358688592911,8.111416816711426,-4.282105445861816,1.92836594581604,-1.1051899194717407,-0.571649968624115,141.90000915527344,-134.10000610351562,-15.300000190734863
100737,-0.04844957962632179,8.273513793945312,-4.442408084869385,2.2713558673858643,-0.6554920077323914,0.17530599236488342,146.70001220703125,-148.5,-15.300000190734863
100757,0.21293890476226807,8.671876907348633,-4.489062786102295,2.3170878887176514,-0.25152599811553955,0.9375059604644775,137.10000610351562,-150.90000915527344,-15.300000190734863
100777,0.45698124170303345,8.771766662597656,-4.306031227111816,1.829279899597168,0.6021379828453064,1.5320219993591309,144.3000030517578,-134.10000610351562,-12.90000057220459
100818,0.7022198438644409,9.591222763061523,-4.200160026550293,0.9451279640197754,1.7149499654769897,1.5472660064697266,120.30000305175781,-146.10000610351562,-21.30000114440918
100839,0.5909652709960938,9.376489639282227,-4.121803283691406,0.04573199898004532,2.14178204536438,0.8841519951820374,149.10000610351562,-134.10000610351562,-14.100000381469727
100859,0.38759663701057434,8.998462677001953,-4.024904251098633,-0.39634400606155396,2.080806016921997,0.7545779943466187,132.3000030517578,-148.5,-14.700000762939453
100882,0.2577996253967285,8.984705924987793,-3.6169705390930176,-0.739333987236023,1.2271419763565063,0.7926880121231079,134.70001220703125,-148.5,-20.700000762939453
100942,0.3989613652229309,8.828590393066406,-2.6695120334625244,-0.7850660085678101,-0.7469559907913208,0.8460419774055481,125.10000610351562,-155.70001220703125,-20.100000381469727
100965,0.5191881060600281,9.108521461486816,-2.4601619243621826,-1.2118979692459106,-0.5487840175628662,0.8917739987373352,125.10000610351562,-153.3000030517578,-15.90000057220459
100985,0.4898791015148163,8.927882194519043,-2.5086116790771484,-1.2881180047988892,-0.060975998640060425,0.22103799879550934,125.10000610351562,-148.5,-17.100000381469727
101005,0.42886850237846375,8.674867630004883,-2.595940589904785,-0.9832379817962646,0.13719600439071655,-0.33536797761917114,115.50000762939453,-150.90000915527344,-15.300000190734863
101048,0.3929799199104309,8.99726676940918,-2.810673713684082,-0.5564059615135193,-0.20579399168491364,-0.13719600439071655,122.70000457763672,-138.90000915527344,-17.100000381469727
101068,0.4713366627693176,8.83397388458252,-2.9703779220581055,-0.6707359552383423,-0.20579399168491364,-0.5411620140075684,137.10000610351562,-150.90000915527344,-14.700000762939453
101088,0.506627082824707,8.514565467834473,-3.2867956161499023,-0.36585599184036255,-0.26677000522613525,-1.1737879514694214,115.50000762939453,-150.90000915527344,-15.300000190734863
101108,0.45099979639053345,8.4176664352417,-3.404629707336426,-0.22103799879550934,-0.2972579896450043,-1.2652519941329956,132.3000030517578,-158.10000610351562,-14.100000381469727
101128,0.8074930310249329,8.88661003112793,-3.657644271850586,-0.16768398880958557,-0.3582339882850647,-1.2271419763565063,127.50000762939453,-155.70001220703125,-15.300000190734863
101148,1.1245087385177612,8.710158348083496,-3.907668113708496,-0.6021379828453064,0.4192099869251251,-1.935987949371338,125.10000610351562,-141.3000030517578,-16.5
101168,0.9139624834060669,8.3100004196167,-4.428650379180908,-0.5411620140075684,1.6158639192581177,-2.2103798389434814,127.50000762939453,-153.3000030517578,-20.100000381469727
101191,0.8110818862915039,8.509779930114746,-4.929296016693115,-0.5640279650688171,1.981719970703125,-1.2804960012435913,129.90000915527344,-148.5,-16.5
101211,0.8625221848487854,8.629408836364746,-5.358762741088867,-0.3125019967556,2.9649579524993896,-1.5853760242462158,132.3000030517578,-138.90000915527344,-16.5
101231,0.5054308176040649,8.229848861694336,-5.435923099517822,0.1600620001554489,4.062525749206543,-2.0579400062561035,122.70000457763672,-153.3000030517578,-13.500000953674316
101292,0.22609804570674896,8.400320053100586,-4.0464372634887695,2.7058098316192627,5.663146018981934,-2.9725799560546875,129.90000915527344,-141.3000030517578,-14.700000762939453
101312,0.20037789642810822,7.6472578048706055,-3.808974504470825,2.5076379776000977,8.521395683288574,-4.504601955413818,141.90000915527344,-136.5,-12.90000057220459
101332,0.7554545998573303,7.470207691192627,-3.081632614135742,2.5533699989318848,10.49549388885498,-5.0000319480896,156.3000030517578,-148.5,-12.90000057220459
101353,1.742390513420105,7.846439361572266,-2.098883628845215,0.2896359860897064,13.559537887573242,-5.312533855438232,153.90000915527344,-136.5,-12.90000057220459
101373,1.6251544952392578,7.595817565917969,-2.45298433303833,-0.9527499675750732,18.018407821655273,-6.509187698364258,139.5,-122.10000610351562,-5.100000381469727
101393,1.4193933010101318,7.068853855133057,-2.5295467376708984,-2.4009299278259277,19.48183250427246,-7.690598011016846,151.5,-134.10000610351562,-9.90000057220459
101414,0.7285381555557251,5.826510906219482,-2.7520558834075928,-2.7591638565063477,20.297386169433594,-9.184510231018066,139.5,-126.9000015258789,-0.9000000357627869
101434,-0.25540703535079956,6.102254390716553,-3.582876443862915,-1.0594580173492432,19.329391479492188,-9.672317504882812,127.50000762939453,-134.10000610351562,2.1000001430511475
101454,-0.17166703939437866,6.814044952392578,-3.1348674297332764,-0.8460419774055481,15.586989402770996,-10.373541831970215,149.10000610351562,-119.70000457763672,-2.700000047683716
101476,-0.8134744167327881,7.239324569702148,-2.6754934787750244,-0.5411620140075684,13.971125602722168,-10.510737419128418,153.90000915527344,-114.9000015258789,-3.9000000953674316
101496,-2.792729616165161,8.242409706115723,-3.5481841564178467,1.0899460315704346,13.231791496276855,-10.82323932647705,158.70001220703125,-117.30000305175781,2.1000001430511475
101517,-3.6558499336242676,11.769061088562012,-3.442312717437744,0.060975998640060425,8.346089363098145,-8.193650245666504,170.70001220703125,-107.70000457763672,-2.1000001430511475
101537,-3.8915181159973145,12.307390213012695,-2.852543830871582,-1.2271419763565063,6.913153648376465,-7.179924011230469,168.3000030517578,-110.10000610351562,-0.30000001192092896
101558,-4.952025890350342,13.95407772064209,-3.609792947769165,-1.1661659479141235,6.410101890563965,-5.403997898101807,168.3000030517578,-107.70000457763672,8.100000381469727
101598,-5.815145969390869,14.35842227935791,-4.136158466339111,-2.14178204536438,-0.1448179930448532,-2.2637338638305664,173.10000610351562,-107.70000457763672,6.300000190734863
101618,-7.156182289123535,13.37627124786377,-5.318687438964844,-1.1814099550247192,-2.7286758422851562,-0.8689079880714417,168.3000030517578,-112.50000762939453,4.5
101638,-8.072537422180176,12.491618156433105,-6.561030387878418,-0.5640279650688171,-7.743951797485352,1.3033620119094849,189.90000915527344,-107.70000457763672,6.300000190734863
101662,-5.705087661743164,12.540067672729492,-4.770788192749023,-1.829279899597168,-15.343085289001465,4.824726104736328,173.10000610351562,-114.9000015258789,-0.30000001192092896
101683,-3.823928117752075,11.613543510437012,-2.933293104171753,-3.109776020050049,-16.25772476196289,6.905531883239746,180.3000030517578,-105.30000305175781,2.1000001430511475
101703,-3.141446828842163,9.71444034576416,-2.8926193714141846,-3.346057891845703,-15.297353744506836,7.5915117263793945,177.90000915527344,-117.30000305175781,-3.3000001907348633
101725,-2.4458065032958984,8.116202354431152,-2.655754804611206,-2.7667858600616455,-15.71656322479248,8.239381790161133,170.70001220703125,-114.9000015258789,-3.3000001907348633
101745,-1.7507644891738892,7.386467456817627,-2.211334466934204,-2.385685920715332,-16.20437240600586,8.948227882385254,151.5,-114.9000015258789,-9.90000057220459
101765,-1.7687088251113892,6.408504009246826,-1.646687626838684,-1.5472660064697266,-16.295835494995117,8.620481491088867,180.3000030517578,-122.10000610351562,-12.300000190734863
101786,-0.7907450199127197,6.792511463165283,-1.2919888496398926,-1.3567159175872803,-16.17388343811035,8.231760025024414,153.90000915527344,-129.3000030517578,-10.5
101806,-0.6699201464653015,6.318782329559326,-1.2734464406967163,-0.7240899801254272,-14.42082405090332,6.707359790802002,168.3000030517578,-134.10000610351562,-16.5
101826,-1.007272720336914,5.798398017883301,-1.9888253211975098,0.685979962348938,-12.987887382507324,5.541193962097168,158.70001220703125,-134.10000610351562,-10.5
101847,-0.32598790526390076,7.211211681365967,-1.9517405033111572,1.4100699424743652,-12.667763710021973,5.975647926330566,168.3000030517578,-134.10000610351562,-25.500001907348633
101867,0.31402507424354553,8.509779930114746,-1.5886677503585815,0.5945159792900085,-11.158607482910156,5.022897720336914,146.70001220703125,-138.90000915527344,-13.500000953674316
101927,-0.0957028716802597,7.589836120605469,-2.685662031173706,1.7911700010299683,-6.227173805236816,1.6158639192581177,163.5,-136.5,-25.500001907348633
101981,0.03947743773460388,8.66350269317627,-3.407620429992676,2.682943820953369,-4.100636005401611,-0.13719600439071655,137.10000610351562,-148.5,-15.300000190734863
102021,-0.38340964913368225,8.2083158493042,-4.091896057128906,2.3475759029388428,-1.653973937034607,-0.9603719711303711,156.3000030517578,-146.10000610351562,-11.700000762939453
102041,-0.32479164004325867,8.201138496398926,-4.216907978057861,2.5533699989318848,-1.1737879514694214,-0.800309956073761,153.90000915527344,-146.10000610351562,-21.30000114440918
102083,-0.19499461352825165,8.555238723754883,-4.47470760345459,2.8658719062805176,0.23628199100494385,0.10670799762010574,156.3000030517578,-143.70001220703125,-23.700000762939453
102105,0.1411617398262024,8.917115211486816,-4.178627014160156,3.307947874069214,1.0899460315704346,0.3277460038661957,153.90000915527344,-134.10000610351562,-17.700000762939453
102145,-0.5317491292953491,9.165345191955566,-4.8718743324279785,2.5762360095977783,2.073184013366699,0.3582339882850647,153.90000915527344,-155.70001220703125,-16.5
102167,-0.4653552174568176,9.816722869873047,-4.914342880249023,2.492393970489502,1.3643379211425781,0.3887220025062561,151.5,-143.70001220703125,-8.100000381469727
102187,-0.36845606565475464,9.58882999420166,-4.86409854888916,1.3262280225753784,1.013725996017456,-0.08384199440479279,141.90000915527344,-143.70001220703125,-10.5
102207,-0.15312460064888,9.37469482421875,-4.569812297821045,0.8307979702949524,0.7012239694595337,-0.114329993724823,153.90000915527344,-134.10000610351562,-11.100000381469727
102228,0.14235801994800568,8.99606990814209,-4.097877502441406,-0.1600620001554489,0.8231759667396545,0.08384199440479279,144.3000030517578,-126.9000015258789,-12.90000057220459
102248,0.32299721240997314,9.00504207611084,-3.8203392028808594,-1.0442140102386475,1.4862899780273438,0.3201240003108978,144.3000030517578,-126.9000015258789,-15.300000190734863
102269,0.30624920129776,8.881226539611816,-3.7210474014282227,-1.2042759656906128,1.4862899780273438,0.2896359860897064,151.5,-136.5,-17.100000381469727
102289,0.4204944968223572,9.01700496673584,-3.502127170562744,-1.0594580173492432,1.1737879514694214,0.28201398253440857,141.90000915527344,-146.10000610351562,-16.5
102309,0.4725329577922821,9.131250381469727,-3.23176646232605,-0.8079319596290588,0.7850660085678101,0.04573199898004532,149.10000610351562,-134.10000610351562,-9.90000057220459
102329,0.4049427807331085,8.735877990722656,-2.888432502746582,-0.7164679765701294,0.48018598556518555,-0.19817200303077698,149.10000610351562,-143.70001220703125,-8.700000762939453
102353,0.23327575623989105,8.78492546081543,-2.9590132236480713,-0.28201398253440857,0.5945159792900085,0.3201240003108978,163.5,-148.5,-6.300000190734863
102374,0.06340315192937851,8.84473991394043,-3.123502492904663,-0.09146399796009064,0.6173819899559021,1.067080020904541,146.70001220703125,-150.90000915527344,-10.5
102434,0.26856619119644165,9.341796875,-3.565530300140381,0.5411620140075684,0.05335399881005287,1.0975680351257324,141.90000915527344,-143.70001220703125,-6.300000190734863
102454,0.19678904116153717,9.272412300109863,-3.463247776031494,1.2500079870224,-0.41158798336982727,1.5015339851379395,132.3000030517578,-136.5,-14.100000381469727
102478,-0.09211401641368866,9.212597846984863,-3.4710235595703125,1.4862899780273438,-0.6936019659042358,1.3795819282531738,132.3000030517578,-138.90000915527344,-3.9000000953674316
102498,-0.1854243278503418,9.340600967407227,-3.532034158706665,1.5167779922485352,-0.8155539631843567,1.189031958580017,137.10000610351562,-141.3000030517578,-10.5
102519,-0.5867782831192017,8.469106674194336,-3.577493190765381,0.9832379817962646,-0.6783579587936401,0.3734779953956604,137.10000610351562,-148.5,-8.700000762939453
102539,-1.0335910320281982,7.950516223907471,-3.7360010147094727,1.0061039924621582,-0.5030519962310791,0.6707359552383423,141.90000915527344,-134.10000610351562,-14.100000381469727
102560,-1.193893313407898,8.402113914489746,-3.9280049800872803,1.013725996017456,-0.3734779953956604,0.9756159782409668,139.5,-143.70001220703125,-13.500000953674316
102581,-1.4678428173065186,8.180801391601562,-3.962099075317383,0.3048799932003021,-0.2134159952402115,0.19817200303077698,125.10000610351562,-131.70001220703125,-13.500000953674316
102643,-1.3571864366531372,8.460134506225586,-3.669607162475586,-0.5792719721794128,0.17530599236488342,-1.0289700031280518,139.5,-146.10000610351562,-11.700000762939453
102877,0.04605700820684433,8.926087379455566,-3.4231722354888916,-1.295740008354187,1.646351933479309,-2.134160041809082,151.5,-138.90000915527344,-11.100000381469727
102977,-0.2871086299419403,8.896180152893066,-3.859816551208496,0.2439039945602417,0.38109999895095825,-0.853663980960846,158.70001220703125,-146.10000610351562,-11.700000762939453
103017,-0.7644267082214355,7.490544319152832,-3.767702579498291,0.030487999320030212,-0.060975998640060425,-0.342989981174469,139.5,-141.3000030517578,-12.300000190734863
103041,-0.19499461352825165,8.502602577209473,-3.540408134460449,0.22103799879550934,-0.3125019967556,1.3490939140319824,144.3000030517578,-136.5,-9.90000057220459
103062,0.11424531042575836,8.688624382019043,-3.764113664627075,-0.3582339882850647,-0.007621999830007553,1.417691946029663,153.90000915527344,-138.90000915527344,-15.300000190734863
103102,0.5730209946632385,8.661109924316406,-3.973463773727417,-0.6326259970664978,-0.26677000522613525,0.9070180058479309,144.3000030517578,-143.70001220703125,-16.5
103145,1.0036839246749878,8.503798484802246,-4.304834842681885,-1.5396440029144287,0.36585599184036255,-0.28201398253440857,137.10000610351562,-136.5,-11.700000762939453
103185,0.29368820786476135,7.169341564178467,-6.420466423034668,-0.571649968624115,2.957335948944092,-1.524399995803833,137.10000610351562,-148.5,-15.90000057220459
103239,1.9840402603149414,10.211496353149414,-7.927786827087402,0.7774440050125122,2.942091941833496,-1.3567159175872803,127.50000762939453,-138.90000915527344,-12.90000057220459
103278,1.2716519832611084,8.1604642868042,-5.608786582946777,-0.060975998640060425,4.580821990966797,-4.870458126068115,156.3000030517578,-122.10000610351562,-11.700000762939453
103298,0.8744850158691406,7.154387950897217,-4.203150749206543,-0.6631140112876892,5.495461940765381,-6.905531883239746,141.90000915527344,-141.3000030517578,-8.700000762939453
103338,1.0910128355026245,4.068568706512451,-1.9529367685317993,-1.2271419763565063,10.594579696655273,-7.400961875915527,149.10000610351562,-119.70000457763672,-9.90000057220459
103361,0.09211401641368866,4.838378429412842,-1.4977500438690186,-1.9131219387054443,15.838515281677246,-7.065593719482422,170.70001220703125,-124.50000762939453,-9.90000057220459
103381,0.2338739037513733,5.725424289703369,-2.1503238677978516,-2.126538038253784,19.64189338684082,-8.00309944152832,165.90000915527344,-126.9000015258789,-9.300000190734863
103403,-0.6717145442962646,7.615556240081787,-1.7579421997070312,-2.7667858600616455,21.60074806213379,-8.262248039245605,161.10000610351562,-117.30000305175781,-5.700000286102295
103423,-3.4470980167388916,6.870270252227783,-3.740786075592041,-3.0792880058288574,25.503211975097656,-11.791234016418457,168.3000030517578,-114.9000015258789,-9.90000057220459
103443,-2.7048025131225586,7.32605504989624,-4.181019306182861,-2.233245849609375,19.90104103088379,-10.99854564666748,161.10000610351562,-112.50000762939453,0.30000001192092896
103467,-3.8227317333221436,7.18369722366333,-1.5970417261123657,-1.3338500261306763,16.829376220703125,-10.968057632446289,161.10000610351562,-100.50000762939453,0.30000001192092896
103487,-4.438220977783203,10.12775707244873,-3.118119239807129,-0.8155539631843567,15.647965431213379,-8.78054428100586,173.10000610351562,-114.9000015258789,-3.9000000953674316
103507,-5.715854167938232,11.032149314880371,-3.6163723468780518,-1.1661659479141235,12.256175994873047,-8.399443626403809,177.90000915527344,-102.9000015258789,5.100000381469727
103527,-6.354671001434326,12.110600471496582,-3.9961931705474854,-0.8155539631843567,8.033587455749512,-7.149435997009277,180.3000030517578,-105.30000305175781,3.3000001907348633
103548,-6.517963886260986,13.12026596069336,-4.219300746917725,-0.9222619533538818,3.460387945175171,-4.847591876983643,158.70001220703125,-105.30000305175781,2.1000001430511475
103569,-6.2404255867004395,13.94091796875,-3.4799957275390625,-2.0503180027008057,-0.8993960022926331,-2.294221878051758,175.5,-90.9000015258789,1.5
103590,-6.885223865509033,13.99594783782959,-3.582278251647949,-2.042695999145508,-3.49849796295166,-0.6250039935112,185.10000610351562,-90.9000015258789,-2.1000001430511475
103610,-7.273418426513672,14.233409881591797,-4.069764614105225,-1.8369019031524658,-7.39333963394165,1.295740008354187,182.70001220703125,-100.50000762939453,2.1000001430511475
103630,-6.507795333862305,13.62330436706543,-3.141446828842163,-2.3704419136047363,-11.509220123291016,3.292703866958618,189.90000915527344,-100.50000762939453,3.3000001907348633
103651,-6.382185459136963,12.315165519714355,-3.2090370655059814,-2.233245849609375,-12.919289588928223,5.518327713012695,189.90000915527344,-107.70000457763672,-3.9000000953674316
103672,-5.278013706207275,11.343781471252441,-3.290384531021118,-2.2027578353881836,-15.21351146697998,7.987855911254883,175.5,-90.9000015258789,-2.1000001430511475
103692,-4.234852313995361,10.4752779006958,-2.48887300491333,-1.753059983253479,-16.875106811523438,9.28359603881836,185.10000610351562,-112.50000762939453,-2.1000001430511475
103712,-3.374722719192505,9.368115425109863,-2.6216607093811035,-1.3033620119094849,-16.516874313354492,9.588476181030273,173.10000610351562,-112.50000762939453,-11.700000762939453
103732,-2.920732021331787,7.809952735900879,-3.0535199642181396,-0.6021379828453064,-16.486385345458984,9.664695739746094,170.70001220703125,-134.10000610351562,-4.5
103752,-1.9505442380905151,7.58804178237915,-2.6641287803649902,0.3048799932003021,-17.401025772094727,10.358297348022461,173.10000610351562,-124.50000762939453,-7.500000476837158
103772,-0.9307104349136353,7.6532392501831055,-2.142548084259033,0.48018598556518555,-15.89186954498291,9.78664779663086,165.90000915527344,-129.3000030517578,-13.500000953674316
103793,-0.6591535806655884,7.437309741973877,-2.2573916912078857,0.35061198472976685,-15.457415580749512,9.657073974609375,156.3000030517578,-131.70001220703125,-12.90000057220459
103813,-0.2548089027404785,7.377495288848877,-1.731623888015747,0.09908600151538849,-14.237895965576172,8.460419654846191,158.70001220703125,-141.3000030517578,-20.100000381469727
103833,-0.2883049249649048,6.135152339935303,-1.719660997390747,0.4344539940357208,-11.615927696228027,6.448211669921875,153.90000915527344,-141.3000030517578,-9.90000057220459
103853,-0.1914057433605194,6.215303421020508,-2.2191104888916016,1.4024479389190674,-10.129637718200684,5.990891933441162,139.5,-143.70001220703125,-16.5
103875,0.49944937229156494,7.533012390136719,-2.2735414505004883,1.6158639192581177,-8.117429733276367,4.7027740478515625,153.90000915527344,-141.3000030517578,-15.300000190734863
103896,0.22609804570674896,6.884625434875488,-2.7173635959625244,1.2271419763565063,-6.051867961883545,2.4161739349365234,141.90000915527344,-134.10000610351562,-12.90000057220459
103916,0.4856920838356018,6.497627258300781,-2.9380781650543213,1.9969639778137207,-5.061007976531982,1.8597679138183594,139.5,-148.5,-18.900001525878906
103936,0.6400129795074463,7.133452892303467,-3.4626495838165283,2.789651870727539,-3.810999870300293,2.332331895828247,129.90000915527344,-138.90000915527344,-22.5
103956,0.41570937633514404,7.41876745223999,-4.51657772064209,2.797273874282837,-1.9436099529266357,2.1494040489196777,144.3000030517578,-155.70001220703125,-17.700000762939453
103979,0.815867006778717,8.237625122070312,-4.669702053070068,3.7805118560791016,-2.843005895614624,3.2698378562927246,139.5,-153.3000030517578,-12.300000190734863
103999,1.6688188314437866,9.30411434173584,-3.8221335411071777,2.682943820953369,-2.7210538387298584,2.9268479347229004,120.30000305175781,-146.10000610351562,-14.100000381469727
104019,1.4702354669570923,8.811244010925293,-3.5906522274017334,1.6311079263687134,-0.5335400104522705,0.9222619533538818,129.90000915527344,-150.90000915527344,-15.90000057220459
104041,1.021030068397522,8.829188346862793,-3.9250142574310303,1.7606819868087769,1.013725996017456,-0.09146399796009064,153.90000915527344,-146.10000610351562,-16.5
104061,0.44980350136756897,8.565407752990723,-4.455566883087158,1.6234859228134155,1.875011920928955,-1.0061039924621582,134.70001220703125,-153.3000030517578,-18.900001525878906
104083,0.33196935057640076,8.478676795959473,-4.998680591583252,2.3475759029388428,1.371959924697876,-0.3048799932003021,125.10000610351562,-138.90000915527344,-12.90000057220459
104103,0.4049427807331085,9.18927001953125,-4.774377346038818,1.981719970703125,0.9222619533538818,0.22103799879550934,137.10000610351562,-138.90000915527344,-12.90000057220459
104125,0.4492053687572479,9.621129989624023,-4.784545421600342,1.6082419157028198,1.2576299905776978,-0.1448179930448532,132.3000030517578,-148.5,-18.30000114440918
104145,0.15312460064888,9.33880615234375,-4.749255180358887,0.8765299916267395,1.7225719690322876,-1.0289700031280518,125.10000610351562,-148.5,-9.90000057220459
104165,-0.10228244960308075,8.966761589050293,-4.545288562774658,0.426831990480423,1.875011920928955,-1.242385983467102,127.50000762939453,-143.70001220703125,-15.300000190734863
104185,-0.3152213394641876,8.750831604003906,-4.386780738830566,-0.09908600151538849,1.9740979671478271,-0.8841519951820374,146.70001220703125,-148.5,-16.5
104205,-0.4210926592350006,8.57378101348877,-4.228870868682861,-0.3734779953956604,1.6387299299240112,-0.33536797761917114,146.70001220703125,-148.5,-9.90000057220459
104245,-0.025122005492448807,8.527724266052246,-3.467434883117676,-0.39634400606155396,0.5335400104522705,0.26677000522613525,146.70001220703125,-138.90000915527344,-14.700000762939453
104265,-0.08194559067487717,8.427236557006836,-3.443509101867676,-0.46494197845458984,0.5640279650688171,0.17530599236488342,127.50000762939453,-146.10000610351562,-21.900001525878906
104285,-0.18602246046066284,8.35067367553711,-3.5134918689727783,-0.23628199100494385,0.25152599811553955,0.114329993724823,122.70000457763672,-146.10000610351562,-14.100000381469727
104307,0.09031958878040314,8.403908729553223,-3.3017492294311523,0.22103799879550934,-0.2972579896450043,0.2591480016708374,132.3000030517578,-143.70001220703125,-15.90000057220459
104328,0.3738393485546112,8.54507064819336,-3.1516153812408447,0.4725639820098877,-0.3887220025062561,0.457319974899292,127.50000762939453,-143.70001220703125,-12.90000057220459
104349,-0.09630101919174194,8.067752838134766,-3.582876443862915,0.3887220025062561,-0.060975998640060425,0.36585599184036255,132.3000030517578,-136.5,-12.300000190734863
104369,-0.16448931396007538,8.480470657348633,-3.782058000564575,0.914639949798584,-1.021347999572754,1.196653962135315,139.5,-138.90000915527344,-15.300000190734863
104389,0.8272317051887512,9.32086181640625,-3.2233924865722656,0.6478700041770935,-1.9207439422607422,1.1585439443588257,132.3000030517578,-150.90000915527344,-16.5
104409,0.4958605170249939,8.76518726348877,-3.055314302444458,-0.12195199728012085,-1.0594580173492432,0.4192099869251251,120.30000305175781,-143.70001220703125,-9.90000057220459
104429,0.32419347763061523,9.137231826782227,-3.618764877319336,0.4420759975910187,-0.5335400104522705,-0.10670799762010574,144.3000030517578,-138.90000915527344,-9.90000057220459
104449,0.16269488632678986,8.762794494628906,-3.8406760692596436,0.4725639820098877,-0.5564059615135193,-0.457319974899292,129.90000915527344,-146.10000610351562,-11.100000381469727
104469,0.45698124170303345,9.4315185546875,-3.9154438972473145,0.4878079891204834,-0.6783579587936401,-0.38109999895095825,129.90000915527344,-146.10000610351562,-17.700000762939453
104489,0.4294666647911072,8.80885124206543,-4.067970275878906,-0.5487840175628662,-0.2896359860897064,-0.9451279640197754,127.50000762939453,-146.10000610351562,-15.90000057220459
104509,0.3397451937198639,8.576173782348633,-4.337732791900635,-1.021347999572754,0.19817200303077698,-0.853663980960846,137.10000610351562,-150.90000915527344,-13.500000953674316
104529,0.5478989481925964,8.890796661376953,-5.055504322052002,-1.2347639799118042,1.196653962135315,-1.425313949584961,122.70000457763672,-131.70001220703125,-12.90000057220459
104552,0.36845606565475464,8.622230529785156,-6.669294357299805,-0.41158798336982727,2.439039945602417,-1.882633924484253,134.70001220703125,-141.3000030517578,-14.700000762939453
104572,0.5407212376594543,8.019901275634766,-6.705780982971191,-0.5259180068969727,0.8841519951820374,-2.126538038253784,134.70001220703125,-129.3000030517578,-14.700000762939453
104592,1.1245087385177612,8.35486125946045,-6.611274242401123,-1.067080020904541,1.5320219993591309,-1.0747020244598389,129.90000915527344,-150.90000915527344,-14.700000762939453
104612,1.1657806634902954,8.063565254211426,-6.857110977172852,-1.2271419763565063,3.6433160305023193,-1.4634239673614502,134.70001220703125,-143.70001220703125,-8.700000762939453
104636,1.1544159650802612,7.578471660614014,-6.709968090057373,-0.3277460038661957,4.253076076507568,-1.5929979085922241,129.90000915527344,-136.5,-9.90000057220459
104656,1.7645217180252075,8.251980781555176,-5.419773578643799,0.05335399881005287,4.596065998077393,-1.6311079263687134,144.3000030517578,-143.70001220703125,-8.700000762939453
104721,2.1981754302978516,6.943243503570557,-3.2204017639160156,-1.371959924697876,13.224169731140137,-7.164680004119873,137.10000610351562,-131.70001220703125,-8.700000762939453
104741,1.6478838920593262,4.621252536773682,-3.550576686859131,-2.2713558673858643,16.18912696838379,-11.166230201721191,151.5,-136.5,-2.700000047683716
104761,1.126901388168335,3.827516794204712,-2.936283826828003,-2.03507399559021,16.00619888305664,-11.402511596679688,156.3000030517578,-141.3000030517578,-9.300000190734863
104781,0.31282877922058105,4.551270008087158,-1.8985058069229126,-2.8125178813934326,16.768400192260742,-11.539708137512207,163.5,-138.90000915527344,-8.100000381469727
104802,-1.0676852464675903,4.295264720916748,-2.5851738452911377,-2.446661949157715,18.506216049194336,-12.743983268737793,156.3000030517578,-117.30000305175781,-8.700000762939453
104822,-2.014545440673828,5.484971046447754,-2.4571714401245117,-2.28659987449646,16.45589828491211,-11.829343795776367,153.90000915527344,-122.10000610351562,-0.9000000357627869
104842,-2.822636604309082,7.7872233390808105,-1.9918160438537598,-2.7210538387298584,14.931497573852539,-10.228723526000977,163.5,-117.30000305175781,0.9000000357627869
104862,-2.868095636367798,10.414865493774414,-2.7562427520751953,-2.896359920501709,15.160157203674316,-9.702805519104004,168.3000030517578,-124.50000762939453,-8.100000381469727
104884,-2.5439021587371826,12.322343826293945,-2.444610357284546,-3.300325870513916,13.811063766479492,-9.847623825073242,153.90000915527344,-110.10000610351562,-1.5
104904,-4.335938453674316,12.371989250183105,-2.521770715713501,-2.439039945602417,14.184541702270508,-10.388785362243652,182.70001220703125,-105.30000305175781,9.90000057220459
104947,-7.36792516708374,14.017480850219727,-4.1002702713012695,-1.478667974472046,6.714982032775879,-6.547297954559326,185.10000610351562,-83.70000457763672,0.30000001192092896
104967,-8.43441390991211,12.729679107666016,-3.853835105895996,-0.6936019659042358,1.6615959405899048,-4.977165699005127,187.5,-105.30000305175781,6.300000190734863
104987,-8.477479934692383,14.695176124572754,-4.850341320037842,0.5487840175628662,-5.998513698577881,1.707327961921692,187.5,-95.70000457763672,3.3000001907348633
105008,-6.89479398727417,14.40926456451416,-3.7724876403808594,-0.5640279650688171,-10.830862045288086,3.818621873855591,187.5,-98.10000610351562,0.30000001192092896
105028,-6.324763774871826,13.193239212036133,-3.23176646232605,-0.7774440050125122,-12.111357688903809,5.556437969207764,187.5,-100.50000762939453,0.30000001192092896
105070,-5.339024066925049,9.838255882263184,-2.9614057540893555,-1.6768399477005005,-15.320219993591309,9.176887512207031,177.90000915527344,-110.10000610351562,-8.100000381469727
105090,-4.323975563049316,8.39254379272461,-2.7646167278289795,-1.2576299905776978,-16.402544021606445,10.28969955444336,177.90000915527344,-112.50000762939453,0.9000000357627869
105110,-3.061893939971924,7.937357425689697,-2.507415294647217,-0.7545779943466187,-17.073280334472656,11.242449760437012,185.10000610351562,-117.30000305175781,-6.900000095367432
105133,-1.9804513454437256,8.116202354431152,-2.0528266429901123,-0.7926880121231079,-16.737911224365234,11.051899909973145,175.5,-134.10000610351562,-6.300000190734863
105153,-1.2124358415603638,7.976834774017334,-1.8739819526672363,-1.4862899780273438,-14.329360008239746,8.574749946594238,175.5,-126.9000015258789,-12.300000190734863
105173,-1.1454437971115112,8.189175605773926,-1.848261833190918,-1.6692179441452026,-13.353743553161621,7.682975769042969,168.3000030517578,-138.90000915527344,-18.30000114440918
105193,-1.6622393131256104,7.664604187011719,-2.6282401084899902,-2.4542839527130127,-10.846105575561523,5.579303741455078,163.5,-129.3000030517578,-11.100000381469727
105237,-1.3500087261199951,6.559834003448486,-2.826225519180298,-0.9832379817962646,-10.144882202148438,4.9466776847839355,146.70001220703125,-138.90000915527344,-15.90000057220459
105257,-0.8619239926338196,6.983319282531738,-2.6330254077911377,0.7012239694595337,-10.442139625549316,4.458869934082031,158.70001220703125,-143.70001220703125,-18.900001525878906
105317,0.9055884480476379,7.419365406036377,-3.222196102142334,2.835383892059326,-6.585407733917236,2.431417942047119,158.70001220703125,-134.10000610351562,-20.700000762939453
105338,0.8619239926338196,7.098760604858398,-3.7539453506469727,2.5609920024871826,-4.580821990966797,1.425313949584961,146.70001220703125,-141.3000030517578,-23.700000762939453
105358,0.7979227304458618,7.408598899841309,-3.818544626235962,3.307947874069214,-4.077769756317139,2.1036720275878906,141.90000915527344,-153.3000030517578,-16.5
105378,0.9408788681030273,8.472695350646973,-3.4357333183288574,3.1402640342712402,-3.3765459060668945,2.1570260524749756,144.3000030517578,-141.3000030517578,-21.30000114440918
105399,0.9271215796470642,8.964966773986816,-3.7575340270996094,2.431417942047119,-1.5548880100250244,0.8460419774055481,129.90000915527344,-150.90000915527344,-17.100000381469727
105419,0.6400129795074463,8.828590393066406,-4.208533763885498,2.278977870941162,-0.46494197845458984,-0.44969800114631653,137.10000610351562,-143.70001220703125,-15.90000057220459
105439,0.5550766587257385,8.311196327209473,-4.154701232910156,2.1570260524749756,-0.22103799879550934,-0.49542999267578125,161.10000610351562,-141.3000030517578,-23.100000381469727
105459,0.7847635746002197,8.503798484802246,-4.251002311706543,1.8673899173736572,0.1448179930448532,0.10670799762010574,151.5,-138.90000915527344,-20.700000762939453
105479,0.9988987445831299,9.25626277923584,-4.210926532745361,2.0503180027008057,0.4039659798145294,0.44969800114631653,134.70001220703125,-150.90000915527344,-15.300000190734863
105499,0.9337011575698853,9.456042289733887,-4.099073886871338,1.6692179441452026,0.7621999979019165,-0.15243999660015106,141.90000915527344,-148.5,-16.5
105519,0.6053206920623779,8.971546173095703,-4.0105485916137695,1.3033620119094849,1.189031958580017,-0.6783579587936401,141.90000915527344,-138.90000915527344,-18.900001525878906
105542,0.3152213394641876,8.970948219299316,-3.9806413650512695,1.478667974472046,1.471045970916748,-0.8612859845161438,149.10000610351562,-143.70001220703125,-18.900001525878906
105565,-0.18602246046066284,9.457837104797363,-4.045240879058838,1.5548880100250244,1.653973937034607,-0.800309956073761,144.3000030517578,-141.3000030517578,-9.300000190734863
105585,-0.2607903480529785,9.545763969421387,-3.862807273864746,0.9375059604644775,1.4862899780273438,-1.0061039924621582,132.3000030517578,-146.10000610351562,-17.100000381469727
105605,-0.512010395526886,9.020594596862793,-3.6911401748657227,-0.114329993724823,1.8673899173736572,-1.1051899194717407,139.5,-138.90000915527344,-16.5
105627,-0.7309306859970093,8.754420280456543,-3.70190691947937,-0.5945159792900085,2.0045859813690186,-0.8841519951820374,139.5,-141.3000030517578,-10.5
105647,-0.806296706199646,8.478676795959473,-3.68396258354187,-0.7621999979019165,1.6387299299240112,-0.44969800114631653,144.3000030517578,-136.5,-15.90000057220459
105667,-0.7022198438644409,8.54207992553711,-3.574502468109131,-0.3887220025062561,0.8307979702949524,0.05335399881005287,137.10000610351562,-146.10000610351562,-17.100000381469727
105729,-0.10228244960308075,8.883021354675293,-2.7891407012939453,-0.19054999947547913,0.030487999320030212,0.4725639820098877,132.3000030517578,-134.10000610351562,-8.700000762939453
105749,-0.42587780952453613,8.57677173614502,-3.2269814014434814,-0.18292799592018127,0.342989981174469,-0.007621999830007553,137.10000610351562,-150.90000915527344,-14.700000762939453
105769,-0.34931549429893494,8.951210021972656,-3.3041417598724365,0.6021379828453064,-0.3277460038661957,0.060975998640060425,134.70001220703125,-136.5,-18.900001525878906
105789,-0.2912956178188324,9.05588436126709,-3.2867956161499023,0.457319974899292,-0.3277460038661957,-0.05335399881005287,141.90000915527344,-138.90000915527344,-12.300000190734863
105811,-0.42169079184532166,8.896180152893066,-3.4883697032928467,0.114329993724823,-0.23628199100494385,-0.3734779953956604,137.10000610351562,-146.10000610351562,-14.700000762939453
105832,-0.3989613652229309,8.894386291503906,-3.567324638366699,0.25152599811553955,-0.3201240003108978,-0.2743920087814331,137.10000610351562,-141.3000030517578,-17.100000381469727
105852,-0.3810170590877533,8.778346061706543,-3.6498684883117676,0.342989981174469,-0.4039659798145294,-0.3125019967556,137.10000610351562,-143.70001220703125,-11.700000762939453
105872,-0.24105161428451538,8.737074851989746,-3.597830057144165,0.571649968624115,-0.3734779953956604,-0.1600620001554489,153.90000915527344,-141.3000030517578,-15.300000190734863
105892,-0.16149860620498657,8.60787582397461,-3.6109890937805176,0.426831990480423,-0.17530599236488342,-0.1600620001554489,153.90000915527344,-138.90000915527344,-9.90000057220459
105912,0.033496007323265076,8.549257278442383,-3.65106463432312,0.19817200303077698,0.2972579896450043,-0.09146399796009064,139.5,-129.3000030517578,-16.5
105932,0.11603973805904388,8.980518341064453,-4.158289909362793,-0.228659987449646,0.7698220014572144,-0.2972579896450043,146.70001220703125,-136.5,-15.90000057220459
105952,0.11005830764770508,8.079116821289062,-4.319190502166748,-0.5792719721794128,1.0823240280151367,-0.5564059615135193,144.3000030517578,-136.5,-9.300000190734863
105972,0.6316390037536621,8.85789966583252,-4.6888427734375,-0.3734779953956604,1.2652519941329956,-0.10670799762010574,153.90000915527344,-146.10000610351562,-8.700000762939453
105992,0.5939559936523438,8.2741117477417,-4.9197258949279785,-0.9375059604644775,2.3094658851623535,-0.9832379817962646,141.90000915527344,-143.70001220703125,-17.700000762939453
106015,0.6316390037536621,8.496023178100586,-5.263658046722412,-0.9070180058479309,2.9192259311676025,-0.6707359552383423,139.5,-136.5,-18.900001525878906
106036,0.21234075725078583,8.257363319396973,-5.7960052490234375,-0.8993960022926331,4.481735706329346,-1.1509219408035278,146.70001220703125,-148.5,-16.5
106057,0.9642064571380615,9.10194206237793,-6.622040748596191,0.853663980960846,5.708878040313721,-0.5182960033416748,153.90000915527344,-138.90000915527344,-9.300000190734863
106077,1.5312459468841553,9.03315544128418,-5.5100932121276855,1.875011920928955,6.410101890563965,-2.8582499027252197,132.3000030517578,-131.70001220703125,-16.5
106097,1.7441848516464233,8.638978958129883,-5.278611660003662,1.9740979671478271,7.637243747711182,-3.5747179985046387,141.90000915527344,-138.90000915527344,-17.700000762939453
106118,2.1563053131103516,8.117398262023926,-4.538708686828613,1.6234859228134155,9.908599853515625,-4.626554012298584,144.3000030517578,-138.90000915527344,-6.900000095367432
106138,2.2065494060516357,7.723820209503174,-3.7072901725769043,0.038109999150037766,12.934534072875977,-5.800342082977295,139.5,-129.3000030517578,-5.100000381469727
106158,2.0695745944976807,6.998870849609375,-3.42197585105896,-1.806414008140564,16.463520050048828,-7.576267719268799,141.90000915527344,-129.3000030517578,-5.100000381469727
106178,1.4582725763320923,5.871969699859619,-3.5451934337615967,-2.743919849395752,19.199817657470703,-9.253108024597168,161.10000610351562,-134.10000610351562,-4.5
106198,0.27155691385269165,4.584765911102295,-3.41898512840271,-1.806414008140564,20.15256690979004,-11.105254173278809,153.90000915527344,-117.30000305175781,-6.300000190734863
106218,0.18183545768260956,4.431641101837158,-3.207242727279663,-1.3490939140319824,20.06110382080078,-11.478732109069824,153.90000915527344,-124.50000762939453,-11.700000762939453
106238,-0.5855819582939148,4.738488674163818,-3.1767373085021973,-0.5030519962310791,20.297386169433594,-11.577817916870117,168.3000030517578,-117.30000305175781,1.5
106259,-1.546797752380371,5.866586208343506,-3.529641628265381,-0.342989981174469,20.1373233795166,-11.562573432922363,163.5,-124.50000762939453,2.700000047683716
106279,-1.7358108758926392,7.11491060256958,-3.2156167030334473,-0.48018598556518555,18.452861785888672,-11.029033660888672,165.90000915527344,-112.50000762939453,2.1000001430511475
106299,-2.6252493858337402,7.35596227645874,-2.5528740882873535,-0.8079319596290588,18.765363693237305,-11.448244094848633,156.3000030517578,-105.30000305175781,-0.30000001192092896
106321,-5.735592842102051,10.449557304382324,-3.9058735370635986,-0.426831990480423,19.14646339416504,-8.811031341552734,149.10000610351562,-88.5,7.500000476837158
106341,-6.687836647033691,12.182377815246582,-5.503513336181641,-0.4039659798145294,16.814130783081055,-7.530535697937012,168.3000030517578,-98.10000610351562,2.1000001430511475
106404,-6.540095329284668,14.45591926574707,-5.502317428588867,-2.987823963165283,0.853663980960846,-0.7774440050125122,153.90000915527344,-93.30000305175781,8.100000381469727
106426,-6.471907138824463,14.1741943359375,-5.380296230316162,-3.201239824295044,-4.916189670562744,0.015243999660015106,175.5,-95.70000457763672,9.90000057220459
106447,-6.598713397979736,13.76685905456543,-5.585459232330322,-2.835383892059326,-8.993959426879883,1.14329993724823,156.3000030517578,-86.10000610351562,6.300000190734863
106470,-5.648862361907959,12.334305763244629,-5.014830589294434,-2.7591638565063477,-15.358329772949219,3.9405739307403564,168.3000030517578,-100.50000762939453,10.5
106491,-5.089000225067139,11.146394729614258,-4.499231338500977,-3.2850818634033203,-17.28669548034668,5.914671897888184,168.3000030517578,-102.9000015258789,3.9000000953674316
106511,-4.646374702453613,8.93147087097168,-4.105653285980225,-3.5747179985046387,-19.428478240966797,7.370473861694336,175.5,-112.50000762939453,0.30000001192092896
106531,-3.5362212657928467,7.434319019317627,-3.183915138244629,-3.60520601272583,-21.623613357543945,9.192131996154785,158.70001220703125,-110.10000610351562,-4.5
106551,-2.4990413188934326,6.65374231338501,-2.497844934463501,-2.9344699382781982,-22.25623893737793,10.25158977508545,173.10000610351562,-122.10000610351562,-5.100000381469727
106571,-1.8129713535308838,6.166853904724121,-1.9278148412704468,-2.0655620098114014,-22.50014305114746,10.198235511779785,165.90000915527344,-126.9000015258789,-7.500000476837158
106591,-1.3727381229400635,6.145320892333984,-1.4893759489059448,-1.0365920066833496,-21.608369827270508,10.061039924621582,156.3000030517578,-126.9000015258789,-8.100000381469727
106615,-0.8368020057678223,6.162068843841553,-1.524666428565979,-0.5030519962310791,-20.083969116210938,9.57323169708252,170.70001220703125,-122.10000610351562,-12.300000190734863
106636,-0.3887929320335388,6.939056396484375,-1.4792075157165527,0.4725639820098877,-18.5595703125,9.4970121383667,161.10000610351562,-138.90000915527344,-13.500000953674316
106656,0.04486072435975075,8.025283813476562,-1.732222080230713,1.1356779336929321,-16.234859466552734,8.574749946594238,151.5,-136.5,-8.100000381469727
106676,0.7578471302986145,8.880030632019043,-1.8721874952316284,1.0823240280151367,-14.306493759155273,7.561023712158203,161.10000610351562,-153.3000030517578,-15.90000057220459
106697,0.8786720037460327,8.394338607788086,-1.6514726877212524,0.5868939757347107,-11.958917617797852,5.426863670349121,144.3000030517578,-141.3000030517578,-15.300000190734863
106717,0.7728007435798645,7.560527324676514,-2.3267762660980225,1.5625100135803223,-9.28359603881836,4.306429862976074,129.90000915527344,-150.90000915527344,-19.5
106737,0.7871561646461487,8.105435371398926,-2.9368820190429688,2.530503988265991,-7.67535400390625,4.207344055175781,132.3000030517578,-158.10000610351562,-10.5
106760,1.119125485420227,8.976929664611816,-3.911256790161133,3.407033920288086,-6.067111968994141,3.163130044937134,139.5,-141.3000030517578,-14.700000762939453
106781,0.8379983305931091,7.998367786407471,-3.853835105895996,3.147886037826538,-5.419241905212402,1.9969639778137207,120.30000305175781,-153.3000030517578,-12.90000057220459
106801,0.7979227304458618,7.497124195098877,-3.886733055114746,2.7210538387298584,-4.413137912750244,1.524399995803833,132.3000030517578,-148.5,-17.700000762939453
106825,0.503038227558136,6.63280725479126,-3.970473051071167,2.339953899383545,-2.7744078636169434,0.5640279650688171,129.90000915527344,-150.90000915527344,-17.700000762939453
106845,0.9319067597389221,8.30700969696045,-4.609289646148682,3.1326420307159424,-1.5853760242462158,2.0198299884796143,127.50000762939453,-146.10000610351562,-9.300000190734863
106866,0.8433815836906433,8.259756088256836,-4.529736518859863,2.942091941833496,-1.0518360137939453,1.4405579566955566,127.50000762939453,-158.10000610351562,-13.500000953674316
106886,0.9313086271286011,8.239418983459473,-5.032774925231934,2.7667858600616455,0.426831990480423,1.2118979692459106,120.30000305175781,-153.3000030517578,-17.100000381469727
106906,1.0413669347763062,8.632997512817383,-4.92092227935791,3.0716660022735596,0.26677000522613525,1.7683039903640747,139.5,-153.3000030517578,-9.300000190734863
106927,1.2261930704116821,9.825096130371094,-4.48367977142334,1.471045970916748,1.0747020244598389,1.471045970916748,127.50000762939453,-158.10000610351562,-15.90000057220459
106948,1.1047700643539429,9.688121795654297,-4.518970012664795,0.739333987236023,1.6844619512557983,0.2896359860897064,125.10000610351562,-143.70001220703125,-11.700000762939453
106990,0.503038227558136,8.917713165283203,-4.629626750946045,0.5564059615135193,1.6692179441452026,-0.6936019659042358,120.30000305175781,-141.3000030517578,-14.100000381469727
107010,0.5293565392494202,9.01222038269043,-4.348499298095703,0.7469559907913208,1.189031958580017,-0.28201398253440857,120.30000305175781,-150.90000915527344,-10.5
107030,0.4665515124797821,8.97214412689209,-3.896303415298462,0.17530599236488342,1.0518360137939453,-0.09908600151538849,113.10000610351562,-148.5,-7.500000476837158
107050,0.33615633845329285,8.866272926330566,-3.579287528991699,-0.33536797761917114,1.2881180047988892,-0.1295740008354187,120.30000305175781,-143.70001220703125,-11.100000381469727
107070,0.1722651720046997,8.753822326660156,-3.4470980167388916,-0.6173819899559021,1.5396440029144287,-0.18292799592018127,129.90000915527344,-143.70001220703125,-13.500000953674316
107110,-0.11424531042575836,8.475686073303223,-3.037968158721924,-0.571649968624115,0.5030519962310791,0.1600620001554489,117.9000015258789,-143.70001220703125,-18.30000114440918
107131,0.09390844404697418,8.83397388458252,-2.843571662902832,-0.6402480006217957,0.23628199100494385,0.3125019967556,129.90000915527344,-134.10000610351562,-14.100000381469727
107151,0.028710862621665,8.966761589050293,-2.911760091781616,-0.6478700041770935,0.2743920087814331,-0.05335399881005287,125.10000610351562,-162.90000915527344,-11.100000381469727
107172,0.01914057508111,8.53191089630127,-3.014042377471924,-0.3277460038661957,0.1600620001554489,-0.18292799592018127,129.90000915527344,-155.70001220703125,-6.900000095367432
107234,-0.009570287540555,8.484060287475586,-3.7988059520721436,1.021347999572754,-0.5411620140075684,0.4039659798145294,117.9000015258789,-150.90000915527344,-9.90000057220459
107254,0.32479164004325867,9.235925674438477,-3.591848611831665,0.853663980960846,-0.8917739987373352,0.9451279640197754,113.10000610351562,-153.3000030517578,-14.100000381469727
107274,0.5377305150032043,9.122876167297363,-3.7162623405456543,0.2972579896450043,-0.3201240003108978,0.038109999150037766,132.3000030517578,-153.3000030517578,-12.300000190734863
107297,0.2338739037513733,8.574379920959473,-3.948939800262451,-0.19054999947547913,0.015243999660015106,0.19054999947547913,115.50000762939453,-153.3000030517578,-18.900001525878906
107317,0.3307730555534363,8.783729553222656,-3.8191428184509277,-0.342989981174469,-0.36585599184036255,0.3201240003108978,120.30000305175781,-138.90000915527344,-10.5
107337,0.4976549446582794,8.81184196472168,-3.4716217517852783,-0.7012239694595337,-0.6021379828453064,0.1448179930448532,122.70000457763672,-143.70001220703125,-18.900001525878906
107357,0.4515979290008545,8.569594383239746,-3.4590609073638916,-1.1585439443588257,-0.5182960033416748,-0.3734779953956604,129.90000915527344,-141.3000030517578,-13.500000953674316
107420,0.7333232760429382,9.58284854888916,-2.8603196144104004,0.1295740008354187,-1.5929979085922241,-0.19817200303077698,129.90000915527344,-146.10000610351562,-12.90000057220459
107440,0.6549665331840515,9.332226753234863,-3.693532943725586,-1.2500079870224,0.10670799762010574,-1.2347639799118042,129.90000915527344,-141.3000030517578,-11.700000762939453
107460,0.5317491292953491,8.88062858581543,-4.162477016448975,-0.6631140112876892,0.09908600151538849,-1.6387299299240112,127.50000762939453,-153.3000030517578,-15.300000190734863
107480,0.4330555200576782,8.101846694946289,-4.776171684265137,-0.7926880121231079,0.7240899801254272,-1.5548880100250244,125.10000610351562,-146.10000610351562,-6.300000190734863
107502,0.6818829774856567,8.60667896270752,-5.267845153808594,0.030487999320030212,0.457319974899292,-0.4878079891204834,125.10000610351562,-146.10000610351562,-16.5
107522,0.8732887506484985,7.992984294891357,-5.174534797668457,-0.2972579896450043,1.0518360137939453,-0.8993960022926331,122.70000457763672,-148.5,-6.900000095367432
107542,0.8691017627716064,7.512675762176514,-5.702096939086914,-0.007621999830007553,3.041177988052368,-0.6326259970664978,117.9000015258789,-150.90000915527344,-11.700000762939453
107562,0.8589333295822144,8.053397178649902,-6.5113844871521,0.571649968624115,4.53508996963501,-0.7088459730148315,122.70000457763672,-148.5,-12.90000057220459
107606,0.3959706425666809,7.2895684242248535,-5.211021423339844,0.3734779953956604,6.1738200187683105,-3.0716660022735596,139.5,-148.5,-9.90000057220459
107626,-0.6621442437171936,6.026290416717529,-4.983129024505615,0.19817200303077698,7.804927825927734,-3.7957558631896973,120.30000305175781,-153.3000030517578,-8.100000381469727
107646,-0.4222889244556427,6.866681098937988,-4.227076530456543,0.6936019659042358,7.0884599685668945,-3.0716660022735596,132.3000030517578,-162.90000915527344,-9.300000190734863
107666,1.0880221128463745,7.630509853363037,-2.6120903491973877,-1.0823240280151367,8.071698188781738,-4.00154972076416,134.70001220703125,-150.90000915527344,-12.300000190734863
107726,1.709492564201355,5.954513072967529,-2.2968690395355225,-3.3689239025115967,19.89341926574707,-11.1357421875,141.90000915527344,-131.70001220703125,-5.100000381469727
107838,-4.048231601715088,10.824593544006348,-3.558352470397949,-2.3475759029388428,18.582435607910156,-12.21806526184082,161.10000610351562,-107.70000457763672,5.100000381469727
107858,-4.687646389007568,12.134526252746582,-3.46982741355896,-2.797273874282837,14.870521545410156,-10.861350059509277,168.3000030517578,-105.30000305175781,0.9000000357627869
107898,-6.92171049118042,14.154455184936523,-3.788637638092041,-0.9375059604644775,7.027483940124512,-6.318637847900391,180.3000030517578,-100.50000762939453,-3.3000001907348633
107918,-6.857110977172852,14.865049362182617,-3.746169328689575,-1.1128119230270386,2.1112940311431885,-3.704291820526123,173.10000610351562,-105.30000305175781,0.30000001192092896
107942,-8.119791030883789,14.194530487060547,-4.818639755249023,0.46494197845458984,-4.710395812988281,-1.189031958580017,168.3000030517578,-98.10000610351562,5.700000286102295
107962,-7.937357425689697,14.12335205078125,-5.031578540802002,-0.007621999830007553,-10.03055191040039,2.583858013153076,175.5,-93.30000305175781,7.500000476837158
107982,-6.459345817565918,13.688502311706543,-4.048231601715088,-1.4100699424743652,-14.123565673828125,6.288149833679199,177.90000915527344,-112.50000762939453,2.1000001430511475
108002,-5.339622497558594,12.505972862243652,-3.476407051086426,-2.2103798389434814,-15.335463523864746,8.85676383972168,170.70001220703125,-95.70000457763672,0.30000001192092896
108022,-4.630822658538818,10.563204765319824,-3.2927770614624023,-3.003067970275879,-16.196748733520508,9.99244213104248,182.70001220703125,-114.9000015258789,3.3000001907348633
108042,-3.6642239093780518,8.529519081115723,-3.1486246585845947,-2.987823963165283,-17.477245330810547,10.769886016845703,173.10000610351562,-124.50000762939453,-3.9000000953674316
108062,-2.265167474746704,7.131060600280762,-2.7891407012939453,-2.2027578353881836,-18.734874725341797,11.737879753112793,168.3000030517578,-124.50000762939453,-13.500000953674316
108082,-1.0898164510726929,7.13584566116333,-2.0887153148651123,-1.1661659479141235,-19.05500030517578,12.484835624694824,170.70001220703125,-124.50000762939453,-12.300000190734863
108102,-0.4462146461009979,7.075433254241943,-1.7740920782089233,-0.7012239694595337,-17.934566497802734,11.204339981079102,156.3000030517578,-131.70001220703125,-12.90000057220459
108122,-0.06400129944086075,6.226070404052734,-1.8105788230895996,-0.038109999150037766,-16.242481231689453,9.176887512207031,165.90000915527344,-138.90000915527344,-9.90000057220459
108142,-0.2601921856403351,5.108738899230957,-2.321392774581909,1.5853760242462158,-15.091559410095215,8.048831939697266,153.90000915527344,-146.10000610351562,-18.900001525878906
108162,0.27155691385269165,6.507795333862305,-2.509807825088501,2.9649579524993896,-14.740947723388672,8.948227882385254,134.70001220703125,-150.90000915527344,-17.100000381469727
108226,1.119125485420227,8.214895248413086,-2.6641287803649902,2.042695999145508,-12.271419525146484,5.815586090087891,146.70001220703125,-160.5,-20.100000381469727
108254,1.0617038011550903,7.841654300689697,-2.5654351711273193,1.2195199728012085,-9.931466102600098,4.207344055175781,132.3000030517578,-155.70001220703125,-19.5
108276,0.8990088701248169,7.6891279220581055,-2.837590217590332,1.1128119230270386,-8.262248039245605,3.0106899738311768,113.10000610351562,-148.5,-21.900001525878906
108316,0.7991189956665039,8.385366439819336,-3.0032758712768555,1.0975680351257324,-5.899427890777588,1.7378159761428833,129.90000915527344,-155.70001220703125,-17.700000762939453
108336,0.2972770631313324,7.410991191864014,-3.564333915710449,0.4420759975910187,-2.446661949157715,-1.7606819868087769,120.30000305175781,-158.10000610351562,-17.700000762939453
108356,0.12142302095890045,6.593928337097168,-4.110438346862793,2.538125991821289,-1.935987949371338,-0.9984819889068604,122.70000457763672,-165.3000030517578,-20.100000381469727
108376,0.4252796471118927,8.77296257019043,-3.597830057144165,2.8125178813934326,-2.28659987449646,0.5182960033416748,125.10000610351562,-155.70001220703125,-15.300000190734863
108396,0.7949320077896118,9.480566024780273,-4.101466178894043,2.4161739349365234,-0.1600620001554489,-0.6326259970664978,129.90000915527344,-150.90000915527344,-18.30000114440918
108416,0.4737292230129242,8.935657501220703,-4.514184951782227,2.8277618885040283,0.5487840175628662,-1.6844619512557983,137.10000610351562,-138.90000915527344,-11.700000762939453
108436,0.18063917756080627,8.58574390411377,-4.867687702178955,2.957335948944092,0.6173819899559021,-1.0975680351257324,127.50000762939453,-143.70001220703125,-15.90000057220459
108499,0.22609804570674896,9.481761932373047,-4.658337593078613,1.2804960012435913,0.4725639820098877,-0.8155539631843567,137.10000610351562,-138.90000915527344,-16.5
108519,0.4151112139225006,9.47518253326416,-4.222291469573975,0.4420759975910187,1.2728739976882935,-1.295740008354187,129.90000915527344,-143.70001220703125,-9.300000190734863
108539,0.1722651720046997,8.60368824005127,-3.9423604011535645,-0.5792719721794128,2.5076379776000977,-1.6920839548110962,120.30000305175781,-148.5,-17.700000762939453
108559,-0.3822133541107178,8.007340431213379,-3.9896135330200195,-0.6631140112876892,3.163130044937134,-1.1128119230270386,139.5,-146.10000610351562,-17.100000381469727
108622,0.07775858789682388,8.75621509552002,-3.1199138164520264,-0.2439039945602417,2.14178204536438,-0.2972579896450043,117.9000015258789,-153.3000030517578,-15.90000057220459
108976,0.8990088701248169,8.85670280456543,-3.6355130672454834,-0.8612859845161438,0.8079319596290588,-0.2896359860897064,137.10000610351562,-158.10000610351562,-6.300000190734863
108997,1.2710537910461426,8.734084129333496,-3.964491605758667,-1.3948259353637695,1.5091559886932373,-1.0518360137939453,120.30000305175781,-143.70001220703125,-17.700000762939453
109037,0.4551868140697479,7.10294771194458,-5.983223915100098,0.9603719711303711,3.8872199058532715,-2.0045859813690186,132.3000030517578,-148.5,-19.5
109094,1.8398877382278442,9.07981014251709,-6.369026184082031,0.5259180068969727,4.64179801940918,-4.611310005187988,139.5,-153.3000030517578,-15.90000057220459
109156,1.60541570186615,6.871466636657715,-2.691643476486206,-3.8795979022979736,12.652520179748535,-6.493943691253662,141.90000915527344,-131.70001220703125,-11.700000762939453
109177,2.1299872398376465,6.787726402282715,-2.0606024265289307,-4.57319974899292,16.067174911499023,-6.234796047210693,137.10000610351562,-141.3000030517578,-9.300000190734863
109198,2.0887153148651123,6.582563400268555,-1.8141676187515259,-5.061007976531982,19.192195892333984,-7.431449890136719,156.3000030517578,-136.5,-9.90000057220459
109218,1.63532292842865,5.133263111114502,-1.7842605113983154,-5.015275955200195,21.684589385986328,-9.618964195251465,151.5,-138.90000915527344,-5.100000381469727
109238,1.006076455116272,5.294761657714844,-2.45298433303833,-3.871975898742676,23.8492374420166,-10.594579696655273,165.90000915527344,-122.10000610351562,-0.30000001192092896
109258,-0.08553444594144821,6.188387393951416,-3.281412363052368,-3.407033920288086,24.19985008239746,-11.981783866882324,158.70001220703125,-122.10000610351562,-0.30000001192092896
109279,-1.6419024467468262,6.554450511932373,-3.5984280109405518,-3.5899620056152344,23.132768630981445,-13.170815467834473,161.10000610351562,-112.50000762939453,-1.5
109341,-3.988417387008667,9.994370460510254,-3.1761391162872314,-3.9481959342956543,16.02144432067871,-11.356780052185059,177.90000915527344,-122.10000610351562,2.1000001430511475
109361,-4.892211437225342,10.5590181350708,-3.144437551498413,-3.4756319522857666,15.122047424316406,-9.641829490661621,175.5,-110.10000610351562,-6.900000095367432
109383,-5.836081027984619,11.514850616455078,-3.541006326675415,-2.492393970489502,13.02599811553955,-7.766818046569824,163.5,-102.9000015258789,-1.5
109403,-6.865485191345215,11.939532279968262,-3.7072901725769043,-0.9451279640197754,9.86286735534668,-6.882665634155273,165.90000915527344,-110.10000610351562,2.1000001430511475
109423,-8.947620391845703,12.996450424194336,-4.333545684814453,0.9451279640197754,6.029001712799072,-5.335400104522705,170.70001220703125,-98.10000610351562,5.700000286102295
109444,-9.657018661499023,14.733457565307617,-6.080123424530029,0.2743920087814331,-2.6600780487060547,-1.5091559886932373,187.5,-100.50000762939453,7.500000476837158
109464,-8.723915100097656,12.977310180664062,-4.5117926597595215,-0.9908599853515625,-9.199753761291504,1.2347639799118042,173.10000610351562,-102.9000015258789,10.5
109485,-7.553349494934082,12.683023452758789,-4.181019306182861,-1.7683039903640747,-11.699769973754883,5.0533857345581055,185.10000610351562,-95.70000457763672,2.1000001430511475
109505,-6.119002819061279,11.551337242126465,-3.570315361022949,-2.7286758422851562,-14.527531623840332,7.294253826141357,173.10000610351562,-100.50000762939453,-0.9000000357627869
109525,-4.645178318023682,10.243796348571777,-3.1133341789245605,-3.102154016494751,-16.646448135375977,8.292736053466797,177.90000915527344,-107.70000457763672,-2.1000001430511475
109586,-1.4391319751739502,6.459345817565918,-2.572613000869751,-3.208861827850342,-21.6464786529541,9.138777732849121,185.10000610351562,-122.10000610351562,-9.300000190734863
109607,0.14774131774902344,5.910848617553711,-1.5886677503585815,-3.2317278385162354,-23.68917465209961,9.74091625213623,180.3000030517578,-131.70001220703125,-9.300000190734863
109627,1.1645843982696533,5.809164524078369,-0.23207947611808777,-3.147886037826538,-23.079416275024414,10.007685661315918,168.3000030517578,-114.9000015258789,-23.700000762939453
109647,0.47014036774635315,5.074645042419434,-0.05801986902952194,-1.2500079870224,-20.259275436401367,9.237863540649414,163.5,-134.10000610351562,-14.100000381469727
109668,1.1879119873046875,6.471907138824463,-0.5132066607475281,1.013725996017456,-18.483348846435547,9.99244213104248,158.70001220703125,-134.10000610351562,-22.5
109689,1.6664263010025024,9.056482315063477,-0.2960807681083679,1.7759259939193726,-16.60833740234375,9.78664779663086,158.70001220703125,-136.5,-22.5
109709,1.511507272720337,9.76408576965332,-0.45399051904678345,1.2804960012435913,-13.666245460510254,7.515291690826416,144.3000030517578,-155.70001220703125,-21.30000114440918
109729,1.1813323497772217,9.09177303314209,-0.7883524298667908,1.2881180047988892,-11.105254173278809,5.4649739265441895,132.3000030517578,-158.10000610351562,-20.700000762939453
109753,0.1573116034269333,9.21140193939209,-1.61737859249115,2.2180018424987793,-8.727190017700195,4.222588062286377,137.10000610351562,-143.70001220703125,-23.700000762939453
109816,0.1543208807706833,8.176015853881836,-2.0558173656463623,2.8048958778381348,-6.219552040100098,-0.015243999660015106,139.5,-153.3000030517578,-24.30000114440918
109836,0.18422803282737732,8.1185941696167,-2.292681932449341,3.307947874069214,-4.397893905639648,-0.19817200303077698,129.90000915527344,-150.90000915527344,-25.500001907348633
109856,0.19738717377185822,8.629408836364746,-2.7149710655212402,3.5366079807281494,-2.896359920501709,-0.4039659798145294,129.90000915527344,-153.3000030517578,-21.900001525878906
109916,0.4605700969696045,9.116894721984863,-3.5428009033203125,3.6280720233917236,-0.800309956073761,-0.17530599236488342,122.70000457763672,-160.5,-20.100000381469727
109956,0.07416972517967224,8.82081413269043,-4.320984840393066,3.163130044937134,1.189031958580017,-0.7469559907913208,129.90000915527344,-150.90000915527344,-20.100000381469727
109994,0.24224790930747986,9.24609375,-4.42386531829834,2.782029867172241,1.600619912147522,0.4420759975910187,127.50000762939453,-153.3000030517578,-14.100000381469727
110058,0.14235801994800568,9.515856742858887,-3.7072901725769043,1.021347999572754,1.3795819282531738,0.7545779943466187,127.50000762939453,-143.70001220703125,-13.500000953674316
110118,0.20935003459453583,8.674867630004883,-2.9548263549804688,0.457319974899292,0.8460419774055481,-0.05335399881005287,139.5,-162.90000915527344,-18.900001525878906
110138,0.3546987771987915,9.223962783813477,-3.0624918937683105,0.8460419774055481,0.6631140112876892,-0.33536797761917114,129.90000915527344,-155.70001220703125,-15.90000057220459
110180,0.14654502272605896,8.691017150878906,-3.102567672729492,0.7012239694595337,0.8917739987373352,-0.5335400104522705,137.10000610351562,-158.10000610351562,-16.5
110440,0.08732887357473373,8.510976791381836,-3.434536933898926,-0.2896359860897064,-0.8612859845161438,-0.19054999947547913,132.3000030517578,-146.10000610351562,-14.700000762939453
110478,0.3194083571434021,8.858497619628906,-3.470425605773926,-0.41158798336982727,0.007621999830007553,-0.7240899801254272,115.50000762939453,-143.70001220703125,-15.300000190734863
110498,0.35110992193222046,8.783729553222656,-3.6056058406829834,-0.510673999786377,0.36585599184036255,-1.1356779336929321,122.70000457763672,-148.5,-6.900000095367432
110538,0.5443100929260254,8.832179069519043,-4.271338939666748,-1.1280559301376343,1.4024479389190674,-2.0655620098114014,129.90000915527344,-143.70001220703125,-11.100000381469727
110558,0.44083136320114136,7.505497932434082,-4.968175411224365,-0.5868939757347107,2.4695279598236084,-2.7210538387298584,125.10000610351562,-143.70001220703125,-15.90000057220459
110578,0.9163550138473511,8.064762115478516,-4.765405178070068,-0.342989981174469,1.067080020904541,-0.8155539631843567,141.90000915527344,-143.70001220703125,-20.100000381469727
110599,1.4839926958084106,8.45235824584961,-5.395249366760254,-0.6326259970664978,2.75154185295105,-1.7378159761428833,122.70000457763672,-148.5,-17.100000381469727
110619,1.6472856998443604,8.055789947509766,-5.919222831726074,0.4725639820098877,4.199721813201904,-2.8125178813934326,139.5,-141.3000030517578,-12.90000057220459
110661,2.0007882118225098,7.994180679321289,-5.734994888305664,1.1585439443588257,4.992409706115723,-4.237832069396973,139.5,-153.3000030517578,-9.300000190734863
110723,2.000190019607544,7.449870586395264,-3.4147982597351074,-3.3689239025115967,11.189095497131348,-5.083873748779297,149.10000610351562,-134.10000610351562,-11.100000381469727
110743,2.3004579544067383,7.957694053649902,-3.0774455070495605,-5.960403919219971,14.542776107788086,-6.105221748352051,134.70001220703125,-126.9000015258789,-8.700000762939453
110763,1.004281997680664,4.89400577545166,-2.0498359203338623,-7.96498966217041,18.727252960205078,-10.53360366821289,153.90000915527344,-148.5,-8.700000762939453
110783,-0.6890606880187988,1.8668042421340942,-2.181427478790283,-5.907049655914307,22.67544937133789,-10.221101760864258,144.3000030517578,-136.5,-10.5
110806,-0.5646469593048096,7.813541412353516,-1.8189527988433838,-5.739366054534912,19.6342716217041,-5.884183883666992,161.10000610351562,-138.90000915527344,-11.700000762939453
110827,-3.844862937927246,5.212815761566162,-2.137164831161499,-5.259180068969727,20.785194396972656,-10.861350059509277,161.10000610351562,-129.3000030517578,-8.100000381469727
110847,-3.5152862071990967,7.2925591468811035,-1.9846383333206177,-2.2713558673858643,14.847655296325684,-8.224138259887695,151.5,-129.3000030517578,-6.900000095367432
110867,-3.1737465858459473,9.634886741638184,0.07775858789682388,-1.0899460315704346,12.141845703125,-7.644865989685059,163.5,-134.10000610351562,-2.700000047683716
110887,-4.3622565269470215,10.830574989318848,-1.1556122303009033,0.9832379817962646,12.934534072875977,-6.402479648590088,161.10000610351562,-122.10000610351562,-1.5
110907,-5.783444404602051,13.844616889953613,-2.26875638961792,1.577754020690918,10.899459838867188,-3.506119966506958,163.5,-119.70000457763672,-4.5
110927,-5.734396457672119,15.2000093460083,-3.9597065448760986,1.3795819282531738,5.693634033203125,-2.591480016708374,161.10000610351562,-117.30000305175781,-6.300000190734863
110947,-5.172142505645752,15.457808494567871,-3.039762496948242,0.2591480016708374,-0.19817200303077698,-2.3018438816070557,161.10000610351562,-119.70000457763672,5.100000381469727
110967,-6.4461870193481445,15.619905471801758,-4.948436737060547,1.2500079870224,-1.699705958366394,-0.8993960022926331,163.5,-110.10000610351562,0.9000000357627869
110987,-6.38278341293335,16.718095779418945,-5.898287773132324,0.2972579896450043,-7.515291690826416,0.06859800219535828,170.70001220703125,-124.50000762939453,2.700000047683716
111008,-5.539402008056641,16.13550567626953,-3.872377634048462,-1.699705958366394,-13.452829360961914,0.3582339882850647,175.5,-117.30000305175781,-1.5
111028,-5.455063819885254,13.841028213500977,-2.9488449096679688,-2.7210538387298584,-14.314115524291992,1.9740979671478271,175.5,-124.50000762939453,-0.30000001192092896
111048,-4.825817584991455,11.721209526062012,-2.1533145904541016,-3.3308138847351074,-15.701319694519043,4.024415969848633,189.90000915527344,-122.10000610351562,0.30000001192092896
111068,-4.047035217285156,10.265329360961914,-1.1292939186096191,-2.75154185295105,-16.45589828491211,5.14484977722168,187.5,-124.50000762939453,-14.100000381469727
111088,-3.5571563243865967,9.179101943969727,-1.1711639165878296,-1.829279899597168,-15.89186954498291,5.167716026306152,182.70001220703125,-129.3000030517578,-9.300000190734863
111108,-2.7502613067626953,7.998965740203857,-1.0479464530944824,-0.8612859845161438,-16.814130783081055,4.740883827209473,170.70001220703125,-124.50000762939453,-12.300000190734863
111128,-1.9445627927780151,6.489851474761963,-0.9145606160163879,0.5868939757347107,-16.814130783081055,4.436003684997559,180.3000030517578,-138.90000915527344,-8.100000381469727
111148,-1.5832844972610474,5.612375736236572,-0.7171733975410461,1.882633924484253,-16.135772705078125,4.984787940979004,192.3000030517578,-124.50000762939453,-20.100000381469727
111168,-1.3195034265518188,5.809164524078369,-1.0850313901901245,2.637212038040161,-14.184541702270508,6.417723655700684,170.70001220703125,-138.90000915527344,-13.500000953674316
111189,-0.7428935766220093,6.3145952224731445,-1.4361412525177002,2.2484898567199707,-14.390336036682129,7.682975769042969,170.70001220703125,-136.5,-17.700000762939453
111209,-0.4988512396812439,7.169341564178467,-0.9749730229377747,2.042695999145508,-12.454347610473633,6.5244317054748535,141.90000915527344,-126.9000015258789,-18.900001525878906
111273,-0.0927121639251709,7.137042045593262,-2.26875638961792,3.399411916732788,-9.14639949798584,4.74850606918335,165.90000915527344,-138.90000915527344,-21.900001525878906
111322,0.5664414167404175,9.433911323547363,-3.320291519165039,3.765267848968506,-5.945159912109375,3.1402640342712402,158.70001220703125,-153.3000030517578,-19.5
111342,-0.12740445137023926,8.255569458007812,-4.4519782066345215,3.3155698776245117,-3.2850818634033203,-0.49542999267578125,158.70001220703125,-131.70001220703125,-18.900001525878906
111382,-0.43365365266799927,8.723915100097656,-5.3312482833862305,5.343021869659424,-4.024415969848633,2.6219680309295654,146.70001220703125,-155.70001220703125,-23.700000762939453
111405,-0.010766573250293732,9.29215145111084,-5.3611555099487305,3.9329519271850586,-1.9664759635925293,2.439039945602417,156.3000030517578,-160.5,-15.90000057220459
111425,0.2895011901855469,9.731785774230957,-5.065672874450684,2.8811159133911133,-1.0518360137939453,1.6692179441452026,153.90000915527344,-143.70001220703125,-17.100000381469727
111448,0.14056359231472015,8.812440872192383,-4.990904808044434,1.3109840154647827,0.7850660085678101,0.228659987449646,134.70001220703125,-141.3000030517578,-18.900001525878906
111469,0.06878644227981567,8.738868713378906,-5.2534894943237305,1.3186060190200806,1.7225719690322876,0.44969800114631653,129.90000915527344,-150.90000915527344,-12.90000057220459
111489,0.14475059509277344,9.1982421875,-4.968175411224365,1.1509219408035278,1.882633924484253,0.9527499675750732,134.70001220703125,-138.90000915527344,-18.900001525878906
111554,0.18422803282737732,8.971546173095703,-3.482388496398926,-0.8460419774055481,2.896359920501709,-0.09146399796009064,132.3000030517578,-146.10000610351562,-11.700000762939453
111574,-0.24224790930747986,8.737672805786133,-3.642690658569336,-0.5564059615135193,3.003067970275879,-0.8307979702949524,129.90000915527344,-148.5,-14.700000762939453
111594,-0.18781688809394836,8.472695350646973,-3.4231722354888916,0.015243999660015106,2.042695999145508,-0.8231759667396545,127.50000762939453,-148.5,-24.30000114440918
111616,-0.031103434041142464,8.819618225097656,-3.1970741748809814,-0.5259180068969727,1.4634239673614502,-0.007621999830007553,144.3000030517578,-150.90000915527344,-13.500000953674316
111636,-0.01973871886730194,8.769373893737793,-3.1312785148620605,-1.0289700031280518,1.5472660064697266,-0.36585599184036255,146.70001220703125,-148.5,-17.100000381469727
111656,-0.3971669375896454,8.198147773742676,-3.2832067012786865,-0.7850660085678101,1.3567159175872803,-0.7621999979019165,134.70001220703125,-155.70001220703125,-18.30000114440918
111676,-0.21712589263916016,8.183194160461426,-3.3842928409576416,-0.49542999267578125,0.7012239694595337,-0.2972579896450043,129.90000915527344,-136.5,-23.100000381469727
111736,-0.007775858510285616,9.70128059387207,-3.114530563354492,-1.0747020244598389,0.5868939757347107,0,141.90000915527344,-146.10000610351562,-14.700000762939453
111756,-0.30325847864151,9.300524711608887,-3.323282241821289,-1.067080020904541,0.5487840175628662,-0.7850660085678101,132.3000030517578,-153.3000030517578,-20.700000762939453
111776,-0.5855819582939148,8.517556190490723,-3.3190953731536865,-0.5792719721794128,0.342989981174469,-1.1280559301376343,141.90000915527344,-148.5,-11.700000762939453
111796,-0.6836774349212646,8.469704627990723,-3.4500887393951416,0.007621999830007553,0.038109999150037766,-0.19817200303077698,129.90000915527344,-148.5,-16.5
111816,-0.47313109040260315,9.243701934814453,-3.3932650089263916,0.12195199728012085,-0.2972579896450043,0.49542999267578125,129.90000915527344,-146.10000610351562,-14.100000381469727
111836,-0.26677176356315613,9.161157608032227,-3.326272964477539,-0.1448179930448532,-0.030487999320030212,0.007621999830007553,137.10000610351562,-141.3000030517578,-9.300000190734863
111858,-0.1896113157272339,8.835169792175293,-3.368143081665039,-0.12195199728012085,0.26677000522613525,-0.342989981174469,127.50000762939453,-148.5,-12.90000057220459
111878,-0.24404233694076538,8.195157051086426,-3.556558132171631,-0.04573199898004532,0.4878079891204834,-0.2134159952402115,129.90000915527344,-146.10000610351562,-14.100000381469727
111898,-0.09331030398607254,8.63778305053711,-3.3813021183013916,-0.09908600151538849,0.15243999660015106,0.7698220014572144,144.3000030517578,-148.5,-17.100000381469727
111918,0.1058713048696518,8.699989318847656,-3.3196935653686523,-0.18292799592018127,0.19817200303077698,0.5182960033416748,134.70001220703125,-146.10000610351562,-9.90000057220459
111982,0.48329952359199524,9.06007194519043,-3.767104387283325,-0.19054999947547913,0.41158798336982727,0.10670799762010574,115.50000762939453,-158.10000610351562,-8.700000762939453
112002,0.714780867099762,8.812440872192383,-3.618166923522949,-0.685979962348938,0.6250039935112,-0.8307979702949524,137.10000610351562,-148.5,-14.700000762939453
112022,0.6400129795074463,8.489442825317383,-4.196570873260498,-1.2271419763565063,1.7683039903640747,-1.3643379211425781,117.9000015258789,-141.3000030517578,-12.90000057220459
112045,0.5508896708488464,8.1066312789917,-5.008251190185547,-0.457319974899292,2.583858013153076,-1.5167779922485352,127.50000762939453,-148.5,-5.700000286102295
112106,1.2848111391067505,8.448769569396973,-6.3833818435668945,0,4.4436259269714355,-1.0899460315704346,146.70001220703125,-146.10000610351562,-17.100000381469727
112126,1.1699676513671875,7.7632975578308105,-6.287080764770508,1.189031958580017,4.870458126068115,-2.545747995376587,132.3000030517578,-150.90000915527344,-13.500000953674316
112146,1.3476160764694214,8.036648750305176,-5.600412845611572,1.1585439443588257,4.496979713439941,-2.591480016708374,122.70000457763672,-143.70001220703125,-11.700000762939453
112166,1.3320643901824951,7.940348148345947,-4.29047966003418,0.16768398880958557,6.2729058265686035,-3.3384358882904053,137.10000610351562,-141.3000030517578,-18.30000114440918
112189,1.411617398262024,8.19934368133545,-3.255094051361084,-2.3628199100494385,10.914703369140625,-4.78661584854126,153.90000915527344,-131.70001220703125,-16.5
112209,1.4959555864334106,7.843448638916016,-2.723942995071411,-3.7728898525238037,14.329360008239746,-6.547297954559326,144.3000030517578,-136.5,-14.700000762939453
112229,1.3888880014419556,7.750736713409424,-2.337542772293091,-4.504601955413818,16.494007110595703,-8.239381790161133,139.5,-134.10000610351562,-8.700000762939453
112249,1.3332606554031372,6.7500433921813965,-1.1514252424240112,-5.39637565612793,18.003164291381836,-11.067143440246582,146.70001220703125,-141.3000030517578,-8.100000381469727
112269,0.8996070027351379,5.017223358154297,-1.1849212646484375,-4.93143367767334,21.021474838256836,-13.308012008666992,151.5,-141.3000030517578,-8.700000762939453
112289,0.028710862621665,4.030885696411133,-1.524666428565979,-3.2698378562927246,23.10990333557129,-13.673867225646973,153.90000915527344,-122.10000610351562,-8.700000762939453
112312,-1.4475059509277344,4.641589641571045,-2.2699525356292725,-1.7987920045852661,23.45289421081543,-12.012271881103516,168.3000030517578,-117.30000305175781,-5.700000286102295
112332,-2.7263357639312744,7.07304048538208,-3.0152387619018555,-1.0518360137939453,20.769948959350586,-10.152503967285156,161.10000610351562,-119.70000457763672,0.30000001192092896
112352,-3.6857569217681885,10.457931518554688,-2.951237440109253,-1.0518360137939453,17.149499893188477,-9.39792537689209,158.70001220703125,-112.50000762939453,-6.900000095367432
112372,-4.761218070983887,12.474869728088379,-1.9601144790649414,-2.278977870941162,13.74246597290039,-10.609824180603027,170.70001220703125,-122.10000610351562,-2.700000047683716
112395,-5.992794513702393,10.885603904724121,-2.7520558834075928,-1.3033620119094849,12.06562614440918,-9.596097946166992,165.90000915527344,-114.9000015258789,4.5
112415,-7.318279266357422,12.467692375183105,-3.237149715423584,-0.20579399168491364,9.077801704406738,-5.160093784332275,173.10000610351562,-112.50000762939453,-3.9000000953674316
112435,-6.659125804901123,14.43319034576416,-3.9010884761810303,-0.1295740008354187,3.810999870300293,-1.4634239673614502,173.10000610351562,-107.70000457763672,-0.9000000357627869
112456,-6.3564653396606445,15.776021003723145,-3.7635154724121094,-0.3582339882850647,-0.9222619533538818,-0.3582339882850647,170.70001220703125,-107.70000457763672,3.9000000953674316
112476,-7.359550952911377,14.835740089416504,-4.483081340789795,-0.2439039945602417,-5.2058258056640625,-0.2591480016708374,173.10000610351562,-107.70000457763672,1.5
112519,-5.601608753204346,13.02456283569336,-2.7024099826812744,-1.2042759656906128,-16.829376220703125,4.53508996963501,168.3000030517578,-114.9000015258789,-5.700000286102295
112539,-4.681066989898682,11.360529899597168,-2.20894193649292,-1.3643379211425781,-15.983333587646484,6.806446075439453,182.70001220703125,-102.9000015258789,1.5
112560,-4.491455554962158,9.258056640625,-2.810673713684082,-0.9070180058479309,-14.984851837158203,8.010722160339355,182.70001220703125,-112.50000762939453,-8.100000381469727
112580,-3.422574043273926,8.447572708129883,-3.2802159786224365,-0.1448179930448532,-16.18912696838379,9.900978088378906,180.3000030517578,-112.50000762939453,-9.300000190734863
112621,-1.2555021047592163,6.943243503570557,-2.438628911972046,0.15243999660015106,-18.826339721679688,11.554951667785645,173.10000610351562,-122.10000610351562,-6.900000095367432
112645,-0.5377305150032043,7.406206130981445,-2.032489776611328,0.46494197845458984,-18.071762084960938,10.815617561340332,175.5,-138.90000915527344,-14.100000381469727
112665,-0.24942561984062195,7.099359035491943,-1.3697474002838135,0.10670799762010574,-17.141878128051758,9.085423469543457,158.70001220703125,-129.3000030517578,-9.300000190734863
112705,-0.821848452091217,5.618955135345459,-2.1622867584228516,0.6326259970664978,-12.416237831115723,4.885701656341553,144.3000030517578,-141.3000030517578,-21.900001525878906
112767,0.4300647974014282,7.254876136779785,-1.8506543636322021,1.6615959405899048,-8.887251853942871,3.353679895401001,129.90000915527344,-138.90000915527344,-21.900001525878906
112817,0.7757914066314697,8.107230186462402,-3.5254547595977783,2.949713945388794,-4.794238090515137,0.9603719711303711,134.70001220703125,-155.70001220703125,-22.5
112837,1.2650723457336426,9.4554443359375,-3.749758243560791,4.009171962738037,-4.916189670562744,1.5396440029144287,144.3000030517578,-155.70001220703125,-17.700000762939453
112877,0.5778061151504517,8.262746810913086,-3.8939106464385986,1.7759259939193726,-1.4558019638061523,-1.4329359531402588,139.5,-138.90000915527344,-12.300000190734863
112954,0.5514878034591675,8.76399040222168,-4.747460842132568,2.0579400062561035,0.007621999830007553,-0.8307979702949524,144.3000030517578,-138.90000915527344,-17.700000762939453
113060,0.5048326849937439,9.451855659484863,-3.6414945125579834,0.19817200303077698,2.3628199100494385,-0.06859800219535828,134.70001220703125,-143.70001220703125,-12.300000190734863
113080,0.2823234796524048,9.509875297546387,-3.469229221343994,0.49542999267578125,2.088428020477295,0.007621999830007553,139.5,-143.70001220703125,-18.30000114440918
113100,0.19798532128334045,9.345385551452637,-3.2389442920684814,0.4420759975910187,1.7149499654769897,0.16768398880958557,139.5,-143.70001220703125,-20.700000762939453
113120,0.07716044038534164,9.607970237731934,-3.0248091220855713,0.38109999895095825,1.471045970916748,0.5487840175628662,129.90000915527344,-143.70001220703125,-9.300000190734863
113140,-0.15073202550411224,9.528417587280273,-3.0989787578582764,0.23628199100494385,1.6920839548110962,0.2591480016708374,137.10000610351562,-146.10000610351562,-16.5
113163,-0.6232649683952332,9.209009170532227,-3.2293739318847656,0.2134159952402115,1.2118979692459106,-0.038109999150037766,141.90000915527344,-138.90000915527344,-12.90000057220459
113183,-1.1532196998596191,8.630006790161133,-3.314908266067505,0.28201398253440857,0.6250039935112,-0.09908600151538849,139.5,-134.10000610351562,-12.90000057220459
113246,-1.7980177402496338,7.044329643249512,-3.011051654815674,0.6936019659042358,-1.3414719104766846,0.10670799762010574,139.5,-146.10000610351562,-14.100000381469727
113266,-1.9026927947998047,7.527030944824219,-3.1767373085021973,0.5640279650688171,-1.0975680351257324,1.4100699424743652,134.70001220703125,-148.5,-11.700000762939453
113286,-1.812373161315918,8.553444862365723,-3.3944613933563232,0.6936019659042358,-1.2500079870224,1.2576299905776978,144.3000030517578,-150.90000915527344,-5.700000286102295
113306,-1.4959555864334106,8.459535598754883,-3.1468300819396973,0.5182960033416748,-1.3872039318084717,0.49542999267578125,153.90000915527344,-146.10000610351562,-12.90000057220459
113326,-1.7118852138519287,8.443984031677246,-3.3095250129699707,0.04573199898004532,-0.739333987236023,0.06859800219535828,151.5,-148.5,-18.30000114440918
113346,-1.8685986995697021,8.1664457321167,-3.46384596824646,0.15243999660015106,-0.4192099869251251,-0.48018598556518555,141.90000915527344,-141.3000030517578,-12.90000057220459
113366,-1.9296091794967651,8.53609848022461,-3.4387240409851074,0.05335399881005287,-0.2743920087814331,-0.457319974899292,139.5,-148.5,-10.5
113386,-2.0259101390838623,8.57677173614502,-3.3729281425476074,-0.5335400104522705,0.07621999830007553,-0.4725639820098877,149.10000610351562,-141.3000030517578,-10.5
113406,-1.9977974891662598,8.409292221069336,-3.3824985027313232,-0.967993974685669,0.9527499675750732,-0.3887220025062561,139.5,-150.90000915527344,-15.90000057220459
113430,-1.3817102909088135,9.716832160949707,-3.582876443862915,-0.7240899801254272,1.471045970916748,0.05335399881005287,144.3000030517578,-148.5,-13.500000953674316
113450,-1.2052581310272217,9.692906379699707,-3.7724876403808594,-0.8689079880714417,1.8369019031524658,-1.0899460315704346,134.70001220703125,-143.70001220703125,-6.300000190734863
113470,-0.41271865367889404,10.14749526977539,-3.63910174369812,-0.3734779953956604,1.600619912147522,-0.739333987236023,137.10000610351562,-158.10000610351562,-11.700000762939453
113490,-0.17764846980571747,9.819114685058594,-3.4883697032928467,-0.853663980960846,1.882633924484253,-1.1128119230270386,139.5,-138.90000915527344,-17.100000381469727
113530,0.2703606188297272,9.393237113952637,-3.7336084842681885,-0.9222619533538818,2.28659987449646,-0.9222619533538818,132.3000030517578,-138.90000915527344,-14.100000381469727
113550,0.362474650144577,8.65153980255127,-3.9327900409698486,-0.7469559907913208,2.225623846054077,-0.9832379817962646,146.70001220703125,-141.3000030517578,-14.700000762939453
113570,0.5269639492034912,9.162354469299316,-4.24262809753418,0.04573199898004532,1.699705958366394,-0.08384199440479279,146.70001220703125,-141.3000030517578,-14.100000381469727
113592,0.40853163599967957,9.397424697875977,-4.3383307456970215,0.5792719721794128,0.5945159792900085,0.19817200303077698,146.70001220703125,-148.5,-11.100000381469727
113613,-0.06818830221891403,8.492433547973633,-4.104456901550293,0.41158798336982727,0.10670799762010574,0,146.70001220703125,-148.5,-15.90000057220459
113673,-0.04665515199303627,8.058780670166016,-3.8855366706848145,-0.5640279650688171,-0.685979962348938,1.4405579566955566,153.90000915527344,-143.70001220703125,-13.500000953674316
113719,1.2064543962478638,9.08878231048584,-3.317301034927368,-0.7469559907913208,-0.6707359552383423,1.3567159175872803,134.70001220703125,-141.3000030517578,-17.700000762939453
113739,1.3201014995574951,8.443984031677246,-3.1635782718658447,-1.4024479389190674,-0.04573199898004532,0.02286599949002266,125.10000610351562,-141.3000030517578,-12.300000190734863
113759,1.1436493396759033,8.492433547973633,-3.3496005535125732,-1.577754020690918,0.9527499675750732,-0.8231759667396545,132.3000030517578,-150.90000915527344,-10.5
113779,0.7841654419898987,8.543275833129883,-4.136756896972656,-1.8369019031524658,2.088428020477295,-1.8369019031524658,137.10000610351562,-146.10000610351562,-11.700000762939453
113799,0.19918161630630493,8.4356107711792,-5.121898174285889,-1.0594580173492432,3.155508041381836,-3.163130044937134,144.3000030517578,-143.70001220703125,-12.90000057220459
113822,-0.7811747193336487,7.429533958435059,-6.959991455078125,0.46494197845458984,3.8414878845214844,-3.5823400020599365,146.70001220703125,-138.90000915527344,-13.500000953674316
113842,-0.1411617398262024,8.141921997070312,-7.3254570960998535,0.6631140112876892,3.757645845413208,-2.690565824508667,141.90000915527344,-131.70001220703125,-10.5
113862,0.6585553884506226,8.42065715789795,-8.063565254211426,2.4771499633789062,5.823207855224609,-2.583858013153076,134.70001220703125,-141.3000030517578,-12.300000190734863
113885,1.6311359405517578,8.917713165283203,-7.531816482543945,2.949713945388794,4.253076076507568,-2.5686140060424805,146.70001220703125,-158.10000610351562,-11.700000762939453
113905,2.3387389183044434,8.847132682800293,-5.703891277313232,1.6768399477005005,5.495461940765381,-3.803377866744995,144.3000030517578,-141.3000030517578,-10.5
113926,2.7670094966888428,7.752531051635742,-4.190589427947998,0.07621999830007553,8.422309875488281,-5.5030837059021,144.3000030517578,-141.3000030517578,-11.700000762939453
113946,2.182025671005249,6.488655090332031,-3.2054481506347656,-1.6692179441452026,12.698251724243164,-6.897909641265869,151.5,-122.10000610351562,-12.90000057220459
113970,0.9384863376617432,4.665514945983887,-3.5344269275665283,-2.0579400062561035,17.416269302368164,-9.542743682861328,144.3000030517578,-112.50000762939453,-7.500000476837158
113991,1.3165127038955688,4.107447624206543,-1.4977500438690186,-2.8734939098358154,16.760778427124023,-10.144882202148438,170.70001220703125,-131.70001220703125,-8.700000762939453
114012,0.25122004747390747,3.758132219314575,-1.2495206594467163,-2.797273874282837,21.99709129333496,-10.518360137939453,165.90000915527344,-122.10000610351562,-2.700000047683716
114032,-1.2202116250991821,5.829501628875732,-2.7592334747314453,-2.3475759029388428,25.769981384277344,-9.916221618652344,158.70001220703125,-117.30000305175781,0.9000000357627869
114077,-4.30543327331543,6.2374348640441895,-3.3579745292663574,-1.3795819282531738,21.1434268951416,-12.812582015991211,170.70001220703125,-117.30000305175781,-2.700000047683716
114097,-4.660729885101318,7.924198150634766,-2.6515676975250244,-0.8079319596290588,17.088523864746094,-9.74091625213623,168.3000030517578,-114.9000015258789,-0.30000001192092896
114117,-3.6618313789367676,12.337296485900879,-2.6629323959350586,-1.9054999351501465,14.702837944030762,-7.492425918579102,163.5,-102.9000015258789,8.100000381469727
114137,-4.297059059143066,12.486832618713379,-3.1318767070770264,-1.371959924697876,13.635757446289062,-7.644865989685059,165.90000915527344,-95.70000457763672,11.100000381469727
114159,-6.340913772583008,13.829663276672363,-4.90297794342041,0.6402480006217957,9.474145889282227,-5.365887641906738,151.5,-105.30000305175781,3.9000000953674316
114179,-6.404914855957031,14.841721534729004,-5.928792953491211,0.3582339882850647,4.268320083618164,-3.5823400020599365,168.3000030517578,-95.70000457763672,10.5
114199,-7.485161304473877,14.896750450134277,-6.037056922912598,0.7317119836807251,-0.9222619533538818,-2.843005895614624,175.5,-90.9000015258789,9.90000057220459
114222,-8.120388984680176,14.838132858276367,-7.139434337615967,0.12195199728012085,-5.807963848114014,-1.6387299299240112,170.70001220703125,-95.70000457763672,5.700000286102295
114242,-7.248296737670898,13.682520866394043,-5.234349250793457,-1.9131219387054443,-12.888801574707031,0.1448179930448532,175.5,-107.70000457763672,3.3000001907348633
114263,-6.357661724090576,12.355240821838379,-3.8053855895996094,-3.346057891845703,-14.321737289428711,2.995445966720581,185.10000610351562,-95.70000457763672,1.5
114284,-6.522150993347168,10.040428161621094,-3.591250419616699,-3.9405739307403564,-14.336981773376465,4.78661584854126,175.5,-98.10000610351562,2.700000047683716
114304,-5.540598392486572,7.326653480529785,-3.7844505310058594,-2.3551979064941406,-17.68303871154785,8.864385604858398,177.90000915527344,-107.70000457763672,-0.9000000357627869
114324,-4.52255916595459,7.305718421936035,-3.2054481506347656,-1.9893419742584229,-19.31414794921875,10.259211540222168,189.90000915527344,-112.50000762939453,-5.100000381469727
114344,-2.986527919769287,6.524543762207031,-2.304644823074341,-1.5853760242462158,-20.480314254760742,11.364401817321777,175.5,-110.10000610351562,-5.100000381469727
114367,-1.6921464204788208,5.488559722900391,-1.9236278533935547,-0.15243999660015106,-19.253171920776367,11.829343795776367,180.3000030517578,-117.30000305175781,-5.700000286102295
114387,-1.2889981269836426,5.831295967102051,-2.2161197662353516,0.9375059604644775,-17.904077529907227,11.509220123291016,185.10000610351562,-129.3000030517578,-3.3000001907348633
114411,-0.5443100929260254,6.891205310821533,-1.8691967725753784,1.6234859228134155,-17.050413131713867,10.716531753540039,177.90000915527344,-129.3000030517578,-12.300000190734863
114431,0.25241634249687195,8.015115737915039,-1.9780588150024414,2.073184013366699,-13.49094009399414,8.399443626403809,165.90000915527344,-131.70001220703125,-13.500000953674316
114452,0.43484994769096375,8.177212715148926,-2.1479313373565674,1.806414008140564,-12.507701873779297,7.972611904144287,158.70001220703125,-134.10000610351562,-11.100000381469727
114473,0.4533923864364624,8.060574531555176,-2.4876766204833984,1.935987949371338,-9.77902603149414,6.158576011657715,149.10000610351562,-141.3000030517578,-12.300000190734863
114493,0.4605700969696045,7.8051676750183105,-2.712578296661377,1.981719970703125,-7.995477676391602,5.533571720123291,146.70001220703125,-143.70001220703125,-11.100000381469727
114513,0.5801987051963806,8.700587272644043,-3.0086591243743896,1.3872039318084717,-6.143332004547119,5.3582658767700195,146.70001220703125,-155.70001220703125,-21.30000114440918
114536,-0.05801986902952194,7.854813575744629,-4.0045671463012695,0.5182960033416748,-4.413137912750244,1.8521459102630615,132.3000030517578,-150.90000915527344,-11.100000381469727
114556,0.16987259685993195,7.124480724334717,-4.151112079620361,1.4939119815826416,-4.6951518058776855,1.5701320171356201,141.90000915527344,-150.90000915527344,-13.500000953674316
114578,0.4486072361469269,6.7500433921813965,-4.159486293792725,1.4481799602508545,-4.2911858558654785,1.7835479974746704,139.5,-143.70001220703125,-13.500000953674316
114599,0.91874760389328,8.1305570602417,-4.159486293792725,1.8978779315948486,-4.618931770324707,3.1173980236053467,137.10000610351562,-148.5,-16.5
114620,0.8350076079368591,8.062369346618652,-3.829909563064575,0.8765299916267395,-3.452765941619873,1.7759259939193726,144.3000030517578,-150.90000915527344,-17.100000381469727
114641,0.6005355715751648,7.558732509613037,-4.428650379180908,1.021347999572754,-1.981719970703125,0.9908599853515625,139.5,-138.90000915527344,-10.5
114661,0.6860699653625488,7.827897071838379,-5.083018779754639,2.7058098316192627,-1.7835479974746704,1.417691946029663,149.10000610351562,-136.5,-10.5
114681,1.193893313407898,8.528322219848633,-4.30842399597168,2.9649579524993896,-2.2103798389434814,2.0579400062561035,129.90000915527344,-138.90000915527344,-13.500000953674316
114704,1.3404383659362793,9.203027725219727,-4.253394603729248,1.14329993724823,0.18292799592018127,1.0975680351257324,129.90000915527344,-138.90000915527344,-11.100000381469727
114724,1.1950896978378296,9.182092666625977,-4.403528690338135,0.9298839569091797,0.853663980960846,0.44969800114631653,141.90000915527344,-134.10000610351562,-10.5
114745,0.7961282730102539,9.16355037689209,-4.502222061157227,1.1051899194717407,1.2881180047988892,-0.5792719721794128,134.70001220703125,-148.5,-17.100000381469727
114765,0.6818829774856567,9.273608207702637,-4.30842399597168,0.9908599853515625,1.0747020244598389,-0.6402480006217957,137.10000610351562,-153.3000030517578,-15.90000057220459
114785,0.4886828064918518,9.429125785827637,-4.26057243347168,0.5487840175628662,1.067080020904541,-0.6097599864006042,129.90000915527344,-153.3000030517578,-11.100000381469727
114805,0.10646945238113403,8.851319313049316,-4.251002311706543,0.19817200303077698,0.853663980960846,-0.7926880121231079,134.70001220703125,-136.5,-15.90000057220459
114826,-0.03648672252893448,8.73827075958252,-4.28449821472168,0.28201398253440857,0.35061198472976685,-0.19054999947547913,125.10000610351562,-143.70001220703125,-6.900000095367432
114846,0.11125459522008896,8.95539665222168,-4.0045671463012695,0.114329993724823,-0.030487999320030212,0.1448179930448532,139.5,-148.5,-6.900000095367432
114866,0.07536601275205612,8.906947135925293,-3.71985125541687,-0.5487840175628662,0.2439039945602417,-0.228659987449646,132.3000030517578,-136.5,-8.700000762939453
114890,-0.27454763650894165,8.703577995300293,-3.886733055114746,-0.853663980960846,0.8384199738502502,-0.6097599864006042,132.3000030517578,-143.70001220703125,-9.90000057220459
114911,-0.5819931030273438,8.42663860321045,-3.8490500450134277,-0.8689079880714417,0.5487840175628662,-0.5564059615135193,115.50000762939453,-150.90000915527344,-12.90000057220459
114932,-0.33914706110954285,8.557631492614746,-3.475210666656494,-0.7926880121231079,0.12195199728012085,-0.06859800219535828,127.50000762939453,-148.5,-14.100000381469727
114952,-0.1722651720046997,8.840553283691406,-3.3304600715637207,-0.7621999979019165,0.35061198472976685,-0.2134159952402115,125.10000610351562,-153.3000030517578,-17.100000381469727
114972,-0.12680630385875702,8.861488342285156,-3.2383460998535156,-0.6326259970664978,0.3125019967556,-0.36585599184036255,132.3000030517578,-138.90000915527344,-11.100000381469727
114992,-0.11484345048666,8.78791618347168,-3.0894083976745605,-0.6554920077323914,0.2439039945602417,-0.39634400606155396,141.90000915527344,-158.10000610351562,-11.700000762939453
115014,-0.3223990499973297,8.537294387817383,-3.2706458568573,-0.5335400104522705,0.853663980960846,-0.36585599184036255,141.90000915527344,-150.90000915527344,-12.300000190734863
115034,-0.2793327569961548,8.74305534362793,-3.428555488586426,0.22103799879550934,0.6631140112876892,-0.46494197845458984,129.90000915527344,-150.90000915527344,-12.90000057220459
115054,-0.24942561984062195,8.880030632019043,-3.45786452293396,0.28201398253440857,0.4420759975910187,-0.3582339882850647,134.70001220703125,-150.90000915527344,-8.100000381469727
115074,-0.20875190198421478,8.484060287475586,-3.64209246635437,-0.25152599811553955,0.3125019967556,-0.4039659798145294,137.10000610351562,-150.90000915527344,-10.5
115096,-0.08254373073577881,8.399123191833496,-3.8251242637634277,0.038109999150037766,0.12195199728012085,-0.09908600151538849,132.3000030517578,-150.90000915527344,-3.9000000953674316
115117,0.1692744642496109,8.79389762878418,-3.859816551208496,0.38109999895095825,-0.23628199100494385,-0.05335399881005287,125.10000610351562,-136.5,-12.300000190734863
115137,0.34393221139907837,8.92548942565918,-3.9537250995635986,0.23628199100494385,-0.20579399168491364,-0.3734779953956604,134.70001220703125,-138.90000915527344,-14.700000762939453
115157,0.49944937229156494,8.847132682800293,-4.003370761871338,-0.09908600151538849,-0.07621999830007553,-0.8384199738502502,129.90000915527344,-153.3000030517578,-11.100000381469727
115177,0.5712265372276306,8.487648963928223,-4.127186298370361,-0.510673999786377,0.20579399168491364,-1.2271419763565063,146.70001220703125,-155.70001220703125,-11.700000762939453
115217,0.818857729434967,9.017603874206543,-4.175636291503906,-1.2195199728012085,0.7240899801254272,-1.021347999572754,132.3000030517578,-138.90000915527344,-10.5
115280,0.4827013909816742,8.87165641784668,-4.876659870147705,-2.1036720275878906,2.538125991821289,-2.5000159740448,132.3000030517578,-141.3000030517578,-13.500000953674316
115320,0.2679680585861206,7.887113094329834,-5.3790998458862305,-1.371959924697876,3.2241058349609375,-2.7058098316192627,156.3000030517578,-138.90000915527344,-11.700000762939453
115340,0.02930900640785694,7.707670211791992,-6.135152339935303,-0.8612859845161438,4.649419784545898,-2.957335948944092,144.3000030517578,-126.9000015258789,-12.300000190734863
115363,-0.7680155634880066,7.274016857147217,-6.5173659324646,0.510673999786377,4.39027214050293,-3.612828016281128,146.70001220703125,-138.90000915527344,-12.300000190734863
115407,-0.30684733390808105,7.037152290344238,-4.26655387878418,1.242385983467102,3.6356940269470215,-3.7424018383026123,153.90000915527344,-143.70001220703125,-5.100000381469727
115427,-0.1955927461385727,6.675873756408691,-3.49076247215271,0.4878079891204834,6.074733734130859,-4.817103862762451,149.10000610351562,-134.10000610351562,-10.5
115447,0.28351977467536926,6.727313995361328,-2.8872361183166504,-0.015243999660015106,8.269869804382324,-5.7164998054504395,144.3000030517578,-134.10000610351562,-13.500000953674316
115467,0.9899266362190247,6.388166904449463,-2.1658756732940674,-0.8307979702949524,10.861350059509277,-7.385717868804932,168.3000030517578,-126.9000015258789,-1.5
115490,1.23995041847229,5.946139335632324,-1.6209675073623657,-2.278977870941162,15.861381530761719,-9.123534202575684,163.5,-122.10000610351562,-2.700000047683716
115510,0.3307730555534363,5.156590461730957,-1.7250443696975708,-2.9725799560546875,19.6342716217041,-11.234827995300293,165.90000915527344,-129.3000030517578,-9.90000057220459
115530,-0.5299546718597412,5.8229217529296875,-3.0870158672332764,-2.3475759029388428,21.577880859375,-11.158607482910156,170.70001220703125,-122.10000610351562,0.30000001192092896
115551,-1.9684885740280151,6.658527374267578,-2.6820731163024902,-2.3094658851623535,19.954395294189453,-11.867453575134277,175.5,-117.30000305175781,0.9000000357627869
115571,-3.1904945373535156,7.128069877624512,-3.180326223373413,-1.653973937034607,20.091590881347656,-12.492457389831543,168.3000030517578,-110.10000610351562,0.9000000357627869
115592,-4.435230255126953,9.127063751220703,-3.7778708934783936,-0.8917739987373352,18.483348846435547,-11.646415710449219,170.70001220703125,-105.30000305175781,2.1000001430511475
115612,-5.023802757263184,11.230731964111328,-4.42685604095459,-1.3262280225753784,16.745532989501953,-10.655555725097656,175.5,-100.50000762939453,0.9000000357627869
115633,-5.5370097160339355,13.080788612365723,-4.51657772064209,-3.4756319522857666,13.772953987121582,-8.498529434204102,180.3000030517578,-93.30000305175781,4.5
115653,-5.705685615539551,14.450535774230957,-4.844359874725342,-5.625035762786865,10.24396800994873,-5.777475833892822,168.3000030517578,-95.70000457763672,7.500000476837158
115673,-6.2733235359191895,14.644932746887207,-4.0344743728637695,-6.654006004333496,4.725639820098877,-4.054903984069824,182.70001220703125,-83.70000457763672,11.700000762939453
115696,-7.3134942054748535,14.59947395324707,-4.017127990722656,-5.655523777008057,-0.1448179930448532,-2.644834041595459,187.5,-95.70000457763672,2.700000047683716
115757,-7.125677108764648,12.819998741149902,-1.5683308839797974,-1.6768399477005005,-14.96198558807373,0.7012239694595337,194.70001220703125,-98.10000610351562,1.5
115777,-6.019112586975098,12.086076736450195,-1.7794753313064575,-0.5411620140075684,-16.45589828491211,3.506119966506958,187.5,-105.30000305175781,-4.5
115797,-5.251097202301025,10.163046836853027,-0.5317491292953491,-0.41158798336982727,-17.774503707885742,5.182960033416748,187.5,-100.50000762939453,-6.900000095367432
115817,-5.05430793762207,8.158670425415039,-1.1167329549789429,0.6402480006217957,-16.70742416381836,7.492425918579102,199.50001525878906,-107.70000457763672,-16.5
115904,-1.7824660539627075,6.979132175445557,-1.2794277667999268,2.4237959384918213,-16.219615936279297,10.099149703979492,182.70001220703125,-124.50000762939453,-17.100000381469727
115934,-1.1592010259628296,6.942047119140625,-1.7501662969589233,2.4542839527130127,-13.940637588500977,8.902495384216309,168.3000030517578,-143.70001220703125,-17.700000762939453
115958,-0.13218960165977478,8.50320053100586,-2.5092098712921143,2.8811159133911133,-11.38726806640625,7.149435997009277,173.10000610351562,-136.5,-23.100000381469727
116018,0.015551717020571232,6.61486291885376,-2.888432502746582,3.4680099487304688,-6.760714054107666,3.041177988052368,158.70001220703125,-126.9000015258789,-10.5
116056,-0.10527316480875015,6.7201361656188965,-4.5931396484375,4.57319974899292,-3.361301898956299,2.4771499633789062,146.70001220703125,-150.90000915527344,-24.30000114440918
116078,0.19977974891662598,8.345291137695312,-4.608691692352295,4.344540119171143,-3.6433160305023193,2.4085519313812256,146.70001220703125,-143.70001220703125,-18.900001525878906
116118,0.27155691385269165,7.839262008666992,-4.832396984100342,3.155508041381836,-0.967993974685669,0.6478700041770935,144.3000030517578,-138.90000915527344,-18.900001525878906
116140,-0.10407687723636627,7.440300464630127,-5.3761091232299805,2.957335948944092,0.7317119836807251,0.038109999150037766,163.5,-134.10000610351562,-18.900001525878906
116161,0.11005830764770508,8.244802474975586,-5.447885990142822,3.102154016494751,0.2134159952402115,0.8993960022926331,151.5,-148.5,-15.90000057220459
116181,0.3086417615413666,9.085193634033203,-4.90596866607666,2.3704419136047363,0.426831990480423,0.6707359552383423,153.90000915527344,-143.70001220703125,-18.30000114440918
116202,0.2924919128417969,9.132447242736816,-4.932286739349365,1.2042759656906128,1.4481799602508545,-0.05335399881005287,153.90000915527344,-138.90000915527344,-19.5
116222,-0.18303175270557404,8.662306785583496,-4.952025890350342,0.853663980960846,1.6234859228134155,-0.457319974899292,153.90000915527344,-143.70001220703125,-11.700000762939453
116246,-0.3828114867210388,8.988892555236816,-5.047130584716797,1.5472660064697266,1.1204339265823364,0.20579399168491364,146.70001220703125,-134.10000610351562,-12.300000190734863
116266,-0.34811919927597046,8.95838737487793,-4.801293849945068,1.2652519941329956,0.7240899801254272,0.4420759975910187,151.5,-138.90000915527344,-5.700000286102295
116286,-0.2883049249649048,9.200634956359863,-4.702002048492432,0.6783579587936401,0.7088459730148315,0.8155539631843567,149.10000610351562,-141.3000030517578,-9.300000190734863
116306,-0.36606350541114807,8.97812557220459,-4.588953018188477,0.22103799879550934,0.7621999979019165,0.5487840175628662,149.10000610351562,-146.10000610351562,-17.100000381469727
116327,-0.30983805656433105,8.616249084472656,-4.31141471862793,-0.19817200303077698,0.4420759975910187,0.49542999267578125,151.5,-146.10000610351562,-12.300000190734863
116348,-0.2679680585861206,8.307607650756836,-3.920228958129883,-0.510673999786377,0.12195199728012085,0.5564059615135193,134.70001220703125,-134.10000610351562,-14.700000762939453
116368,-0.31282877922058105,8.54387378692627,-3.6923365592956543,-0.5792719721794128,-0.10670799762010574,0.6021379828453064,149.10000610351562,-146.10000610351562,-14.100000381469727
116410,-0.4838976562023163,8.465517044067383,-3.1815223693847656,-0.9375059604644775,-0.46494197845458984,-0.35061198472976685,139.5,-141.3000030517578,-13.500000953674316
116430,-0.47731807827949524,8.119791030883789,-2.977555751800537,-0.9908599853515625,-0.015243999660015106,-0.12195199728012085,141.90000915527344,-141.3000030517578,-12.300000190734863
116453,-0.5114122629165649,8.73827075958252,-3.231168270111084,-0.5030519962310791,0.33536797761917114,0.5868939757347107,149.10000610351562,-146.10000610351562,-7.500000476837158
116473,-0.6005355715751648,9.05708122253418,-3.246121883392334,-0.17530599236488342,0.08384199440479279,0.685979962348938,146.70001220703125,-138.90000915527344,-15.90000057220459
116493,-0.5610581040382385,9.294543266296387,-3.088212251663208,-0.2439039945602417,-0.030487999320030212,0.6783579587936401,139.5,-134.10000610351562,-13.500000953674316
116513,-0.614890992641449,8.83995532989502,-3.099576950073242,-0.5564059615135193,0.33536797761917114,0.33536797761917114,144.3000030517578,-153.3000030517578,-12.300000190734863
116533,-0.6424055695533752,8.80406665802002,-3.350796937942505,-0.22103799879550934,0.3125019967556,0.6783579587936401,149.10000610351562,-148.5,-14.700000762939453
116553,-0.602928102016449,8.912928581237793,-3.4177889823913574,-0.030487999320030212,0.05335399881005287,0.7012239694595337,141.90000915527344,-143.70001220703125,-8.100000381469727
116576,-0.509019672870636,9.304712295532227,-3.347208023071289,-0.3887220025062561,0.030487999320030212,0.6021379828453064,137.10000610351562,-146.10000610351562,-9.90000057220459
116596,-0.5239732265472412,8.88182544708252,-3.377713441848755,-0.7012239694595337,0.39634400606155396,-0.02286599949002266,139.5,-136.5,-15.90000057220459
116617,-0.5598618388175964,8.524733543395996,-3.3466098308563232,-0.7317119836807251,0.5868939757347107,-0.060975998640060425,146.70001220703125,-143.70001220703125,-15.300000190734863
116638,-0.6436018347740173,8.362038612365723,-3.538015604019165,-0.7012239694595337,0.7317119836807251,-0.16768398880958557,127.50000762939453,-141.3000030517578,-9.90000057220459
116658,-0.4976549446582794,8.505593299865723,-3.5128936767578125,-0.26677000522613525,0.5335400104522705,-0.18292799592018127,153.90000915527344,-138.90000915527344,-15.90000057220459
116678,-0.2942863404750824,8.71733570098877,-3.541604518890381,-0.3125019967556,0.5259180068969727,-0.3277460038661957,141.90000915527344,-134.10000610351562,-11.100000381469727
116702,-0.052636582404375076,8.495424270629883,-3.675588607788086,-0.5792719721794128,0.5868939757347107,-0.44969800114631653,132.3000030517578,-146.10000610351562,-12.300000190734863
116726,0.0957028716802597,8.315383911132812,-3.9040791988372803,-0.5182960033416748,0.5945159792900085,-0.19054999947547913,129.90000915527344,-134.10000610351562,-15.300000190734863
116746,0.36008206009864807,8.71733570098877,-4.027296543121338,-0.4344539940357208,0.571649968624115,-0.28201398253440857,139.5,-134.10000610351562,-16.5
116766,0.5664414167404175,8.503798484802246,-4.3532843589782715,-0.8993960022926331,1.013725996017456,-0.7545779943466187,127.50000762939453,-148.5,-18.900001525878906
116786,0.8912330269813538,8.696998596191406,-4.744470119476318,-0.4420759975910187,1.2118979692459106,-0.9603719711303711,151.5,-141.3000030517578,-13.500000953674316
116806,0.8254373073577881,8.140726089477539,-5.038756370544434,-0.510673999786377,1.829279899597168,-1.5853760242462158,151.5,-143.70001220703125,-10.5
116827,0.4204944968223572,7.116106986999512,-5.518466949462891,-0.7545779943466187,2.5076379776000977,-1.6692179441452026,144.3000030517578,-150.90000915527344,-17.100000381469727
116850,0.01973871886730194,7.146612167358398,-6.91572904586792,0.3582339882850647,4.1921000480651855,-0.9451279640197754,144.3000030517578,-134.10000610351562,-11.100000381469727
116871,-0.08553444594144821,7.234539031982422,-7.945133209228516,2.3094658851623535,3.2774598598480225,-0.10670799762010574,120.30000305175781,-136.5,-7.500000476837158
116892,0.8607277274131775,8.670680046081543,-5.604599475860596,2.4619059562683105,-0.26677000522613525,0.8993960022926331,134.70001220703125,-141.3000030517578,-10.5
116912,1.3015590906143188,9.119287490844727,-4.8718743324279785,1.8445239067077637,0.7850660085678101,0.3734779953956604,139.5,-141.3000030517578,-6.900000095367432
116932,1.9654978513717651,8.751429557800293,-3.240140438079834,-1.0289700031280518,7.530535697937012,-4.57319974899292,137.10000610351562,-138.90000915527344,-6.300000190734863
116954,1.714277744293213,7.481572151184082,-2.7741870880126953,-2.5000159740448,11.509220123291016,-6.836933612823486,151.5,-131.70001220703125,-8.700000762939453
116974,0.8780738711357117,6.682453155517578,-2.46494722366333,-3.1402640342712402,14.725703239440918,-8.513773918151855,144.3000030517578,-131.70001220703125,-7.500000476837158
116997,0.6071150898933411,5.447885990142822,-1.918244481086731,-3.658559799194336,16.654069900512695,-9.931466102600098,156.3000030517578,-129.3000030517578,-2.700000047683716
117017,-0.025122005492448807,5.343809127807617,-2.121613025665283,-2.492393970489502,19.47420883178711,-10.975679397583008,153.90000915527344,-131.70001220703125,-12.300000190734863
117040,-1.8626172542572021,5.368333339691162,-3.4291536808013916,-0.6021379828453064,20.548912048339844,-12.804959297180176,153.90000915527344,-124.50000762939453,-2.1000001430511475
117060,-1.2830166816711426,6.927093982696533,-3.2114295959472656,-0.39634400606155396,16.394922256469727,-11.46348762512207,175.5,-126.9000015258789,-8.100000381469727
117080,-2.6922414302825928,8.037246704101562,-2.6067070960998535,-1.935987949371338,16.570228576660156,-11.798855781555176,177.90000915527344,-112.50000762939453,-2.700000047683716
117100,-3.547585964202881,9.098352432250977,-3.1605875492095947,-2.042695999145508,16.242481231689453,-11.021411895751953,165.90000915527344,-122.10000610351562,3.9000000953674316
117121,-3.2921788692474365,11.722406387329102,-2.1921939849853516,-4.00154972076416,10.343053817749023,-9.14639949798584,180.3000030517578,-105.30000305175781,-3.3000001907348633
117141,-4.009352207183838,11.768463134765625,-2.0049753189086914,-3.75002384185791,10.579336166381836,-8.147917747497559,180.3000030517578,-100.50000762939453,-5.100000381469727
117163,-6.200948238372803,12.743435859680176,-3.9250142574310303,-1.9207439422607422,8.689080238342285,-5.792719841003418,192.3000030517578,-107.70000457763672,0.9000000357627869
117183,-6.639387130737305,13.723194122314453,-4.045838832855225,-1.8978779315948486,2.0960500240325928,-3.864353895187378,182.70001220703125,-105.30000305175781,2.700000047683716
117207,-7.178912162780762,13.680726051330566,-3.422574043273926,-1.5853760242462158,-2.3704419136047363,-2.4771499633789062,185.10000610351562,-100.50000762939453,3.9000000953674316
117227,-7.20762300491333,14.13531494140625,-3.997389554977417,-1.1585439443588257,-6.463455677032471,-0.6402480006217957,180.3000030517578,-100.50000762939453,-0.30000001192092896
117247,-6.034664630889893,13.59937858581543,-2.738896608352661,-1.2118979692459106,-9.969575881958008,1.0899460315704346,194.70001220703125,-88.5,-5.700000286102295
117269,-5.904867649078369,12.299613952636719,-3.082230806350708,-0.4192099869251251,-10.198235511779785,3.292703866958618,185.10000610351562,-105.30000305175781,-2.700000047683716
117309,-4.258778095245361,10.011716842651367,-2.9907147884368896,-0.20579399168491364,-13.506183624267578,7.667731761932373,187.5,-112.50000762939453,-8.100000381469727
117330,-2.864506721496582,9.129456520080566,-2.45896577835083,-0.17530599236488342,-15.625099182128906,9.016825675964355,180.3000030517578,-107.70000457763672,-2.700000047683716
117350,-2.176044225692749,7.795597553253174,-1.958320140838623,-0.25152599811553955,-15.472660064697266,8.39182186126709,182.70001220703125,-107.70000457763672,-14.100000381469727
117370,-1.8997020721435547,6.648359298706055,-2.3560850620269775,0.4192099869251251,-14.740947723388672,7.56864595413208,180.3000030517578,-126.9000015258789,-14.700000762939453
117390,-1.1556122303009033,6.539496898651123,-1.924225926399231,0.9908599853515625,-15.13729190826416,7.378095626831055,175.5,-119.70000457763672,-11.100000381469727
117410,-1.0694795846939087,6.622040748596191,-1.6759966611862183,1.242385983467102,-13.231791496276855,6.417723655700684,165.90000915527344,-126.9000015258789,-14.700000762939453
117431,-1.949347972869873,6.636396408081055,-2.522368907928467,1.9512319564819336,-11.303425788879395,5.228692054748535,180.3000030517578,-134.10000610351562,-15.90000057220459
117451,-1.9577219486236572,6.891205310821533,-2.8357958793640137,1.9969639778137207,-11.593061447143555,5.0000319480896,168.3000030517578,-129.3000030517578,-14.700000762939453
117471,-1.3679529428482056,7.7124552726745605,-2.7741870880126953,1.935987949371338,-11.615927696228027,5.846074104309082,168.3000030517578,-134.10000610351562,-15.90000057220459
117491,-0.9983006119728088,8.462526321411133,-2.524163246154785,1.1509219408035278,-10.396408081054688,4.8552141189575195,163.5,-134.10000610351562,-15.300000190734863
117513,-0.21892032027244568,8.291458129882812,-2.390179395675659,0.7469559907913208,-8.765299797058105,3.75002384185791,168.3000030517578,-134.10000610351562,-8.700000762939453
117534,-0.023925717920064926,7.5964155197143555,-2.501433849334717,0.06859800219535828,-6.089977741241455,2.5686140060424805,161.10000610351562,-143.70001220703125,-14.100000381469727
117554,-0.46595337986946106,6.414485454559326,-3.7778708934783936,0.4878079891204834,-3.155508041381836,2.1112940311431885,158.70001220703125,-131.70001220703125,-17.700000762939453
117574,-0.001196285942569375,7.439104080200195,-3.950136184692383,2.233245849609375,-3.7271578311920166,3.300325870513916,168.3000030517578,-138.90000915527344,-17.700000762939453
117597,0.35230621695518494,8.570192337036133,-4.26356315612793,2.5228819847106934,-1.935987949371338,2.644834041595459,141.90000915527344,-143.70001220703125,-16.5
117617,0.32718420028686523,9.05708122253418,-4.21870231628418,2.5533699989318848,-1.0061039924621582,0.967993974685669,144.3000030517578,-131.70001220703125,-18.900001525878906
117637,0.24464046955108643,8.023489952087402,-3.8496482372283936,1.3948259353637695,0.9375059604644775,-1.3338500261306763,153.90000915527344,-141.3000030517578,-16.5
117657,0.31282877922058105,7.961282730102539,-3.844862937927246,1.295740008354187,1.4634239673614502,-1.2500079870224,161.10000610351562,-143.70001220703125,-18.900001525878906
117677,-0.0897214487195015,7.666398525238037,-4.130775451660156,1.3033620119094849,2.6600780487060547,-1.1356779336929321,163.5,-150.90000915527344,-12.300000190734863
117697,-0.27454763650894165,8.270523071289062,-4.520764350891113,2.225623846054077,2.8277618885040283,0.030487999320030212,149.10000610351562,-134.10000610351562,-12.300000190734863
117717,-0.26856619119644165,8.688624382019043,-4.670300483703613,2.492393970489502,2.896359920501709,0.1600620001554489,149.10000610351562,-146.10000610351562,-18.900001525878906
117737,-0.18781688809394836,9.253870010375977,-5.019615650177002,2.6219680309295654,2.835383892059326,0.2743920087814331,141.90000915527344,-131.70001220703125,-16.5
117757,-0.11125459522008896,9.17551326751709,-4.918529510498047,2.39330792427063,2.2561118602752686,-0.02286599949002266,149.10000610351562,-131.70001220703125,-15.90000057220459
117777,-0.21892032027244568,8.893189430236816,-4.652356147766113,1.7225719690322876,2.0655620098114014,-0.09146399796009064,149.10000610351562,-129.3000030517578,-10.5
117799,-0.5640488266944885,8.883021354675293,-4.797704696655273,0.9222619533538818,2.0503180027008057,0.33536797761917114,156.3000030517578,-131.70001220703125,-9.300000190734863
117820,-0.6830793023109436,9.039734840393066,-4.731909275054932,0.5182960033416748,1.478667974472046,0.3734779953956604,153.90000915527344,-129.3000030517578,-9.90000057220459
117840,-0.5975448489189148,8.74903678894043,-4.265357494354248,-0.09146399796009064,0.7317119836807251,0.46494197845458984,144.3000030517578,-143.70001220703125,-15.90000057220459
117860,-0.48748651146888733,8.54985523223877,-3.8921163082122803,-0.853663980960846,0.6250039935112,0.7774440050125122,158.70001220703125,-134.10000610351562,-11.700000762939453
117880,-0.6280501484870911,8.884217262268066,-3.844862937927246,-1.1737879514694214,0.800309956073761,0.7088459730148315,144.3000030517578,-143.70001220703125,-9.300000190734863
