time,sensor_accX[g],sensor_accY[g],sensor_accZ[g],sensor_gyroX[°/s],sensor_gyroY[°/s],sensor_gyroZ[°/s],sensor_magX[µT],sensor_magY[µT],sensor_magZ[µT]
109280,-4.320984840393066,8.54387378692627,-0.5724228024482727,-0.114329993724823,0.33536797761917114,0.04573199898004532,170.70001220703125,-143.70001220703125,-48.900001525878906
109300,-4.337134838104248,8.616249084472656,-0.5287584066390991,-0.060975998640060425,0.457319974899292,0.02286599949002266,170.70001220703125,-129.3000030517578,-53.10000228881836
109320,-4.447193145751953,8.695204734802246,-0.7428935766220093,-0.015243999660015106,0.6097599864006042,-0.1295740008354187,177.90000915527344,-138.90000915527344,-48.900001525878906
109342,-4.505212783813477,8.921900749206543,-0.6717145442962646,-0.09146399796009064,0.5182960033416748,-0.2439039945602417,161.10000610351562,-136.5,-45.30000305175781
109362,-4.639794826507568,8.754420280456543,-0.6400129795074463,-0.39634400606155396,0.510673999786377,-0.4420759975910187,161.10000610351562,-134.10000610351562,-51.900001525878906
109382,-4.755834579467773,8.541481971740723,-0.7494731545448303,-0.3201240003108978,0.426831990480423,-0.46494197845458984,173.10000610351562,-148.5,-54.900001525878906
109402,-4.666113376617432,8.499013900756836,-0.6836774349212646,-0.2743920087814331,0.22103799879550934,-0.23628199100494385,170.70001220703125,-146.10000610351562,-50.10000228881836
109422,-4.505212783813477,8.50918197631836,-0.709397554397583,-0.12195199728012085,0.1600620001554489,0.05335399881005287,170.70001220703125,-131.70001220703125,-50.10000228881836
109442,-4.341919898986816,8.60368824005127,-0.6776959896087646,-0.038109999150037766,0.114329993724823,0.10670799762010574,163.5,-146.10000610351562,-51.900001525878906
109462,-4.345508575439453,8.54985523223877,-0.709397554397583,-0.12195199728012085,-0.007621999830007553,0,170.70001220703125,-134.10000610351562,-45.900001525878906
109483,-4.304236888885498,8.679652214050293,-0.7716044187545776,-0.2743920087814331,-0.09908600151538849,-0.20579399168491364,161.10000610351562,-138.90000915527344,-53.70000076293945
109503,-4.28449821472168,8.424843788146973,-0.6160872578620911,-0.4192099869251251,-0.02286599949002266,-0.36585599184036255,177.90000915527344,-148.5,-56.10000228881836
109523,-4.312012672424316,8.701784133911133,-0.6489851474761963,-0.19817200303077698,0.3734779953956604,-0.3277460038661957,161.10000610351562,-126.9000015258789,-48.30000305175781
109543,-4.509997844696045,8.762794494628906,-0.7823709845542908,-0.457319974899292,0.510673999786377,-0.3887220025062561,175.5,-143.70001220703125,-55.500003814697266
109563,-4.646374702453613,8.547463417053223,-0.7040143013000488,-0.6478700041770935,0.2972579896450043,-0.4039659798145294,168.3000030517578,-131.70001220703125,-50.70000076293945
109583,-4.524353504180908,8.623427391052246,-0.6914532780647278,-0.5259180068969727,0.19054999947547913,-0.342989981174469,173.10000610351562,-136.5,-50.10000228881836
109604,-4.441211700439453,8.641371726989746,-0.5927596688270569,-0.7088459730148315,0.114329993724823,-0.3734779953956604,180.3000030517578,-146.10000610351562,-51.30000305175781
109624,-4.536914348602295,8.480470657348633,-0.6298445463180542,-0.6783579587936401,0.2896359860897064,-0.44969800114631653,165.90000915527344,-129.3000030517578,-56.10000228881836
109644,-4.48068904876709,8.60368824005127,-0.5688339471817017,-0.5182960033416748,0.228659987449646,-0.3277460038661957,173.10000610351562,-136.5,-52.500003814697266
109667,-4.46573543548584,8.632399559020996,-0.5383286476135254,-0.571649968624115,0.36585599184036255,-0.3582339882850647,165.90000915527344,-141.3000030517578,-48.30000305175781
109687,-4.401734352111816,8.589333534240723,-0.5024400949478149,-0.571649968624115,0.4725639820098877,-0.39634400606155396,170.70001220703125,-146.10000610351562,-55.500003814697266
109707,-4.502222061157227,8.541481971740723,-0.5736191272735596,-0.5868939757347107,0.5411620140075684,-0.33536797761917114,163.5,-150.90000915527344,-55.500003814697266
109727,-4.490259170532227,8.55105209350586,-0.5383286476135254,-0.5182960033416748,0.5182960033416748,-0.20579399168491364,168.3000030517578,-136.5,-51.30000305175781
109747,-4.53751277923584,8.649147033691406,-0.6268538236618042,-0.28201398253440857,0.5868939757347107,-0.038109999150037766,175.5,-131.70001220703125,-53.10000228881836
109770,-4.482483386993408,8.62881088256836,-0.500047504901886,-0.3277460038661957,0.3277460038661957,-0.15243999660015106,165.90000915527344,-134.10000610351562,-56.10000228881836
109790,-4.542895793914795,8.555238723754883,-0.5568711161613464,-0.26677000522613525,0.39634400606155396,0,175.5,-134.10000610351562,-54.900001525878906
109810,-4.568615913391113,8.670082092285156,-0.5365342497825623,-0.3125019967556,0.2591480016708374,0.02286599949002266,168.3000030517578,-134.10000610351562,-46.5
109832,-4.497437000274658,9.011622428894043,-0.61249840259552,-0.5945159792900085,0.23628199100494385,-0.20579399168491364,173.10000610351562,-131.70001220703125,-45.30000305175781
109874,-4.23664665222168,8.66948413848877,-0.3618764877319336,-0.3277460038661957,0.5335400104522705,-0.16768398880958557,168.3000030517578,-158.10000610351562,-52.500003814697266
109937,-4.259974479675293,8.867469787597656,-0.4492053687572479,-0.36585599184036255,0.8079319596290588,-0.060975998640060425,168.3000030517578,-141.3000030517578,-41.10000228881836
109957,-4.220496654510498,8.882423400878906,-0.46595337986946106,-0.4725639820098877,0.9070180058479309,-0.39634400606155396,192.3000030517578,-141.3000030517578,-56.10000228881836
109977,-4.283899784088135,8.70537281036377,-0.3887929320335388,-0.6021379828453064,0.9984819889068604,-0.6554920077323914,177.90000915527344,-131.70001220703125,-53.70000076293945
110000,-4.303040504455566,8.533705711364746,-0.33795076608657837,-0.5564059615135193,1.1280559301376343,-0.4725639820098877,180.3000030517578,-141.3000030517578,-45.30000305175781
110020,-4.406519412994385,8.64376449584961,-0.37862449884414673,-0.6554920077323914,1.1814099550247192,-0.426831990480423,168.3000030517578,-150.90000915527344,-47.70000076293945
110060,-4.356873512268066,8.80586051940918,-0.31282877922058105,-0.7926880121231079,0.8231759667396545,-0.5792719721794128,173.10000610351562,-148.5,-50.10000228881836
110081,-4.342517852783203,8.741859436035156,-0.2811271846294403,-0.8841519951820374,0.7621999979019165,-0.6554920077323914,177.90000915527344,-136.5,-49.500003814697266
110101,-4.460351943969727,8.697596549987793,-0.2147333323955536,-0.8155539631843567,0.7317119836807251,-0.6554920077323914,173.10000610351562,-146.10000610351562,-51.900001525878906
110121,-4.51059627532959,8.670680046081543,-0.2811271846294403,-0.7088459730148315,0.7926880121231079,-0.6021379828453064,173.10000610351562,-129.3000030517578,-50.10000228881836
110184,-4.5028204917907715,8.692811965942383,-0.32718420028686523,-0.5411620140075684,1.242385983467102,-0.342989981174469,182.70001220703125,-136.5,-51.900001525878906
110204,-4.585962295532227,8.52413558959961,-0.3768300712108612,-0.5259180068969727,1.425313949584961,-0.3125019967556,180.3000030517578,-131.70001220703125,-51.900001525878906
110248,-4.51358699798584,8.57796859741211,-0.5161973834037781,-0.5640279650688171,1.5929979085922241,-0.2743920087814331,182.70001220703125,-138.90000915527344,-53.10000228881836
110268,-4.51956844329834,8.58095932006836,-0.5305528044700623,-0.6631140112876892,1.653973937034607,-0.3734779953956604,175.5,-138.90000915527344,-41.70000076293945
110310,-4.746264457702637,8.391945838928223,-0.5251695513725281,-1.0594580173492432,1.7606819868087769,-0.41158798336982727,180.3000030517578,-134.10000610351562,-47.70000076293945
110332,-4.984923362731934,8.394936561584473,-0.6322371363639832,-1.1051899194717407,1.7987920045852661,-0.457319974899292,182.70001220703125,-136.5,-47.10000228881836
110353,-4.9915032386779785,8.387160301208496,-0.61847984790802,-1.1128119230270386,1.646351933479309,-0.41158798336982727,192.3000030517578,-134.10000610351562,-51.30000305175781
110373,-4.975951194763184,8.376394271850586,-0.5706284046173096,-1.2271419763565063,1.8369019031524658,-0.2743920087814331,189.90000915527344,-143.70001220703125,-50.70000076293945
110393,-5.028587818145752,8.34469223022461,-0.5867782831192017,-1.3567159175872803,2.0503180027008057,-0.1295740008354187,170.70001220703125,-138.90000915527344,-44.10000228881836
110433,-5.004064083099365,8.348281860351562,-0.6920514106750488,-1.5091559886932373,2.6219680309295654,0.030487999320030212,185.10000610351562,-122.10000610351562,-56.10000228881836
110453,-4.7008056640625,8.537294387817383,-0.7865580320358276,-1.4558019638061523,2.9649579524993896,0.228659987449646,175.5,-129.3000030517578,-58.500003814697266
110477,-4.853332042694092,7.875748634338379,-0.6017318367958069,-1.981719970703125,3.3231918811798096,0.23628199100494385,189.90000915527344,-129.3000030517578,-52.500003814697266
110497,-4.851537704467773,7.658024311065674,-0.3768300712108612,-1.6387299299240112,3.7728898525238037,0.5411620140075684,182.70001220703125,-126.9000015258789,-53.70000076293945
110540,-5.005858421325684,8.649147033691406,-0.49645867943763733,-1.6768399477005005,5.167716026306152,0.49542999267578125,175.5,-134.10000610351562,-48.900001525878906
110561,-5.242722988128662,8.406301498413086,-0.6513776779174805,-1.8445239067077637,4.794238090515137,0.114329993724823,189.90000915527344,-124.50000762939453,-49.500003814697266
110582,-5.157786846160889,7.967264175415039,-0.18004103004932404,-1.1280559301376343,3.971061944961548,0.6554920077323914,197.10000610351562,-129.3000030517578,-50.10000228881836
110602,-4.87307071685791,9.062463760375977,0.24404233694076538,-0.510673999786377,4.016793727874756,1.707327961921692,192.3000030517578,-143.70001220703125,-45.30000305175781
110622,-4.87307071685791,10.048203468322754,0.37623193860054016,-1.2195199728012085,3.955817937850952,2.03507399559021,206.70001220703125,-122.10000610351562,-50.70000076293945
110642,-5.706881999969482,8.517556190490723,0.509617805480957,-1.5396440029144287,3.955817937850952,0.7850660085678101,173.10000610351562,-131.70001220703125,-51.30000305175781
110662,-6.062777042388916,7.878739356994629,0.26976248621940613,0.4878079891204834,3.4756319522857666,1.2728739976882935,187.5,-143.70001220703125,-53.70000076293945
110682,-5.830099582672119,8.677858352661133,0.3720449209213257,2.240867853164673,2.8658719062805176,1.699705958366394,187.5,-138.90000915527344,-50.70000076293945
110703,-5.720041275024414,9.932164192199707,-0.2326776087284088,2.8811159133911133,3.041177988052368,1.7225719690322876,197.10000610351562,-136.5,-49.500003814697266
110723,-5.887521266937256,9.80595588684082,-0.6908551454544067,2.8734939098358154,2.4009299278259277,0.6936019659042358,182.70001220703125,-141.3000030517578,-40.5
110745,-6.012533187866211,9.006836891174316,-1.2656705379486084,3.353679895401001,2.027451992034912,1.707327961921692,197.10000610351562,-134.10000610351562,-45.30000305175781
110765,-5.696115493774414,9.22934627532959,-1.6281452178955078,3.3765459060668945,1.653973937034607,2.789651870727539,175.5,-141.3000030517578,-49.500003814697266
110785,-5.242722988128662,9.43032169342041,-1.7280350923538208,2.987823963165283,1.2576299905776978,3.4298999309539795,177.90000915527344,-134.10000610351562,-42.30000305175781
110805,-4.798901081085205,9.20721435546875,-1.7950270175933838,2.484771966934204,1.371959924697876,3.2622158527374268,170.70001220703125,-148.5,-39.900001525878906
110825,-4.403528690338135,8.909937858581543,-1.505525827407837,2.134160041809082,1.417691946029663,3.1783738136291504,175.5,-138.90000915527344,-40.5
110845,-3.925612211227417,9.210205078125,-1.529451608657837,1.8597679138183594,2.2561118602752686,3.567095994949341,170.70001220703125,-158.10000610351562,-38.10000228881836
110868,-3.7485620975494385,9.57088565826416,-1.546797752380371,1.3490939140319824,3.0716660022735596,3.7424018383026123,182.70001220703125,-146.10000610351562,-46.5
110888,-3.64209246635437,9.503893852233887,-1.432552456855774,0.685979962348938,3.6433160305023193,3.4222779273986816,177.90000915527344,-148.5,-36.30000305175781
110908,-3.7605247497558594,9.110315322875977,-1.4971518516540527,0.3125019967556,4.275941848754883,3.109776020050049,173.10000610351562,-162.90000915527344,-41.10000228881836
110928,-3.860414743423462,8.402113914489746,-1.5647419691085815,0.41158798336982727,4.565577983856201,2.789651870727539,163.5,-150.90000915527344,-38.70000076293945
110972,-3.130082130432129,7.366130828857422,-1.5587605237960815,1.1814099550247192,4.565577983856201,4.2149658203125,153.90000915527344,-158.10000610351562,-40.5
110992,-2.884843587875366,7.871561527252197,-1.7088944911956787,1.7149499654769897,4.46649169921875,5.14484977722168,156.3000030517578,-155.70001220703125,-36.30000305175781
111014,-2.5199763774871826,9.251477241516113,-1.5761067867279053,2.134160041809082,4.100636005401611,4.992409706115723,146.70001220703125,-150.90000915527344,-36.30000305175781
111036,-2.5110042095184326,9.89866828918457,-1.3123257160186768,1.5167779922485352,4.047281742095947,3.7195358276367188,151.5,-162.90000915527344,-35.70000076293945
111056,-2.989518642425537,9.881919860839844,-1.2650723457336426,0.8612859845161438,4.832347869873047,2.027451992034912,129.90000915527344,-165.3000030517578,-29.700000762939453
111078,-3.561941385269165,9.554736137390137,-1.5796955823898315,0.2896359860897064,5.099117755889893,1.0289700031280518,134.70001220703125,-162.90000915527344,-34.5
111099,-4.087110996246338,8.75202751159668,-1.2931851148605347,0.19054999947547913,5.076251983642578,0.9908599853515625,129.90000915527344,-153.3000030517578,-33.900001525878906
111160,-4.4908576011657715,9.152185440063477,-2.1706607341766357,0.7850660085678101,6.227173805236816,2.332331895828247,132.3000030517578,-172.5,-29.100000381469727
111265,-1.4008508920669556,8.981715202331543,-2.944657802581787,-0.3125019967556,8.056453704833984,1.4634239673614502,120.30000305175781,-172.5,-33.900001525878906
111286,-0.9534398913383484,8.90455436706543,-3.332254409790039,-0.2743920087814331,8.147917747497559,1.5396440029144287,122.70000457763672,-177.3000030517578,-32.10000228881836
111326,-0.4474109411239624,8.306411743164062,-3.44590163230896,-0.15243999660015106,7.39333963394165,0.9527499675750732,127.50000762939453,-172.5,-24.30000114440918
111346,-0.30266034603118896,7.839262008666992,-3.70788836479187,0.2134159952402115,6.615895748138428,0.7621999979019165,117.9000015258789,-160.5,-27.30000114440918
111366,-0.16389118134975433,7.585649013519287,-3.898695945739746,0.8231759667396545,5.655523777008057,1.0061039924621582,115.50000762939453,-162.90000915527344,-22.5
111386,0.2207147628068924,7.7519330978393555,-3.9656879901885986,1.242385983467102,4.115880012512207,1.7225719690322876,115.50000762939453,-170.10000610351562,-23.700000762939453
111451,1.955329418182373,10.673263549804688,-3.7252345085144043,0.10670799762010574,1.0747020244598389,3.49849796295166,93.9000015258789,-189.3000030517578,-23.700000762939453
111505,0.5353379845619202,8.956592559814453,-2.8298144340515137,-2.4771499633789062,2.6295900344848633,0.7545779943466187,101.10000610351562,-174.90000915527344,-25.500001907348633
111546,0.2619866132736206,8.808253288269043,-2.8956100940704346,-2.538125991821289,2.073184013366699,-0.6097599864006042,103.50000762939453,-177.3000030517578,-29.700000762939453
111566,0.36008206009864807,8.209512710571289,-2.5110042095184326,-2.339953899383545,1.5396440029144287,-0.8917739987373352,101.10000610351562,-167.70001220703125,-23.700000762939453
111626,0.6669294238090515,7.440300464630127,-1.8578320741653442,-1.935987949371338,2.2027578353881836,0.44969800114631653,93.9000015258789,-177.3000030517578,-27.900001525878906
111646,0.9229345917701721,8.196950912475586,-1.9750680923461914,-1.3490939140319824,2.8811159133911133,1.4100699424743652,105.9000015258789,-182.10000610351562,-20.100000381469727
111666,0.9731786251068115,8.60368824005127,-1.8590283393859863,-1.3033620119094849,2.690565824508667,1.371959924697876,74.70000457763672,-172.5,-28.500001907348633
111690,1.0778536796569824,9.01820182800293,-1.7328201532363892,-1.3262280225753784,2.75154185295105,1.2652519941329956,96.30000305175781,-179.70001220703125,-26.700000762939453
111710,0.915158748626709,8.1784086227417,-1.5761067867279053,-1.5472660064697266,3.1402640342712402,0.6097599864006042,93.9000015258789,-177.3000030517578,-27.900001525878906
111730,0.9067847728729248,8.55404281616211,-1.6042194366455078,-0.6783579587936401,3.3841679096221924,0.914639949798584,98.70000457763672,-170.10000610351562,-26.700000762939453
111751,0.91874760389328,9.137829780578613,-1.696333408355713,-0.5182960033416748,3.6814258098602295,0.6707359552383423,89.10000610351562,-174.90000915527344,-29.700000762939453
111811,0.827829897403717,8.356057167053223,-1.7005205154418945,-0.3201240003108978,3.4680099487304688,-1.4481799602508545,101.10000610351562,-172.5,-29.100000381469727
111863,0.8553444743156433,7.5790696144104,-1.4666465520858765,0.25152599811553955,3.3155698776245117,-0.9832379817962646,101.10000610351562,-165.3000030517578,-27.900001525878906
111882,1.305746078491211,9.207813262939453,-1.9589182138442993,0.7926880121231079,4.275941848754883,0.23628199100494385,96.30000305175781,-172.5,-27.900001525878906
111925,2.107257604598999,10.12656021118164,-1.9032909870147705,-1.7911700010299683,3.9786839485168457,-1.7911700010299683,91.5,-162.90000915527344,-24.30000114440918
111945,1.7059037685394287,8.533705711364746,-2.115631580352783,-1.9969639778137207,4.8018598556518555,-2.233245849609375,98.70000457763672,-167.70001220703125,-27.900001525878906
111967,1.4756187200546265,8.073135375976562,-2.4224791526794434,-1.806414008140564,4.939055919647217,-1.935987949371338,101.10000610351562,-167.70001220703125,-21.900001525878906
111987,1.4032434225082397,7.6711835861206055,-2.328570604324341,-1.6082419157028198,5.0000319480896,-1.600619912147522,103.50000762939453,-167.70001220703125,-26.700000762939453
112009,1.8757764101028442,10.232431411743164,-3.2353553771972656,-0.6936019659042358,5.686011791229248,-0.08384199440479279,98.70000457763672,-167.70001220703125,-24.900001525878906
112029,2.2705507278442383,12.755398750305176,-4.21272087097168,0.6631140112876892,7.50004768371582,2.0960500240325928,93.9000015258789,-182.10000610351562,-21.900001525878906
112049,3.974061965942383,14.643735885620117,-5.449680805206299,-1.5625100135803223,4.275941848754883,1.2347639799118042,98.70000457763672,-167.70001220703125,-23.100000381469727
112109,1.3948694467544556,9.399218559265137,-5.554355621337891,1.577754020690918,2.278977870941162,5.373509883880615,101.10000610351562,-167.70001220703125,-25.500001907348633
112129,1.696333408355713,11.241498947143555,-3.5242583751678467,0.038109999150037766,-2.446661949157715,2.0503180027008057,89.10000610351562,-179.70001220703125,-24.30000114440918
112149,1.2907925844192505,8.84892749786377,-3.245523691177368,1.875011920928955,-0.09146399796009064,-1.5548880100250244,93.9000015258789,-177.3000030517578,-26.100000381469727
112169,1.423580288887024,9.010425567626953,-3.302347421646118,-0.2439039945602417,0.1600620001554489,-0.39634400606155396,103.50000762939453,-165.3000030517578,-23.100000381469727
112192,1.3123257160186768,8.723915100097656,-2.8657028675079346,-1.0899460315704346,0.5030519962310791,-1.2576299905776978,108.30000305175781,-172.5,-21.900001525878906
112212,1.6203693151474,8.438002586364746,-2.6551566123962402,-1.653973937034607,0.8384199738502502,-0.7469559907913208,101.10000610351562,-167.70001220703125,-19.5
112232,1.8775707483291626,8.897974967956543,-2.4990413188934326,-2.080806016921997,1.6692179441452026,0.04573199898004532,108.30000305175781,-167.70001220703125,-17.700000762939453
112252,1.9876290559768677,9.155176162719727,-2.4452085494995117,-2.1570260524749756,2.080806016921997,0.3201240003108978,103.50000762939453,-172.5,-25.500001907348633
112275,2.151520252227783,9.411779403686523,-2.4583675861358643,-2.2561118602752686,2.3094658851623535,0.6326259970664978,101.10000610351562,-162.90000915527344,-24.30000114440918
112295,1.9236278533935547,8.445778846740723,-2.355487108230591,-2.3094658851623535,2.5228819847106934,0.4420759975910187,108.30000305175781,-160.5,-18.30000114440918
112315,2.035480499267578,9.00205135345459,-2.343524217605591,-1.2347639799118042,2.278977870941162,1.3109840154647827,98.70000457763672,-167.70001220703125,-23.100000381469727
112335,1.9786570072174072,8.846534729003906,-2.3530943393707275,-1.2652519941329956,1.9664759635925293,1.1585439443588257,96.30000305175781,-165.3000030517578,-19.5
112395,1.6885576248168945,8.569594383239746,-2.617473602294922,-0.35061198472976685,0.8460419774055481,0.8231759667396545,96.30000305175781,-172.5,-24.30000114440918
112415,1.5731160640716553,7.997171401977539,-2.6396050453186035,-0.3201240003108978,0.3048799932003021,0.426831990480423,96.30000305175781,-172.5,-27.30000114440918
112435,1.518684983253479,7.820719242095947,-2.694634199142456,-0.114329993724823,-0.342989981174469,0.4039659798145294,105.9000015258789,-158.10000610351562,-18.30000114440918
112455,1.6329302787780762,8.362038612365723,-2.8567309379577637,-0.007621999830007553,-0.9375059604644775,0.5030519962310791,91.5,-172.5,-30.30000114440918
112475,1.8368970155715942,9.030762672424316,-2.9368820190429688,0.06859800219535828,-1.2652519941329956,0.7621999979019165,98.70000457763672,-170.10000610351562,-23.700000762939453
112497,2.0247139930725098,9.67137336730957,-3.0947916507720947,-0.23628199100494385,-1.425313949584961,0.8460419774055481,89.10000610351562,-174.90000915527344,-26.100000381469727
112517,2.077350616455078,9.974632263183594,-3.0218183994293213,-0.38109999895095825,-1.9740979671478271,0.7698220014572144,93.9000015258789,-170.10000610351562,-20.100000381469727
112537,1.6006306409835815,9.044519424438477,-2.121613025665283,-1.1280559301376343,-2.4009299278259277,0,89.10000610351562,-170.10000610351562,-19.5
112557,1.3242884874343872,9.100147247314453,-1.9565256834030151,-1.0061039924621582,-1.653973937034607,-0.060975998640060425,96.30000305175781,-170.10000610351562,-30.30000114440918
112577,0.9115698933601379,9.337011337280273,-2.006171464920044,-1.1051899194717407,-1.7606819868087769,-0.7545779943466187,89.10000610351562,-162.90000915527344,-25.500001907348633
112597,0.91276615858078,9.034351348876953,-1.6598467826843262,-1.0747020244598389,-1.7911700010299683,-1.3948259353637695,93.9000015258789,-165.3000030517578,-29.700000762939453
112617,1.1771453619003296,9.68154239654541,-1.733418345451355,-0.5945159792900085,-1.7225719690322876,-0.9603719711303711,96.30000305175781,-165.3000030517578,-31.500001907348633
112637,1.5934529304504395,10.645748138427734,-1.6921464204788208,-0.8460419774055481,-2.1189160346984863,-0.35061198472976685,93.9000015258789,-155.70001220703125,-32.70000076293945
112657,1.3930749893188477,9.515856742858887,-1.1394623517990112,-1.3872039318084717,-1.9893419742584229,-0.914639949798584,93.9000015258789,-172.5,-26.100000381469727
112677,1.1478363275527954,8.426039695739746,-0.7907450199127197,-1.189031958580017,-1.753059983253479,-0.04573199898004532,96.30000305175781,-174.90000915527344,-22.5
112697,1.2955776453018188,9.189868927001953,-1.0832369327545166,-0.39634400606155396,-0.9375059604644775,1.0289700031280518,91.5,-179.70001220703125,-29.100000381469727
112718,1.2578946352005005,9.854405403137207,-1.4983481168746948,-0.12195199728012085,-1.067080020904541,1.0975680351257324,86.70000457763672,-179.70001220703125,-29.700000762939453
112738,1.4630577564239502,9.91661262512207,-1.421785831451416,-0.04573199898004532,-1.7683039903640747,0.7698220014572144,89.10000610351562,-167.70001220703125,-32.70000076293945
112760,1.7896437644958496,9.658812522888184,-1.2704557180404663,0.015243999660015106,-1.9131219387054443,0.6326259970664978,84.30000305175781,-167.70001220703125,-33.30000305175781
112781,2.089313507080078,9.72520637512207,-1.4839926958084106,0.35061198472976685,-1.8902559280395508,0.6326259970664978,98.70000457763672,-162.90000915527344,-26.700000762939453
112801,2.19398832321167,8.814234733581543,-1.3212977647781372,0.457319974899292,-1.478667974472046,0.8079319596290588,96.30000305175781,-172.5,-26.100000381469727
112821,2.2585878372192383,8.914124488830566,-1.4241783618927002,0.7926880121231079,-1.3186060190200806,0.9832379817962646,89.10000610351562,-179.70001220703125,-32.10000228881836
112841,2.2573916912078857,8.697596549987793,-1.3673548698425293,0.7621999979019165,-1.0289700031280518,1.067080020904541,79.5,-177.3000030517578,-32.70000076293945
112881,2.44401216506958,8.96018123626709,-1.3625696897506714,0.510673999786377,-0.25152599811553955,1.1280559301376343,91.5,-184.5,-22.5
112902,2.4458065032958984,8.951210021972656,-1.342831015586853,0.12195199728012085,-0.038109999150037766,1.0518360137939453,77.10000610351562,-172.5,-24.900001525878906
112922,2.24183988571167,8.752626419067383,-1.3876917362213135,-0.35061198472976685,0.15243999660015106,0.8765299916267395,72.30000305175781,-182.10000610351562,-26.700000762939453
112944,2.19697904586792,9.32205867767334,-1.3912805318832397,0.04573199898004532,0.114329993724823,0.6707359552383423,89.10000610351562,-170.10000610351562,-25.500001907348633
113007,2.316009521484375,9.307703018188477,-0.9731786251068115,-0.457319974899292,0.007621999830007553,-0.4039659798145294,89.10000610351562,-167.70001220703125,-25.500001907348633
113027,2.2819154262542725,9.238916397094727,-0.921140193939209,-0.5564059615135193,0.2591480016708374,-0.5868939757347107,84.30000305175781,-172.5,-27.900001525878906
113047,2.321990966796875,9.557726860046387,-0.8332131505012512,-0.571649968624115,0.5182960033416748,-0.6631140112876892,89.10000610351562,-179.70001220703125,-24.900001525878906
113067,2.2197086811065674,9.517650604248047,-0.7680155634880066,-0.967993974685669,0.9222619533538818,-0.9375059604644775,81.9000015258789,-177.3000030517578,-29.100000381469727
113090,2.161688804626465,9.525426864624023,-0.6800885796546936,-1.2042759656906128,1.3186060190200806,-1.2195199728012085,91.5,-179.70001220703125,-26.700000762939453
113110,2.27473783493042,9.76408576965332,-0.7985208630561829,-1.3262280225753784,1.7454379796981812,-1.524399995803833,91.5,-174.90000915527344,-22.5
113130,2.0552191734313965,9.52303409576416,-0.7560527324676514,-1.4329359531402588,1.9740979671478271,-1.8978779315948486,84.30000305175781,-177.3000030517578,-21.900001525878906
113151,1.9858347177505493,10.318564414978027,-1.208846926689148,-1.0975680351257324,2.6677000522613525,-1.7987920045852661,91.5,-170.10000610351562,-26.100000381469727
113171,1.8201490640640259,10.631991386413574,-1.5133017301559448,-1.1280559301376343,2.7591638565063477,-1.9893419742584229,84.30000305175781,-174.90000915527344,-29.700000762939453
113191,1.5725178718566895,10.916109085083008,-1.9541330337524414,-0.7012239694595337,2.7744078636169434,-2.1722700595855713,98.70000457763672,-172.5,-24.900001525878906
113211,1.3721399307250977,11.284564971923828,-2.5169856548309326,-0.25152599811553955,2.5686140060424805,-2.2484898567199707,96.30000305175781,-167.70001220703125,-28.500001907348633
113231,0.5760116577148438,9.56191349029541,-2.1299872398376465,-0.800309956073761,0.967993974685669,-3.147886037826538,89.10000610351562,-165.3000030517578,-26.700000762939453
113255,0.15671345591545105,9.150391578674316,-2.318402051925659,0.18292799592018127,1.5853760242462158,-2.637212038040161,98.70000457763672,-172.5,-26.700000762939453
113276,-0.3959706425666809,9.25028133392334,-2.757439136505127,0.5259180068969727,1.3872039318084717,-2.637212038040161,101.10000610351562,-172.5,-21.30000114440918
113296,-0.6603498458862305,9.22635555267334,-2.8866379261016846,0.3582339882850647,0.7698220014572144,-2.5762360095977783,115.50000762939453,-172.5,-30.30000114440918
113316,-0.3020622134208679,9.309496879577637,-2.6844656467437744,0.28201398253440857,0.05335399881005287,-2.5228819847106934,110.70000457763672,-174.90000915527344,-26.700000762939453
113336,-0.4474109411239624,9.155774116516113,-2.9374802112579346,0.3048799932003021,0.6021379828453064,-2.942091941833496,101.10000610351562,-158.10000610351562,-23.100000381469727
113356,-0.6268538236618042,8.515761375427246,-2.8920211791992188,0.3048799932003021,0.457319974899292,-3.201239824295044,110.70000457763672,-170.10000610351562,-26.100000381469727
113376,-0.6513776779174805,8.3339262008667,-2.8423755168914795,0.6326259970664978,1.1509219408035278,-3.0106899738311768,115.50000762939453,-165.3000030517578,-24.30000114440918
113396,-0.8756812810897827,8.454153060913086,-3.0630900859832764,0.7850660085678101,1.8445239067077637,-2.8125178813934326,120.30000305175781,-165.3000030517578,-24.900001525878906
113416,-1.23396897315979,8.720924377441406,-3.4112093448638916,1.0594580173492432,2.530503988265991,-2.8125178813934326,115.50000762939453,-165.3000030517578,-23.100000381469727
113436,-1.4361412525177002,8.561220169067383,-3.6564478874206543,0.9984819889068604,2.195136070251465,-2.9725799560546875,117.9000015258789,-167.70001220703125,-18.900001525878906
113476,-1.408626675605774,8.490041732788086,-3.7282252311706543,1.2195199728012085,1.882633924484253,-2.530503988265991,115.50000762939453,-160.5,-20.700000762939453
113539,-1.5892658233642578,9.049304962158203,-3.7156641483306885,0.8993960022926331,1.3872039318084717,-2.1722700595855713,122.70000457763672,-162.90000915527344,-21.900001525878906
113560,-1.4684410095214844,9.133045196533203,-3.585268974304199,0.6783579587936401,1.1814099550247192,-2.126538038253784,125.10000610351562,-165.3000030517578,-26.700000762939453
113580,-1.2758389711380005,9.10971736907959,-3.398648262023926,0.342989981174469,1.14329993724823,-1.9588539600372314,125.10000610351562,-172.5,-24.900001525878906
113600,-1.2232023477554321,9.073230743408203,-3.3280675411224365,0.04573199898004532,1.3795819282531738,-1.7378159761428833,149.10000610351562,-162.90000915527344,-21.900001525878906
113620,-1.0323947668075562,9.034351348876953,-3.2293739318847656,-0.1448179930448532,1.371959924697876,-1.5853760242462158,139.5,-172.5,-17.700000762939453
113640,-0.7686136960983276,9.050500869750977,-3.0774455070495605,-0.23628199100494385,1.4634239673614502,-1.4558019638061523,149.10000610351562,-153.3000030517578,-17.700000762939453
113660,-0.6747052669525146,9.07801628112793,-2.9249191284179688,-0.342989981174469,1.5853760242462158,-1.4939119815826416,141.90000915527344,-155.70001220703125,-29.100000381469727
113720,-0.5604599714279175,8.884217262268066,-2.8513474464416504,-0.09146399796009064,1.6234859228134155,-1.753059983253479,141.90000915527344,-165.3000030517578,-24.30000114440918
113741,-0.5377305150032043,8.832179069519043,-2.790336847305298,0.06859800219535828,1.646351933479309,-1.6311079263687134,137.10000610351562,-150.90000915527344,-18.900001525878906
113761,-0.5790023803710938,9.077417373657227,-2.8453660011291504,0.3125019967556,1.646351933479309,-1.5320219993591309,156.3000030517578,-170.10000610351562,-21.30000114440918
113781,-0.6005355715751648,9.31009578704834,-2.8543381690979004,0.228659987449646,1.4862899780273438,-1.653973937034607,146.70001220703125,-155.70001220703125,-21.30000114440918
113801,-0.6370222568511963,9.176709175109863,-2.7735888957977295,0.038109999150037766,1.4558019638061523,-1.882633924484253,139.5,-160.5,-20.100000381469727
113824,-0.6962383985519409,9.417162895202637,-2.9518356323242188,0.17530599236488342,1.3338500261306763,-1.9740979671478271,153.90000915527344,-158.10000610351562,-23.100000381469727
113848,-0.7859598398208618,9.183887481689453,-2.741887331008911,0.05335399881005287,1.0594580173492432,-2.1112940311431885,151.5,-146.10000610351562,-20.100000381469727
113888,-0.7506694197654724,8.912928581237793,-2.4631526470184326,-0.2591480016708374,1.2195199728012085,-1.9664759635925293,153.90000915527344,-160.5,-22.5
113908,-0.7303325533866882,8.701186180114746,-2.342327833175659,-0.28201398253440857,1.4481799602508545,-1.8978779315948486,165.90000915527344,-153.3000030517578,-24.30000114440918
113930,-0.7901468873023987,8.641969680786133,-2.3794126510620117,-0.07621999830007553,1.7606819868087769,-1.7987920045852661,161.10000610351562,-153.3000030517578,-17.100000381469727
113950,-0.8009134531021118,8.50918197631836,-2.3859922885894775,0.038109999150037766,1.7454379796981812,-1.6615959405899048,161.10000610351562,-146.10000610351562,-20.100000381469727
113970,-0.6352278590202332,8.63479232788086,-2.23884916305542,0.17530599236488342,2.0122079849243164,-1.3643379211425781,170.70001220703125,-162.90000915527344,-17.100000381469727
113990,-0.6705182790756226,8.728102684020996,-2.4003477096557617,0.19054999947547913,2.2713558673858643,-1.425313949584961,144.3000030517578,-165.3000030517578,-15.300000190734863
114010,-0.9809544682502747,9.162354469299316,-2.8005053997039795,0.6707359552383423,2.8201398849487305,-1.4405579566955566,158.70001220703125,-155.70001220703125,-15.300000190734863
114031,-1.3141200542449951,8.945228576660156,-3.207242727279663,0.739333987236023,2.1036720275878906,-1.8369019031524658,168.3000030517578,-146.10000610351562,-14.700000762939453
114051,-1.62934148311615,8.76219654083252,-3.031986713409424,1.0442140102386475,1.7149499654769897,-1.5853760242462158,144.3000030517578,-158.10000610351562,-9.90000057220459
114071,-2.0312936305999756,8.74006462097168,-3.749160051345825,1.6768399477005005,1.981719970703125,-1.5625100135803223,161.10000610351562,-153.3000030517578,-21.30000114440918
114091,-2.1479313373565674,8.680251121520996,-3.648672103881836,1.6920839548110962,0.4878079891204834,-1.425313949584961,170.70001220703125,-153.3000030517578,-9.300000190734863
114175,-2.6276421546936035,8.781336784362793,-4.144532680511475,1.3109840154647827,-0.3277460038661957,-0.853663980960846,161.10000610351562,-153.3000030517578,-15.90000057220459
114324,-2.700615406036377,8.495424270629883,-4.509997844696045,-1.3643379211425781,-0.8612859845161438,1.5167779922485352,156.3000030517578,-138.90000915527344,-14.100000381469727
114345,-2.26277494430542,8.523537635803223,-4.188197135925293,-1.7378159761428833,-0.4344539940357208,2.431417942047119,158.70001220703125,-143.70001220703125,-20.700000762939453
114388,-1.9529367685317993,8.41347885131836,-3.940565824508667,-2.1570260524749756,0.853663980960846,2.8658719062805176,170.70001220703125,-153.3000030517578,-21.30000114440918
114429,-1.6239581108093262,8.561220169067383,-3.5374176502227783,-2.0960500240325928,1.471045970916748,3.2164838314056396,153.90000915527344,-158.10000610351562,-18.900001525878906
114449,-1.609602689743042,8.51815414428711,-3.597231864929199,-2.0960500240325928,1.699705958366394,2.9725799560546875,156.3000030517578,-146.10000610351562,-21.900001525878906
114469,-1.5479940176010132,8.56600570678711,-3.573904275894165,-1.9436099529266357,1.4939119815826416,2.896359920501709,153.90000915527344,-158.10000610351562,-21.30000114440918
114492,-1.428963541984558,8.466115951538086,-3.293375253677368,-2.1494040489196777,1.14329993724823,2.7210538387298584,163.5,-150.90000915527344,-22.5
114512,-1.4630577564239502,8.233437538146973,-3.41001296043396,-2.0655620098114014,1.3795819282531738,2.591480016708374,144.3000030517578,-160.5,-21.30000114440918
114532,-1.223800539970398,8.080313682556152,-3.48179030418396,-1.7149499654769897,0.5868939757347107,2.5762360095977783,144.3000030517578,-150.90000915527344,-18.30000114440918
114555,-0.7303325533866882,8.015115737915039,-3.1761391162872314,-1.1737879514694214,0.038109999150037766,3.292703866958618,127.50000762939453,-162.90000915527344,-13.500000953674316
114575,-0.47731807827949524,8.34768295288086,-3.1916909217834473,-1.0975680351257324,-0.07621999830007553,3.3155698776245117,137.10000610351562,-158.10000610351562,-18.900001525878906
114615,0.008374001830816269,8.198745727539062,-3.183316946029663,-0.7545779943466187,-0.9984819889068604,3.1707520484924316,125.10000610351562,-160.5,-18.900001525878906
114635,0.4432239532470703,8.93745231628418,-3.0595014095306396,-0.46494197845458984,-1.425313949584961,3.201239824295044,120.30000305175781,-162.90000915527344,-16.5
114655,0.6968365907669067,9.56191349029541,-2.775383472442627,-0.685979962348938,-1.6768399477005005,2.743919849395752,129.90000915527344,-160.5,-21.30000114440918
114678,0.7979227304458618,9.848423957824707,-2.926713466644287,-0.8155539631843567,-1.829279899597168,2.0503180027008057,115.50000762939453,-162.90000915527344,-21.30000114440918
114698,0.8738868832588196,9.545763969421387,-2.4810969829559326,-1.2042759656906128,-2.736297845840454,1.7149499654769897,110.70000457763672,-162.90000915527344,-16.5
114761,1.0545260906219482,10.623617172241211,-1.727436900138855,-0.8993960022926331,-2.4542839527130127,0.6783579587936401,117.9000015258789,-177.3000030517578,-24.30000114440918
114801,0.30624920129776,9.337011337280273,-0.8798683285713196,-0.9908599853515625,-2.599102020263672,-0.41158798336982727,105.9000015258789,-153.3000030517578,-23.100000381469727
114821,0.3164176344871521,9.640270233154297,-0.8254373073577881,-0.9832379817962646,-1.8597679138183594,0.26677000522613525,120.30000305175781,-160.5,-26.100000381469727
114861,0.702817976474762,11.507074356079102,-1.2010711431503296,-1.1509219408035278,-2.1112940311431885,0.7926880121231079,101.10000610351562,-167.70001220703125,-27.30000114440918
114882,0.2266961932182312,10.12057876586914,-0.5203843712806702,-1.7683039903640747,-2.850627899169922,0.3734779953956604,113.10000610351562,-170.10000610351562,-27.30000114440918
114902,-0.06998272985219955,9.25506591796875,-0.24224790930747986,-1.7987920045852661,-2.5152599811553955,0.7012239694595337,108.30000305175781,-160.5,-18.900001525878906
114922,-0.04844957962632179,8.731093406677246,-0.5401231050491333,-1.4329359531402588,-2.0045859813690186,1.295740008354187,108.30000305175781,-160.5,-27.30000114440918
114946,0.2691643238067627,8.542677879333496,-0.5502915382385254,-0.8765299916267395,-2.1494040489196777,2.073184013366699,110.70000457763672,-160.5,-24.900001525878906
114966,0.48629024624824524,8.906349182128906,-0.7512675523757935,-0.26677000522613525,-1.882633924484253,2.8582499027252197,117.9000015258789,-184.5,-28.500001907348633
114986,0.6914532780647278,9.715636253356934,-0.9923191666603088,0.1448179930448532,-1.9207439422607422,3.102154016494751,96.30000305175781,-174.90000915527344,-28.500001907348633
115006,0.8978126049041748,9.826292991638184,-1.1478363275527954,0,-1.8521459102630615,2.2561118602752686,81.9000015258789,-174.90000915527344,-25.500001907348633
115026,0.9558324813842773,9.721617698669434,-1.199874758720398,0.08384199440479279,-1.92836594581604,2.088428020477295,101.10000610351562,-182.10000610351562,-18.900001525878906
115107,0.809287428855896,9.456042289733887,-1.2142301797866821,-0.08384199440479279,-0.800309956073761,1.425313949584961,79.5,-167.70001220703125,-27.30000114440918
115127,0.7775858640670776,9.420153617858887,-1.211837649345398,0.038109999150037766,-0.6707359552383423,1.3795819282531738,98.70000457763672,-172.5,-24.900001525878906
115147,0.8379983305931091,9.398022651672363,-1.2441374063491821,0.10670799762010574,-0.5640279650688171,1.5015339851379395,84.30000305175781,-162.90000915527344,-25.500001907348633
115167,0.7261455655097961,8.914124488830566,-1.2232023477554321,0.12195199728012085,-0.39634400606155396,1.471045970916748,98.70000457763672,-172.5,-19.5
115187,0.8463723063468933,8.87883472442627,-1.1448456048965454,0.5259180068969727,-0.2439039945602417,2.027451992034912,91.5,-177.3000030517578,-20.700000762939453
115207,0.7596415877342224,9.223962783813477,-1.3230922222137451,0.800309956073761,0.19817200303077698,2.0655620098114014,86.70000457763672,-167.70001220703125,-27.30000114440918
115227,0.724351167678833,9.292749404907227,-1.2889981269836426,0.9908599853515625,-0.17530599236488342,1.4100699424743652,93.9000015258789,-162.90000915527344,-25.500001907348633
115290,1.5521810054779053,8.64376449584961,-1.518684983253479,1.1585439443588257,-0.6250039935112,1.417691946029663,79.5,-182.10000610351562,-26.100000381469727
115310,1.8680005073547363,9.055286407470703,-1.4780112504959106,1.295740008354187,-0.7850660085678101,1.3490939140319824,69.9000015258789,-174.90000915527344,-27.900001525878906
115330,1.930207371711731,9.23114013671875,-1.5665364265441895,0.9298839569091797,-0.3887220025062561,0.9070180058479309,81.9000015258789,-162.90000915527344,-24.900001525878906
115351,1.8763744831085205,9.357348442077637,-1.8937206268310547,0.7012239694595337,0.06859800219535828,0.07621999830007553,79.5,-170.10000610351562,-25.500001907348633
115371,2.2759339809417725,9.833470344543457,-2.1862125396728516,0.9756159782409668,-0.09908600151538849,-0.5640279650688171,81.9000015258789,-172.5,-33.900001525878906
115392,2.140753746032715,8.824402809143066,-1.9014965295791626,0.2743920087814331,-0.06859800219535828,-1.6158639192581177,77.10000610351562,-160.5,-20.700000762939453
115434,1.848261833190918,8.046817779541016,-2.164679527282715,1.1128119230270386,0.25152599811553955,-2.332331895828247,62.70000076293945,-174.90000915527344,-21.30000114440918
115461,1.3015590906143188,6.96058988571167,-2.6096978187561035,2.6219680309295654,0.05335399881005287,-2.7210538387298584,91.5,-162.90000915527344,-24.900001525878906
115481,1.436739444732666,8.040237426757812,-3.2658605575561523,3.567095994949341,-0.48018598556518555,-1.4481799602508545,81.9000015258789,-177.3000030517578,-22.5
115523,1.3183071613311768,8.84593677520752,-4.791723251342773,3.3308138847351074,0.07621999830007553,-0.8079319596290588,84.30000305175781,-167.70001220703125,-20.100000381469727
115565,1.648482084274292,10.081101417541504,-5.496933937072754,1.9588539600372314,0.457319974899292,1.1737879514694214,86.70000457763672,-165.3000030517578,-16.5
115661,0.2266961932182312,9.035547256469727,-5.047130584716797,0.02286599949002266,1.5625100135803223,-4.199721813201904,93.9000015258789,-160.5,-19.5
115706,0.05861801281571388,7.606584072113037,-4.092494010925293,-1.7683039903640747,1.8521459102630615,-1.707327961921692,98.70000457763672,-165.3000030517578,-21.30000114440918
115727,0.44083136320114136,7.7004923820495605,-3.5756986141204834,-2.3551979064941406,2.850627899169922,0.8765299916267395,113.10000610351562,-167.70001220703125,-11.700000762939453
115767,1.0629000663757324,7.936758995056152,-3.44590163230896,-2.439039945602417,2.888737916946411,1.2652519941329956,96.30000305175781,-174.90000915527344,-9.300000190734863
115787,1.3362513780593872,8.010929107666016,-3.2538976669311523,-2.195136070251465,2.439039945602417,1.5929979085922241,91.5,-162.90000915527344,-18.30000114440918
115834,1.3823083639144897,7.640678405761719,-3.8550314903259277,-1.5396440029144287,2.3094658851623535,1.4329359531402588,89.10000610351562,-172.5,-14.700000762939453
115854,1.5611531734466553,8.091079711914062,-4.005763530731201,-0.7545779943466187,1.3948259353637695,1.7987920045852661,86.70000457763672,-177.3000030517578,-26.100000381469727
115874,1.5820881128311157,8.66649341583252,-4.067970275878906,-0.6173819899559021,1.4558019638061523,1.5625100135803223,74.70000457763672,-170.10000610351562,-15.300000190734863
115894,1.3440272808074951,8.710158348083496,-4.4430060386657715,-0.685979962348938,1.806414008140564,0.7317119836807251,79.5,-172.5,-24.900001525878906
115914,1.4774131774902344,8.970948219299316,-4.389771461486816,-0.6631140112876892,0.9375059604644775,0.4039659798145294,72.30000305175781,-158.10000610351562,-14.100000381469727
115937,1.5982379913330078,8.99008846282959,-3.7599267959594727,-1.9054999351501465,0.7926880121231079,0.16768398880958557,81.9000015258789,-174.90000915527344,-22.5
116019,1.2620816230773926,8.273513793945312,-3.585268974304199,-1.8369019031524658,1.196653962135315,-0.41158798336982727,84.30000305175781,-172.5,-23.700000762939453
116064,1.9625071287155151,8.417067527770996,-2.4876766204833984,-1.8902559280395508,0.6097599864006042,1.5625100135803223,77.10000610351562,-165.3000030517578,-24.900001525878906
116085,2.1359684467315674,8.764589309692383,-2.521172523498535,-2.187514066696167,1.5320219993591309,1.9969639778137207,77.10000610351562,-172.5,-27.30000114440918
116130,2.2310733795166016,8.062369346618652,-2.119220495223999,-1.9588539600372314,1.1661659479141235,2.187514066696167,77.10000610351562,-179.70001220703125,-23.100000381469727
116151,2.548687219619751,8.890796661376953,-2.536126136779785,-1.4634239673614502,1.0975680351257324,2.545747995376587,65.10000610351562,-179.70001220703125,-23.700000762939453
116213,2.0253121852874756,8.1066312789917,-1.3171107769012451,-2.6219680309295654,-2.5076379776000977,-0.19054999947547913,53.10000228881836,-165.3000030517578,-30.900001525878906
116301,2.0079660415649414,9.947715759277344,-0.15312460064888,-2.5228819847106934,-1.3948259353637695,-3.2850818634033203,69.9000015258789,-167.70001220703125,-30.900001525878906
116321,1.6568560600280762,9.363927841186523,0.13458216190338135,-2.5533699989318848,-0.6250039935112,-2.7134318351745605,65.10000610351562,-179.70001220703125,-25.500001907348633
116365,1.1448456048965454,8.817225456237793,-0.18183545768260956,-1.1585439443588257,1.1585439443588257,-0.07621999830007553,69.9000015258789,-179.70001220703125,-26.700000762939453
116405,1.508516550064087,9.14859676361084,-0.09809544682502747,0.2439039945602417,0.36585599184036255,0.800309956073761,65.10000610351562,-172.5,-25.500001907348633
116425,1.8339062929153442,9.277795791625977,-0.1914057433605194,0.5335400104522705,0.09908600151538849,0.9908599853515625,62.70000076293945,-174.90000915527344,-23.700000762939453
116448,2.0127511024475098,8.817225456237793,-0.2518181800842285,0.3201240003108978,0.05335399881005287,1.0594580173492432,62.70000076293945,-165.3000030517578,-30.900001525878906
116488,2.2914857864379883,8.801673889160156,-0.5634506940841675,0.571649968624115,-0.038109999150037766,1.9512319564819336,55.500003814697266,-179.70001220703125,-30.30000114440918
116540,2.22987699508667,8.91651725769043,-0.711790144443512,0.4344539940357208,-0.09908600151538849,1.6768399477005005,45.900001525878906,-179.70001220703125,-27.30000114440918
116603,2.247223138809204,8.86687183380127,-0.6274519562721252,-0.030487999320030212,0.07621999830007553,-0.030487999320030212,57.900001525878906,-174.90000915527344,-25.500001907348633
116627,2.4452085494995117,9.567296981811523,-0.8619239926338196,0.18292799592018127,0.44969800114631653,-0.18292799592018127,48.30000305175781,-174.90000915527344,-28.500001907348633
116647,3.21382212638855,11.466401100158691,-1.4720298051834106,0.6173819899559021,1.3795819282531738,0.8384199738502502,55.500003814697266,-172.5,-20.100000381469727
116670,4.419678211212158,13.41515064239502,-2.2274844646453857,-0.04573199898004532,1.2347639799118042,1.2347639799118042,53.10000228881836,-179.70001220703125,-26.100000381469727
116690,3.3011510372161865,9.902256965637207,-1.2387540340423584,-0.7926880121231079,-0.6021379828453064,-3.9786839485168457,45.900001525878906,-172.5,-23.100000381469727
116710,1.7136796712875366,6.032271862030029,-0.9408788681030273,1.3338500261306763,0.5945159792900085,-4.260697841644287,57.900001525878906,-174.90000915527344,-21.900001525878906
116730,2.2544009685516357,7.908646583557129,-1.8034011125564575,1.371959924697876,1.4405579566955566,2.3094658851623535,53.10000228881836,-182.10000610351562,-24.30000114440918
116754,2.575005531311035,10.411874771118164,-2.051032304763794,-0.20579399168491364,1.6844619512557983,0.9908599853515625,57.900001525878906,-179.70001220703125,-17.700000762939453
116774,2.155109167098999,8.83995532989502,-2.375225782394409,0.007621999830007553,1.2652519941329956,-1.0061039924621582,45.900001525878906,-172.5,-28.500001907348633
116794,2.1030707359313965,9.028369903564453,-2.348907470703125,0.1600620001554489,0.7317119836807251,-0.9603719711303711,72.30000305175781,-172.5,-24.900001525878906
116856,2.065985918045044,8.490639686584473,-2.6372122764587402,-1.7683039903640747,2.4695279598236084,0.4344539940357208,45.900001525878906,-167.70001220703125,-28.500001907348633
116902,1.321895956993103,8.257962226867676,-3.755141496658325,-1.829279899597168,2.6600780487060547,1.0442140102386475,55.500003814697266,-170.10000610351562,-24.900001525878906
116921,1.622761845588684,8.67247486114502,-4.300647735595703,-0.5335400104522705,1.6920839548110962,1.3872039318084717,60.30000305175781,-174.90000915527344,-29.100000381469727
116961,1.5856770277023315,8.777748107910156,-4.0255022048950195,1.9131219387054443,-1.2271419763565063,1.1356779336929321,43.5,-184.5,-26.700000762939453
116981,1.5270589590072632,8.96436882019043,-3.7007105350494385,1.981719970703125,-2.1036720275878906,-0.114329993724823,48.30000305175781,-172.5,-25.500001907348633
117001,1.102975606918335,7.890702247619629,-3.2389442920684814,1.3872039318084717,-2.1570260524749756,-1.7683039903640747,60.30000305175781,-177.3000030517578,-26.700000762939453
117021,1.2381559610366821,8.013919830322266,-3.386685609817505,1.5396440029144287,-1.3567159175872803,-1.2881180047988892,65.10000610351562,-158.10000610351562,-21.900001525878906
117041,1.9290111064910889,9.18747615814209,-3.436331272125244,0.7850660085678101,-1.4329359531402588,-0.3125019967556,48.30000305175781,-177.3000030517578,-19.5
117061,2.2017643451690674,9.718626976013184,-3.233560800552368,-0.007621999830007553,-0.8917739987373352,0.15243999660015106,62.70000076293945,-184.5,-21.900001525878906
117081,2.856132745742798,10.655319213867188,-3.4746124744415283,-0.5640279650688171,-0.5945159792900085,1.1814099550247192,57.900001525878906,-184.5,-29.100000381469727
117102,2.4990413188934326,9.081604957580566,-2.509807825088501,-1.8978779315948486,-1.7149499654769897,-0.6250039935112,57.900001525878906,-174.90000915527344,-22.5
117122,2.324383497238159,8.206521987915039,-1.9044872522354126,-1.1814099550247192,-0.8612859845161438,0.228659987449646,60.30000305175781,-182.10000610351562,-22.5
117186,2.1150336265563965,8.854310035705566,-1.5737141370773315,-1.5091559886932373,-0.853663980960846,-0.7698220014572144,57.900001525878906,-172.5,-25.500001907348633
117206,2.271148920059204,9.10194206237793,-1.2094451189041138,-1.14329993724823,-0.914639949798584,-1.1814099550247192,60.30000305175781,-177.3000030517578,-28.500001907348633
117246,2.1060614585876465,8.671278953552246,-1.1639862060546875,-0.9908599853515625,-0.3582339882850647,-1.2500079870224,67.5,-172.5,-24.900001525878906
117286,2.068976640701294,8.98111629486084,-1.455880045890808,0.06859800219535828,0.49542999267578125,0.15243999660015106,55.500003814697266,-179.70001220703125,-21.30000114440918
117322,2.1826236248016357,9.28497314453125,-1.7250443696975708,0.44969800114631653,0.7621999979019165,0.7240899801254272,48.30000305175781,-174.90000915527344,-24.900001525878906
117342,2.2490174770355225,9.48415470123291,-1.7998121976852417,0.6097599864006042,0.7469559907913208,0.6402480006217957,67.5,-174.90000915527344,-29.700000762939453
117384,2.2017643451690674,9.447070121765137,-1.9864327907562256,0.41158798336982727,0.8231759667396545,-0.2134159952402115,43.5,-177.3000030517578,-27.900001525878906
117404,2.1389591693878174,9.439892768859863,-2.1084539890289307,0.3734779953956604,0.7926880121231079,-0.4420759975910187,48.30000305175781,-165.3000030517578,-26.100000381469727
117424,2.002582550048828,9.040332794189453,-2.22688627243042,-0.015243999660015106,0.7698220014572144,-0.8307979702949524,60.30000305175781,-170.10000610351562,-20.700000762939453
117444,1.8787670135498047,8.871058464050293,-2.2011661529541016,0.35061198472976685,0.5030519962310791,-0.6707359552383423,48.30000305175781,-177.3000030517578,-26.100000381469727
117464,1.9577219486236572,8.982911109924316,-2.128790855407715,0.228659987449646,0.41158798336982727,-0.5792719721794128,53.10000228881836,-177.3000030517578,-22.5
117484,1.912263035774231,9.093567848205566,-2.1359684467315674,0.13719600439071655,0.5792719721794128,-0.36585599184036255,57.900001525878906,-174.90000915527344,-21.900001525878906
117504,1.9595164060592651,9.253870010375977,-2.19697904586792,-0.18292799592018127,0.7926880121231079,-0.41158798336982727,53.10000228881836,-186.90000915527344,-27.30000114440918
117564,1.9104686975479126,8.88960075378418,-2.351898193359375,0,0.800309956073761,-0.25152599811553955,62.70000076293945,-177.3000030517578,-28.500001907348633
117588,2.0169382095336914,9.080408096313477,-2.351300001144409,0.16768398880958557,0.5487840175628662,-0.015243999660015106,50.70000076293945,-179.70001220703125,-26.700000762939453
117608,2.0259101390838623,9.118091583251953,-2.358477830886841,0.07621999830007553,0.5792719721794128,-0.038109999150037766,57.900001525878906,-182.10000610351562,-29.100000381469727
117630,2.065985918045044,8.963770866394043,-2.3291687965393066,-0.015243999660015106,0.5182960033416748,-0.10670799762010574,53.10000228881836,-172.5,-22.5
117650,1.9912179708480835,9.04093074798584,-2.3620665073394775,0.060975998640060425,0.4878079891204834,-0.007621999830007553,50.70000076293945,-177.3000030517578,-22.5
117670,2.1006782054901123,9.19644832611084,-2.378814697265625,0.015243999660015106,0.36585599184036255,0.09908600151538849,62.70000076293945,-182.10000610351562,-24.900001525878906
117690,2.0905096530914307,9.117493629455566,-2.2968690395355225,-0.02286599949002266,0.3887220025062561,-0.04573199898004532,53.10000228881836,-182.10000610351562,-22.5
117710,2.0641913414001465,9.089380264282227,-2.295074462890625,-0.015243999660015106,0.4192099869251251,-0.1448179930448532,62.70000076293945,-184.5,-21.30000114440918
117730,2.026508331298828,8.994874000549316,-2.2735414505004883,-0.04573199898004532,0.39634400606155396,-0.2134159952402115,60.30000305175781,-174.90000915527344,-24.30000114440918
117750,1.9876290559768677,8.94343376159668,-2.2849061489105225,0.030487999320030212,0.35061198472976685,-0.07621999830007553,53.10000228881836,-184.5,-18.30000114440918
117810,1.8907299041748047,9.217981338500977,-2.2609803676605225,-0.09146399796009064,-0.07621999830007553,0,53.10000228881836,-170.10000610351562,-26.100000381469727
117852,1.9535349607467651,9.04392147064209,-2.2555971145629883,-0.25152599811553955,-0.2439039945602417,-0.25152599811553955,48.30000305175781,-172.5,-20.700000762939453
117872,1.9840402603149414,9.07382869720459,-2.292681932449341,-0.22103799879550934,-0.2972579896450043,-0.228659987449646,55.500003814697266,-174.90000915527344,-19.5
117892,2.0576117038726807,9.176709175109863,-2.3028504848480225,-0.19054999947547913,-0.3125019967556,-0.20579399168491364,45.900001525878906,-184.5,-25.500001907348633
117913,2.0253121852874756,9.117493629455566,-2.256195306777954,-0.35061198472976685,-0.3048799932003021,-0.26677000522613525,50.70000076293945,-184.5,-18.900001525878906
117933,2.136566638946533,9.162354469299316,-2.1975772380828857,-0.44969800114631653,-0.2743920087814331,-0.09908600151538849,62.70000076293945,-179.70001220703125,-21.900001525878906
117976,1.909272313117981,8.96735954284668,-2.304644823074341,-0.8155539631843567,-0.1600620001554489,0,50.70000076293945,-174.90000915527344,-26.100000381469727
117996,1.8398877382278442,8.988892555236816,-2.2813172340393066,-0.6097599864006042,-0.4420759975910187,-0.16768398880958557,55.500003814697266,-172.5,-26.100000381469727
118019,1.83151376247406,9.100147247314453,-2.2221012115478516,-0.457319974899292,-0.510673999786377,-0.228659987449646,53.10000228881836,-186.90000915527344,-24.900001525878906
118039,1.8010084629058838,9.04810905456543,-2.205353021621704,-0.4878079891204834,-0.5564059615135193,-0.36585599184036255,53.10000228881836,-184.5,-23.100000381469727
118101,1.827326774597168,9.046314239501953,-2.2065494060516357,-0.2439039945602417,-0.48018598556518555,-0.457319974899292,48.30000305175781,-170.10000610351562,-20.100000381469727
118164,1.8841503858566284,9.096558570861816,-2.253204584121704,-0.1600620001554489,0.04573199898004532,-0.36585599184036255,53.10000228881836,-177.3000030517578,-23.100000381469727
118184,1.8542431592941284,9.00205135345459,-2.298663377761841,-0.1448179930448532,0.19054999947547913,-0.2743920087814331,53.10000228881836,-182.10000610351562,-22.5
118204,1.8793652057647705,9.12467098236084,-2.301055908203125,0.007621999830007553,0.26677000522613525,-0.12195199728012085,57.900001525878906,-177.3000030517578,-26.700000762939453
118224,1.8919261693954468,9.180896759033203,-2.3201966285705566,-0.15243999660015106,0.41158798336982727,-0.08384199440479279,55.500003814697266,-179.70001220703125,-15.90000057220459
118247,1.8895336389541626,9.10074520111084,-2.2974672317504883,-0.2591480016708374,0.4725639820098877,-0.08384199440479279,62.70000076293945,-182.10000610351562,-27.30000114440918
118267,1.8644115924835205,9.054688453674316,-2.301654100418091,-0.2896359860897064,0.5411620140075684,-0.09908600151538849,50.70000076293945,-182.10000610351562,-27.900001525878906
118287,1.9278148412704468,9.08997917175293,-2.2992615699768066,-0.3201240003108978,0.5030519962310791,-0.114329993724823,67.5,-179.70001220703125,-21.30000114440918
118307,1.8925243616104126,9.130054473876953,-2.3112244606018066,-0.3125019967556,0.510673999786377,-0.1448179930448532,60.30000305175781,-184.5,-20.100000381469727
118349,1.8781689405441284,9.07801628112793,-2.2615785598754883,-0.38109999895095825,0.36585599184036255,-0.19054999947547913,53.10000228881836,-189.3000030517578,-21.30000114440918
118369,1.934394359588623,9.067249298095703,-2.21193265914917,-0.4039659798145294,0.2743920087814331,-0.2591480016708374,60.30000305175781,-167.70001220703125,-31.500001907348633
118389,1.9367868900299072,9.107324600219727,-2.1975772380828857,-0.36585599184036255,0.3277460038661957,-0.16768398880958557,60.30000305175781,-167.70001220703125,-19.5
118409,1.8267285823822021,9.039734840393066,-2.1951847076416016,-0.4725639820098877,0.39634400606155396,-0.09146399796009064,55.500003814697266,-174.90000915527344,-27.30000114440918
118429,1.8572338819503784,9.110913276672363,-2.2400453090667725,-0.33536797761917114,0.28201398253440857,-0.02286599949002266,62.70000076293945,-167.70001220703125,-22.5
118452,1.8596265316009521,9.02298641204834,-2.2047550678253174,-0.2896359860897064,0.114329993724823,0.038109999150037766,62.70000076293945,-174.90000915527344,-17.100000381469727
118472,1.924225926399231,9.161157608032227,-2.167072057723999,-0.18292799592018127,0.038109999150037766,0.12195199728012085,60.30000305175781,-179.70001220703125,-32.10000228881836
118532,1.9385813474655151,9.08100700378418,-2.23884916305542,-0.10670799762010574,-0.2896359860897064,0.2439039945602417,48.30000305175781,-172.5,-17.100000381469727
118608,1.9469553232192993,9.07382869720459,-2.2244937419891357,-0.20579399168491364,-0.17530599236488342,-0.228659987449646,53.10000228881836,-167.70001220703125,-24.30000114440918
118664,1.958320140838623,9.097156524658203,-2.2047550678253174,-0.3125019967556,0.04573199898004532,0.007621999830007553,57.900001525878906,-170.10000610351562,-28.500001907348633
118700,1.9912179708480835,9.133045196533203,-2.2185122966766357,-0.4420759975910187,0.1295740008354187,0.007621999830007553,65.10000610351562,-177.3000030517578,-22.5
118720,1.948151707649231,9.05708122253418,-2.21193265914917,-0.4039659798145294,0.2134159952402115,0.007621999830007553,57.900001525878906,-170.10000610351562,-19.5
118760,2.011554718017578,9.05109977722168,-2.155707359313965,-0.22103799879550934,0.3201240003108978,-0.09908600151538849,50.70000076293945,-179.70001220703125,-23.100000381469727
118780,2.008563995361328,9.060669898986816,-2.1533145904541016,-0.2439039945602417,0.3734779953956604,-0.10670799762010574,41.10000228881836,-182.10000610351562,-26.100000381469727
118821,1.9822458028793335,9.053491592407227,-2.20595121383667,-0.09146399796009064,0.5564059615135193,-0.114329993724823,55.500003814697266,-174.90000915527344,-22.5
118841,1.9971994161605835,9.08698844909668,-2.250213861465454,-0.08384199440479279,0.49542999267578125,-0.1448179930448532,67.5,-170.10000610351562,-16.5
118863,1.9780588150024414,9.07801628112793,-2.2609803676605225,-0.060975998640060425,0.426831990480423,-0.19817200303077698,50.70000076293945,-174.90000915527344,-20.700000762939453
118883,1.9690866470336914,9.083398818969727,-2.2424380779266357,-0.12195199728012085,0.3887220025062561,-0.22103799879550934,62.70000076293945,-170.10000610351562,-27.30000114440918
118946,1.9296091794967651,8.984705924987793,-2.271148920059204,-0.09146399796009064,0.19054999947547913,-0.228659987449646,67.5,-174.90000915527344,-17.100000381469727
118966,1.9176464080810547,9.078614234924316,-2.2908875942230225,0,0.19054999947547913,-0.08384199440479279,38.70000076293945,-189.3000030517578,-27.900001525878906
118986,1.8871411085128784,9.007434844970703,-2.304046630859375,-0.13719600439071655,0.1600620001554489,-0.114329993724823,55.500003814697266,-179.70001220703125,-24.30000114440918
119006,1.949347972869873,9.107324600219727,-2.2753357887268066,-0.038109999150037766,0.1448179930448532,-0.007621999830007553,53.10000228881836,-177.3000030517578,-27.30000114440918
119026,1.9846383333206177,9.161157608032227,-2.3237855434417725,-0.13719600439071655,0.19054999947547913,0.015243999660015106,53.10000228881836,-186.90000915527344,-24.900001525878906
119050,1.933198094367981,8.90156364440918,-2.315411329269409,-0.23628199100494385,0.1448179930448532,0.13719600439071655,36.30000305175781,-182.10000610351562,-18.900001525878906
119070,1.9876290559768677,9.125268936157227,-2.355487108230591,-0.12195199728012085,0.06859800219535828,0.26677000522613525,67.5,-174.90000915527344,-22.5
119090,2.0037789344787598,9.135437965393066,-2.295672655105591,-0.2972579896450043,0.07621999830007553,0.18292799592018127,62.70000076293945,-177.3000030517578,-24.900001525878906
119110,1.9601144790649414,9.11270809173584,-2.3148133754730225,-0.3201240003108978,0.08384199440479279,-0.06859800219535828,43.5,-177.3000030517578,-26.700000762939453
119130,1.9846383333206177,8.97334098815918,-2.2944765090942383,-0.3887220025062561,0.060975998640060425,-0.2134159952402115,50.70000076293945,-170.10000610351562,-27.900001525878906
119150,2.021125078201294,8.97035026550293,-2.301654100418091,-0.3201240003108978,0.07621999830007553,-0.19817200303077698,57.900001525878906,-162.90000915527344,-24.30000114440918
119170,2.0247139930725098,8.991883277893066,-2.2639710903167725,-0.2896359860897064,0.12195199728012085,-0.15243999660015106,60.30000305175781,-182.10000610351562,-19.5
119190,2.0169382095336914,9.057679176330566,-2.2406435012817383,-0.2439039945602417,0.1295740008354187,-0.1295740008354187,62.70000076293945,-172.5,-23.100000381469727
119211,2.0635931491851807,9.159961700439453,-2.259186029434204,-0.28201398253440857,0.228659987449646,-0.19054999947547913,57.900001525878906,-170.10000610351562,-30.30000114440918
119231,2.0486397743225098,9.085193634033203,-2.253204584121704,-0.3734779953956604,0.2591480016708374,-0.2743920087814331,60.30000305175781,-179.70001220703125,-20.100000381469727
119251,2.0157418251037598,8.99128532409668,-2.2914857864379883,-0.342989981174469,0.28201398253440857,-0.22103799879550934,48.30000305175781,-177.3000030517578,-26.100000381469727
119271,2.0247139930725098,9.06605339050293,-2.2490174770355225,-0.23628199100494385,0.26677000522613525,-0.13719600439071655,55.500003814697266,-179.70001220703125,-23.700000762939453
119291,2.0157418251037598,9.10074520111084,-2.250213861465454,-0.2896359860897064,0.2591480016708374,-0.09908600151538849,67.5,-174.90000915527344,-24.30000114440918
119311,1.9834420680999756,9.06605339050293,-2.265167474746704,-0.38109999895095825,0.2439039945602417,-0.13719600439071655,43.5,-174.90000915527344,-21.900001525878906
119331,1.9971994161605835,9.019397735595703,-2.235260248184204,-0.3734779953956604,0.2134159952402115,-0.18292799592018127,50.70000076293945,-167.70001220703125,-21.900001525878906
119351,2.0193307399749756,8.99128532409668,-2.205353021621704,-0.2896359860897064,0.19817200303077698,-0.1600620001554489,50.70000076293945,-182.10000610351562,-23.100000381469727
119372,2.048041582107544,8.996668815612793,-2.2095401287078857,-0.2134159952402115,0.20579399168491364,-0.13719600439071655,62.70000076293945,-172.5,-21.30000114440918
119393,2.0408637523651123,9.082202911376953,-2.214325189590454,-0.16768398880958557,0.26677000522613525,-0.1295740008354187,55.500003814697266,-172.5,-27.30000114440918
119414,2.045050859451294,9.058277130126953,-2.1802310943603516,-0.19817200303077698,0.26677000522613525,-0.19054999947547913,62.70000076293945,-189.3000030517578,-27.900001525878906
119434,2.0133492946624756,9.066651344299316,-2.274139642715454,-0.12195199728012085,0.2743920087814331,-0.25152599811553955,53.10000228881836,-170.10000610351562,-25.500001907348633
119454,2.0259101390838623,9.086389541625977,-2.2274844646453857,-0.15243999660015106,0.2134159952402115,-0.2591480016708374,50.70000076293945,-179.70001220703125,-21.900001525878906
119519,2.0366768836975098,9.021790504455566,-2.253204584121704,-0.33536797761917114,0.19817200303077698,-0.015243999660015106,50.70000076293945,-186.90000915527344,-24.900001525878906
119539,2.1060614585876465,9.081604957580566,-2.1862125396728516,-0.2972579896450043,0.18292799592018127,-0.060975998640060425,53.10000228881836,-184.5,-21.30000114440918
119559,2.136566638946533,9.081604957580566,-2.25081205368042,-0.39634400606155396,0.228659987449646,-0.09146399796009064,53.10000228881836,-184.5,-24.900001525878906
119599,2.0917060375213623,9.155176162719727,-2.21492338180542,-0.15243999660015106,0.17530599236488342,-0.05335399881005287,50.70000076293945,-179.70001220703125,-24.30000114440918
119621,2.1000800132751465,9.09296989440918,-2.2185122966766357,-0.342989981174469,0.15243999660015106,-0.1448179930448532,48.30000305175781,-172.5,-22.5
119642,2.0109567642211914,9.037342071533203,-2.2226991653442383,-0.33536797761917114,0.16768398880958557,-0.2591480016708374,57.900001525878906,-174.90000915527344,-22.5
119663,2.0366768836975098,8.997864723205566,-2.211334466934204,-0.3277460038661957,0.13719600439071655,-0.3582339882850647,60.30000305175781,-184.5,-25.500001907348633
119683,2.027106523513794,9.04212760925293,-2.232269525527954,-0.2896359860897064,0.08384199440479279,-0.3277460038661957,43.5,-186.90000915527344,-17.700000762939453
119703,2.0438544750213623,9.02298641204834,-2.175446033477783,-0.2972579896450043,0.04573199898004532,-0.33536797761917114,50.70000076293945,-184.5,-27.900001525878906
119724,2.009162187576294,8.98709774017334,-2.2185122966766357,-0.2134159952402115,0.04573199898004532,-0.3125019967556,50.70000076293945,-179.70001220703125,-23.700000762939453
119745,1.83151376247406,9.06485652923584,-2.301654100418091,-0.23628199100494385,0.10670799762010574,-0.2134159952402115,55.500003814697266,-174.90000915527344,-26.700000762939453
119766,1.8691967725753784,9.111512184143066,-2.3477110862731934,-0.342989981174469,0.015243999660015106,-0.007621999830007553,60.30000305175781,-182.10000610351562,-23.100000381469727
119786,1.8799633979797363,9.050500869750977,-2.316607713699341,-0.5182960033416748,0,0.26677000522613525,67.5,-177.3000030517578,-23.700000762939453
119806,1.9589182138442993,9.06306266784668,-2.250213861465454,-0.6402480006217957,0.06859800219535828,0.510673999786377,57.900001525878906,-182.10000610351562,-19.5
119829,2.0193307399749756,9.04511833190918,-2.2197086811065674,-0.7240899801254272,0.10670799762010574,0.6478700041770935,55.500003814697266,-179.70001220703125,-25.500001907348633
119849,2.056415557861328,9.00803279876709,-2.1808292865753174,-0.7012239694595337,0.12195199728012085,0.6631140112876892,43.5,-170.10000610351562,-18.900001525878906
119870,2.130585193634033,9.017603874206543,-2.116229772567749,-0.5564059615135193,0.09146399796009064,0.571649968624115,55.500003814697266,-179.70001220703125,-22.5
119890,2.2071475982666016,9.029566764831543,-2.1323797702789307,-0.4039659798145294,0.06859800219535828,0.4192099869251251,50.70000076293945,-189.3000030517578,-28.500001907348633
119914,2.3034486770629883,9.080408096313477,-2.122211217880249,-0.19817200303077698,-0.030487999320030212,0.15243999660015106,50.70000076293945,-182.10000610351562,-24.30000114440918
119934,2.3590757846832275,9.07801628112793,-2.1569035053253174,-0.16768398880958557,-0.09146399796009064,-0.015243999660015106,57.900001525878906,-179.70001220703125,-21.30000114440918
119954,2.387786626815796,9.070240020751953,-2.175446033477783,-0.1295740008354187,-0.16768398880958557,-0.15243999660015106,60.30000305175781,-184.5,-23.100000381469727
119974,2.41410493850708,9.08698844909668,-2.1628849506378174,-0.20579399168491364,-0.19054999947547913,-0.2743920087814331,50.70000076293945,-174.90000915527344,-24.900001525878906
119994,2.3943662643432617,9.09296989440918,-2.18501615524292,-0.228659987449646,-0.22103799879550934,-0.4420759975910187,50.70000076293945,-182.10000610351562,-26.700000762939453
120017,2.43803071975708,9.17850399017334,-2.182025671005249,-0.17530599236488342,-0.228659987449646,-0.6250039935112,38.70000076293945,-182.10000610351562,-23.700000762939453
120038,2.435638189315796,9.08579158782959,-2.1832218170166016,-0.28201398253440857,-0.2134159952402115,-0.8765299916267395,57.900001525878906,-174.90000915527344,-21.900001525878906
120078,2.577996253967285,9.245495796203613,-2.1563053131103516,-0.19817200303077698,-0.04573199898004532,-0.7240899801254272,55.500003814697266,-182.10000610351562,-26.100000381469727
120098,2.48887300491333,8.900367736816406,-2.146136999130249,-0.48018598556518555,-0.07621999830007553,-0.6707359552383423,45.900001525878906,-172.5,-28.500001907348633
120118,2.5110042095184326,8.86866569519043,-2.134174108505249,-0.09146399796009064,-0.18292799592018127,-0.35061198472976685,48.30000305175781,-182.10000610351562,-22.5
120138,2.611492156982422,8.932068824768066,-2.068378448486328,-0.05335399881005287,-0.2134159952402115,-0.2896359860897064,53.10000228881836,-174.90000915527344,-28.500001907348633
120199,2.900395154953003,8.78492546081543,-2.011554718017578,-0.17530599236488342,-0.41158798336982727,-0.3125019967556,57.900001525878906,-174.90000915527344,-26.100000381469727
120223,3.0690715312957764,8.78313159942627,-1.9648996591567993,-0.09908600151538849,-0.39634400606155396,-0.3201240003108978,53.10000228881836,-172.5,-19.5
120243,3.052921772003174,8.671278953552246,-1.9726755619049072,0.015243999660015106,-0.44969800114631653,-0.4192099869251251,33.900001525878906,-177.3000030517578,-27.900001525878906
120266,3.154007911682129,8.708961486816406,-1.9971994161605835,0.18292799592018127,-0.457319974899292,-0.5259180068969727,45.900001525878906,-186.90000915527344,-21.30000114440918
120286,3.162980079650879,8.709559440612793,-2.042060136795044,0.39634400606155396,-0.5335400104522705,-0.7926880121231079,57.900001525878906,-186.90000915527344,-26.700000762939453
120306,3.1139323711395264,8.42663860321045,-2.0528266429901123,0.4878079891204834,-0.6783579587936401,-1.1280559301376343,55.500003814697266,-165.3000030517578,-19.5
120326,3.082230806350708,8.153286933898926,-2.0193307399749756,0.685979962348938,-0.9298839569091797,-1.3109840154647827,48.30000305175781,-186.90000915527344,-25.500001907348633
120350,2.947648525238037,7.708866596221924,-1.8614208698272705,0.6250039935112,-1.196653962135315,-1.5320219993591309,55.500003814697266,-170.10000610351562,-21.900001525878906
120370,2.6802785396575928,6.925299167633057,-1.6544634103775024,0.33536797761917114,-1.5091559886932373,-1.9588539600372314,45.900001525878906,-184.5,-17.700000762939453
120390,1.9026927947998047,5.583066463470459,-1.3577845096588135,0.04573199898004532,-1.7987920045852661,-2.8125178813934326,57.900001525878906,-174.90000915527344,-22.5
120410,0.7237529754638672,3.386685609817505,-0.7237529754638672,-0.6021379828453064,-2.3628199100494385,-3.864353895187378,65.10000610351562,-186.90000915527344,-24.900001525878906
120430,-1.110153317451477,0.8954200148582458,-0.026318291202187538,-1.2881180047988892,-1.9131219387054443,-3.6890478134155273,81.9000015258789,-182.10000610351562,-20.100000381469727
120452,-3.7186548709869385,0.5078234076499939,-1.2447354793548584,-1.935987949371338,2.0579400062561035,4.557955741882324,62.70000076293945,-182.10000610351562,-24.900001525878906
120472,-2.495452404022217,5.211021423339844,-2.2693543434143066,-1.7911700010299683,3.0259339809417725,13.612892150878906,53.10000228881836,-172.5,-32.70000076293945
120492,-1.0963960886001587,12.063945770263672,-3.054716110229492,-2.8277618885040283,5.907049655914307,19.13884162902832,45.900001525878906,-179.70001220703125,-23.100000381469727
120512,0.11663787811994553,16.187543869018555,-4.32636833190918,-3.612828016281128,6.844555854797363,13.7119779586792,29.100000381469727,-179.70001220703125,-24.30000114440918
120552,0.6418074369430542,14.220251083374023,-5.158384799957275,-2.3628199100494385,-0.23628199100494385,5.640279769897461,21.900001525878906,-179.70001220703125,-27.30000114440918
120572,4.796508312225342,18.586095809936523,-4.4729132652282715,-1.0289700031280518,0.1295740008354187,11.234827995300293,12.300000190734863,-182.10000610351562,-26.700000762939453
120592,11.209198951721191,19.599349975585938,-6.363643169403076,0.4344539940357208,6.806446075439453,18.833961486816406,7.500000476837158,-170.10000610351562,-29.700000762939453
120632,11.318060874938965,19.598752975463867,-5.873165607452393,0.6631140112876892,-2.4771499633789062,-17.347671508789062,-23.700000762939453,-177.3000030517578,-24.30000114440918
120676,6.956402778625488,16.28204917907715,-2.3853940963745117,-5.533571720123291,-9.35981559753418,-4.2911858558654785,12.300000190734863,-182.10000610351562,-26.100000381469727
120697,4.563232898712158,11.696685791015625,-0.7763895988464355,-1.1814099550247192,-3.1326420307159424,-8.78054428100586,17.100000381469727,-174.90000915527344,-22.5
120717,3.2766273021698,4.93288516998291,-1.3524012565612793,1.981719970703125,-1.295740008354187,-12.500080108642578,24.30000114440918,-184.5,-25.500001907348633
120737,1.1633881330490112,0.17705032229423523,0.12441373616456985,-0.7850660085678101,-2.637212038040161,-5.419241905212402,31.500001907348633,-179.70001220703125,-24.900001525878906
120757,-0.1752558946609497,-0.7739970088005066,0.9785618782043457,-4.260697841644287,-0.16768398880958557,0.8689079880714417,33.900001525878906,-179.70001220703125,-30.30000114440918
120801,1.6580523252487183,2.22090482711792,-0.30385664105415344,2.042695999145508,-1.9131219387054443,5.343021869659424,29.100000381469727,-189.3000030517578,-24.30000114440918
120821,2.2256898880004883,3.4171907901763916,1.0963960886001587,-2.195136070251465,-1.7149499654769897,2.332331895828247,38.70000076293945,-177.3000030517578,-36.30000305175781
120841,0.5640488266944885,-0.35410064458847046,0.7333232760429382,-3.399411916732788,0.46494197845458984,-1.1356779336929321,26.700000762939453,-174.90000915527344,-30.900001525878906
120861,0.2871086299419403,-1.627547025680542,0.6687238216400146,-1.295740008354187,-0.10670799762010574,0.6173819899559021,36.30000305175781,-177.3000030517578,-27.900001525878906
120881,0.176452174782753,-0.818857729434967,0.7393047213554382,-1.0365920066833496,0.7545779943466187,2.126538038253784,17.100000381469727,-182.10000610351562,-28.500001907348633
120921,-0.3253897726535797,-0.6244612336158752,0.2572014629840851,-0.2743920087814331,0.6402480006217957,0.8993960022926331,26.700000762939453,-174.90000915527344,-32.70000076293945
120941,-0.08074930310249329,-0.1662837415933609,0.27454763650894165,-0.030487999320030212,0.5564059615135193,0.5792719721794128,19.5,-179.70001220703125,-30.30000114440918
120961,-0.07536601275205612,-0.04486072435975075,0.2506219148635864,-0.2591480016708374,0.510673999786377,0.13719600439071655,14.700000762939453,-167.70001220703125,-31.500001907348633
120982,0.2075556069612503,0.08852516114711761,0.4151112139225006,-0.3201240003108978,0.17530599236488342,0.18292799592018127,14.700000762939453,-184.5,-30.30000114440918
121003,0.509019672870636,0.5736191272735596,0.6190779805183411,-0.685979962348938,0.33536797761917114,0.9375059604644775,7.500000476837158,-184.5,-26.100000381469727
121024,1.126901388168335,1.936188817024231,0.5467026829719543,-0.571649968624115,1.0747020244598389,2.431417942047119,21.900001525878906,-179.70001220703125,-26.100000381469727
121047,2.41709566116333,5.694321155548096,0.08015115559101105,1.478667974472046,3.1250200271606445,7.82017183303833,0.30000001192092896,-174.90000915527344,-25.500001907348633
121067,6.71654748916626,15.073801040649414,-2.6754934787750244,0.8155539631843567,8.826275825500488,21.85227394104004,-6.900000095367432,-172.5,-32.70000076293945
121087,10.690011024475098,19.599349975585938,-2.850151300430298,-8.170783996582031,4.878079891204834,16.61595916748047,-14.100000381469727,-165.3000030517578,-31.500001907348633
121107,9.54695987701416,19.594566345214844,-3.621755599975586,2.987823963165283,7.378095626831055,-1.7759259939193726,-33.30000305175781,-172.5,-27.30000114440918
121127,13.513245582580566,19.598154067993164,-7.030572414398193,10.335432052612305,12.263797760009766,4.969543933868408,-33.30000305175781,-179.70001220703125,-24.900001525878906
121172,15.659980773925781,19.599349975585938,-5.315098285675049,2.2561118602752686,-11.920807838439941,-17.408647537231445,-40.5,-160.5,-25.500001907348633
121192,10.542269706726074,19.36069107055664,-3.165372610092163,0.6631140112876892,-9.519877433776855,-17.172365188598633,-23.700000762939453,-174.90000915527344,-27.900001525878906
121212,6.089095592498779,13.826672554016113,-2.0277047157287598,-0.7698220014572144,-3.9863059520721436,-16.86748504638672,-6.900000095367432,-172.5,-29.700000762939453
121272,-1.6084064245224,-3.6103909015655518,0.8846534490585327,-2.3551979064941406,1.14329993724823,-10.411651611328125,38.70000076293945,-174.90000915527344,-26.700000762939453
121292,-2.3985533714294434,-3.9806413650512695,1.4552818536758423,-1.8597679138183594,1.4481799602508545,-3.056421995162964,50.70000076293945,-170.10000610351562,-30.900001525878906
121312,0.6382185220718384,1.5820881128311157,-0.13338588178157806,3.1173980236053467,0.9603719711303711,4.78661584854126,55.500003814697266,-184.5,-30.900001525878906
121334,2.2968690395355225,4.889220714569092,0.6836774349212646,-0.2591480016708374,-0.114329993724823,3.818621873855591,50.70000076293945,-177.3000030517578,-29.700000762939453
121354,0.403148353099823,0.7554545998573303,0.8009134531021118,-2.1570260524749756,1.371959924697876,-2.591480016708374,62.70000076293945,-184.5,-29.700000762939453
121374,-0.04306629300117493,-1.8410841226577759,0.9594213366508484,-0.17530599236488342,0.39634400606155396,-1.2500079870224,48.30000305175781,-177.3000030517578,-25.500001907348633
121394,-0.03887929394841194,-1.1274994611740112,1.23396897315979,-0.228659987449646,0.967993974685669,1.8978779315948486,53.10000228881836,-170.10000610351562,-33.900001525878906
121414,-0.4252796471118927,-0.42587780952453613,0.5413193702697754,0.20579399168491364,1.5015339851379395,1.1204339265823364,50.70000076293945,-177.3000030517578,-24.30000114440918
121434,-0.44501838088035583,-0.5694320797920227,0.39776507019996643,0.342989981174469,0.9832379817962646,0.342989981174469,45.900001525878906,-186.90000915527344,-21.30000114440918
121454,-0.30804362893104553,-0.2733513414859772,0.3223990499973297,0.4725639820098877,0.8917739987373352,0.3201240003108978,48.30000305175781,-184.5,-24.900001525878906
121514,-0.032299719750881195,-0.4695422351360321,0.10646945238113403,0.33536797761917114,0.13719600439071655,0.22103799879550934,33.900001525878906,-177.3000030517578,-27.30000114440918
121534,0.21892032027244568,0.412120521068573,-0.31103435158729553,1.013725996017456,0.8765299916267395,2.03507399559021,48.30000305175781,-162.90000915527344,-30.900001525878906
121578,6.637592315673828,16.4884090423584,-4.178627014160156,1.3643379211425781,10.190613746643066,20.99860954284668,33.900001525878906,-179.70001220703125,-30.900001525878906
121598,8.673670768737793,19.599349975585938,-4.651159763336182,-6.3719916343688965,7.942123889923096,14.862899780273438,12.300000190734863,-172.5,-35.10000228881836
121618,9.08997917175293,19.599349975585938,-6.008346080780029,3.567095994949341,7.919257640838623,2.187514066696167,2.700000047683716,-165.3000030517578,-24.30000114440918
121638,12.590311050415039,19.598154067993164,-7.388261795043945,10.381163597106934,10.388785362243652,8.437553405761719,-2.1000001430511475,-172.5,-33.30000305175781
121658,19.599349975585938,19.599349975585938,-11.417951583862305,-2.2637338638305664,11.440621376037598,24.687658309936523,-23.700000762939453,-172.5,-24.900001525878906
121678,16.948381423950195,19.599349975585938,-7.887113094329834,-1.2804960012435913,-4.093013763427734,-6.250040054321289,-42.900001525878906,-162.90000915527344,-24.900001525878906
121698,12.745230674743652,19.599349975585938,-7.3463921546936035,4.169233798980713,-12.332395553588867,-13.681489944458008,-35.70000076293945,-167.70001220703125,-24.900001525878906
121718,7.544377326965332,16.383136749267578,-3.6325223445892334,-5.640279769897461,-16.25772476196289,-9.870490074157715,-16.5,-177.3000030517578,-24.900001525878906
121760,1.8853466510772705,3.935182571411133,-1.3936731815338135,1.6920839548110962,-2.583858013153076,-15.480281829833984,24.30000114440918,-179.70001220703125,-18.30000114440918
121780,-0.714780867099762,-1.2782315015792847,0.4785143733024597,-2.9268479347229004,-6.326260089874268,-13.170815467834473,21.900001525878906,-184.5,-20.700000762939453
121800,-3.0918009281158447,-5.011839866638184,2.3859922885894775,-4.763750076293945,-2.6753220558166504,-10.160125732421875,33.900001525878906,-184.5,-29.100000381469727
121823,0.9755712151527405,2.47092866897583,-0.7231548428535461,2.7058098316192627,-1.7835479974746704,5.907049655914307,48.30000305175781,-186.90000915527344,-20.700000762939453
121905,-0.46415895223617554,-1.5210776329040527,1.3751306533813477,-1.1051899194717407,-1.3872039318084717,-0.15243999660015106,48.30000305175781,-174.90000915527344,-26.700000762939453
121942,-0.1884150356054306,-0.815867006778717,0.9402807354927063,-0.7850660085678101,0.28201398253440857,-0.19054999947547913,36.30000305175781,-179.70001220703125,-22.5
121962,-0.001196285942569375,-0.6962383985519409,0.7195659875869751,-0.7317119836807251,0.5564059615135193,0.46494197845458984,50.70000076293945,-177.3000030517578,-21.900001525878906
122006,0.022729432210326195,-0.8266335725784302,0.23148132860660553,-0.114329993724823,0.342989981174469,1.3567159175872803,36.30000305175781,-179.70001220703125,-30.30000114440918
122027,0.13159145414829254,-0.6693220138549805,0.25839775800704956,0.426831990480423,0.13719600439071655,1.8597679138183594,45.900001525878906,-184.5,-27.30000114440918
122047,0.5586655139923096,0.5574692487716675,0.23327575623989105,1.2347639799118042,0.4725639820098877,2.75154185295105,36.30000305175781,-174.90000915527344,-28.500001907348633
122067,1.5719196796417236,3.2568883895874023,-0.5532822608947754,1.8521459102630615,1.653973937034607,4.74850606918335,31.500001907348633,-186.90000915527344,-28.500001907348633
122089,2.6665213108062744,7.935562610626221,-1.5874714851379395,3.7424018383026123,6.036623954772949,10.465005874633789,31.500001907348633,-174.90000915527344,-25.500001907348633
122129,10.070335388183594,19.571237564086914,-5.136253833770752,-5.007653713226318,5.137228012084961,10.487872123718262,-4.5,-172.5,-30.30000114440918
122149,10.683431625366211,19.599349975585938,-5.3994364738464355,5.899427890777588,3.9863059520721436,-6.394857883453369,-6.900000095367432,-165.3000030517578,-33.30000305175781
122172,16.52190589904785,19.599349975585938,-10.486642837524414,7.942123889923096,14.527531623840332,14.7866792678833,-9.300000190734863,-174.90000915527344,-21.900001525878906
122192,18.05733871459961,19.599349975585938,-10.33292007446289,-1.7454379796981812,5.434485912322998,-1.4558019638061523,-18.900001525878906,-172.5,-29.100000381469727
122234,8.991883277893066,19.412132263183594,-6.378596782684326,-2.903981924057007,-15.56412410736084,-12.080869674682617,7.500000476837158,-177.3000030517578,-27.900001525878906
122296,0.01973871886730194,0.7829691767692566,-0.3798207938671112,-1.0518360137939453,-3.300325870513916,-19.352256774902344,45.900001525878906,-174.90000915527344,-22.5
122316,-2.286700487136841,-3.9190328121185303,1.4768149852752686,-5.030519962310791,-4.32167387008667,-12.233309745788574,69.9000015258789,-177.3000030517578,-20.700000762939453
122339,-1.8703930377960205,-3.5428009033203125,1.6819779872894287,-3.60520601272583,0.19054999947547913,-1.3567159175872803,69.9000015258789,-165.3000030517578,-23.100000381469727
122359,1.4804039001464844,3.451284885406494,0.8637184500694275,-1.0747020244598389,-0.6631140112876892,5.061007976531982,55.500003814697266,-170.10000610351562,-29.700000762939453
122421,-0.412120521068573,-1.405635952949524,1.0485446453094482,0.5792719721794128,0.23628199100494385,1.5320219993591309,62.70000076293945,-174.90000915527344,-23.100000381469727
122441,-0.4324573576450348,-0.28052905201911926,0.799717128276825,0.4192099869251251,0.9984819889068604,2.14178204536438,62.70000076293945,-184.5,-22.5
122461,-0.8374001383781433,-0.17705032229423523,0.5054308176040649,0.2134159952402115,0.9908599853515625,0.9527499675750732,67.5,-189.3000030517578,-25.500001907348633
122481,-0.7482768297195435,0.0957028716802597,0.17585402727127075,0.038109999150037766,0.4344539940357208,0.4344539940357208,74.70000457763672,-174.90000915527344,-28.500001907348633
122503,-0.6394148468971252,-0.07177715748548508,0.0927121639251709,-0.23628199100494385,-0.038109999150037766,-0.2439039945602417,60.30000305175781,-191.70001220703125,-30.900001525878906
122545,-0.17346146702766418,-0.8511574268341064,0.25660333037376404,-0.26677000522613525,-0.5792719721794128,0.457319974899292,69.9000015258789,-179.70001220703125,-24.30000114440918
122565,-0.16568560898303986,-1.2883999347686768,0.37443751096725464,-0.23628199100494385,-0.4420759975910187,1.7149499654769897,50.70000076293945,-172.5,-26.700000762939453
122589,0.8978126049041748,2.020526885986328,-0.03648672252893448,1.8521459102630615,0.9832379817962646,6.554919719696045,53.10000228881836,-177.3000030517578,-20.100000381469727
122609,1.2034636735916138,3.558950662612915,-0.4049427807331085,1.981719970703125,2.28659987449646,8.277491569519043,45.900001525878906,-179.70001220703125,-30.30000114440918
122629,5.0273919105529785,15.237691879272461,-4.059596538543701,3.955817937850952,10.5717134475708,27.362979888916016,12.300000190734863,-177.3000030517578,-21.900001525878906
122650,11.659003257751465,19.599349975585938,-5.3372297286987305,-8.910118103027344,8.925361633300781,27.279136657714844,0.30000001192092896,-179.70001220703125,-21.900001525878906
122674,11.888091087341309,19.599349975585938,-4.851537704467773,-1.5167779922485352,2.378063917160034,2.599102020263672,-11.700000762939453,-172.5,-33.30000305175781
122694,12.382157325744629,19.597557067871094,-5.3850812911987305,8.658592224121094,9.99244213104248,-4.8018598556518555,-9.300000190734863,-167.70001220703125,-30.900001525878906
122715,18.858850479125977,19.599349975585938,-10.511764526367188,4.100636005401611,20.358362197875977,14.443689346313477,-30.900001525878906,-170.10000610351562,-30.30000114440918
122735,17.34494972229004,19.599349975585938,-11.400007247924805,4.878079891204834,3.0792880058288574,-6.318637847900391,-30.900001525878906,-167.70001220703125,-23.100000381469727
122758,9.997361183166504,19.571237564086914,-7.370317459106445,-4.474113941192627,-17.54584312438965,-8.68145751953125,-9.300000190734863,-165.3000030517578,-23.700000762939453
122778,7.279399871826172,18.287025451660156,-4.4788947105407715,-8.772921562194824,-18.003164291381836,-7.530535697937012,-9.300000190734863,-182.10000610351562,-25.500001907348633
122798,3.8131613731384277,11.791790962219238,-0.031701575964689255,-4.352161884307861,-8.529017448425293,-11.814099311828613,9.90000057220459,-170.10000610351562,-27.30000114440918
122820,0.35529693961143494,1.5677326917648315,-2.560051918029785,-1.7987920045852661,-0.5411620140075684,-15.777539253234863,26.700000762939453,-174.90000915527344,-21.30000114440918
122841,-1.945160984992981,-2.9488449096679688,-0.005383286625146866,-5.03814172744751,-5.807963848114014,-10.350675582885742,43.5,-170.10000610351562,-36.900001525878906
122861,-1.9654978513717651,-4.029689311981201,0.8714942932128906,-2.942091941833496,-1.6920839548110962,-2.545747995376587,36.30000305175781,-186.90000915527344,-28.500001907348633
122881,0.9504491686820984,0.2105463296175003,-0.5281602144241333,0.228659987449646,-2.7744078636169434,3.910085916519165,45.900001525878906,-172.5,-25.500001907348633
122904,1.8697949647903442,2.4511899948120117,1.0024876594543457,-1.1661659479141235,-3.3384358882904053,3.506119966506958,43.5,-186.90000915527344,-23.700000762939453
122925,1.421785831451416,1.0646945238113403,0.32000648975372314,-2.1036720275878906,-0.2972579896450043,0.46494197845458984,36.30000305175781,-179.70001220703125,-29.100000381469727
122945,0.8427834510803223,-0.5939559936523438,1.0617038011550903,-2.3704419136047363,-1.1737879514694214,0.1600620001554489,57.900001525878906,-189.3000030517578,-29.100000381469727
122965,0.6986309885978699,-1.0832369327545166,1.2321745157241821,-1.5625100135803223,-0.5564059615135193,0.3887220025062561,41.10000228881836,-182.10000610351562,-26.100000381469727
122985,0.3235953450202942,-1.0856294631958008,1.2489224672317505,-0.8155539631843567,0.1448179930448532,0.1448179930448532,38.70000076293945,-177.3000030517578,-23.100000381469727
123008,0.24822933971881866,-0.03588857874274254,0.9534398913383484,0.228659987449646,0.39634400606155396,-0.35061198472976685,41.10000228881836,-179.70001220703125,-26.700000762939453
123028,0.32778236269950867,-0.19918161630630493,1.0957978963851929,-0.2972579896450043,0.18292799592018127,-0.9527499675750732,36.30000305175781,-182.10000610351562,-23.100000381469727
123090,-0.17286331951618195,-1.1956877708435059,0.4432239532470703,1.5091559886932373,-0.6936019659042358,-0.18292799592018127,38.70000076293945,-182.10000610351562,-26.700000762939453
123137,1.933198094367981,5.778659343719482,-0.6747052669525146,4.908567905426025,2.6677000522613525,10.167747497558594,38.70000076293945,-191.70001220703125,-29.700000762939453
123157,6.2404255867004395,15.590596199035645,-4.655346870422363,2.073184013366699,9.801891326904297,24.725767135620117,19.5,-160.5,-24.30000114440918
123197,12.428215026855469,19.598154067993164,-6.579572677612305,1.882633924484253,3.757645845413208,1.7606819868087769,-21.30000114440918,-177.3000030517578,-30.900001525878906
123217,14.0784912109375,19.598154067993164,-6.890008926391602,7.492425918579102,4.78661584854126,-2.2713558673858643,-21.30000114440918,-186.90000915527344,-27.900001525878906
123237,19.43785285949707,19.599349975585938,-9.818516731262207,-0.4725639820098877,9.24548625946045,14.352225303649902,-26.100000381469727,-172.5,-26.700000762939453
123257,18.89952278137207,19.599349975585938,-8.792701721191406,-2.4542839527130127,-2.652456045150757,-2.080806016921997,-33.30000305175781,-170.10000610351562,-30.30000114440918
123278,12.88220500946045,19.599349975585938,-6.3295488357543945,2.385685920715332,-10.091527938842773,-15.884247779846191,-26.100000381469727,-191.70001220703125,-30.900001525878906
123298,8.482863426208496,18.56695556640625,-4.612280368804932,-0.967993974685669,-8.727190017700195,-12.934534072875977,2.700000047683716,-177.3000030517578,-25.500001907348633
123318,4.9795403480529785,12.953384399414062,-2.5767998695373535,-2.042695999145508,-7.149435997009277,-17.065658569335938,14.700000762939453,-167.70001220703125,-24.30000114440918
123338,1.9804513454437256,5.130272388458252,-0.3134269118309021,0.7850660085678101,-6.760714054107666,-24.7867431640625,21.900001525878906,-182.10000610351562,-26.700000762939453
123358,-0.8553444743156433,-2.2699525356292725,0.43604621291160583,1.1204339265823364,-3.102154016494751,-23.43002700805664,57.900001525878906,-182.10000610351562,-21.30000114440918
123381,-3.3579745292663574,-6.120198726654053,0.811680018901825,-1.3567159175872803,-0.8917739987373352,-13.2775239944458,72.30000305175781,-182.10000610351562,-23.100000381469727
123401,-1.84646737575531,-2.315411329269409,-0.05323472619056702,1.0442140102386475,0.19817200303077698,0.6402480006217957,74.70000457763672,-174.90000915527344,-26.700000762939453
123421,-0.14893759787082672,2.8208422660827637,-0.2075556069612503,1.653973937034607,-0.9451279640197754,4.153989791870117,79.5,-177.3000030517578,-23.700000762939453
123441,0.9929173588752747,4.140944004058838,-0.5042345523834229,-0.15243999660015106,0.16768398880958557,0.038109999150037766,72.30000305175781,-189.3000030517578,-28.500001907348633
123461,-0.5323472619056702,0.08074930310249329,-0.010168430395424366,-1.4024479389190674,-0.48018598556518555,-4.458869934082031,77.10000610351562,-160.5,-23.700000762939453
123501,-0.3116324841976166,-0.7231548428535461,0.8003153204917908,-0.5487840175628662,-1.699705958366394,1.600619912147522,74.70000457763672,-174.90000915527344,-26.100000381469727
123523,-0.1632930338382721,-0.2649773359298706,0.8104837536811829,-1.2195199728012085,-0.853663980960846,1.7987920045852661,77.10000610351562,-182.10000610351562,-23.700000762939453
123543,0.0705808699131012,-0.32598790526390076,0.811680018901825,-1.6920839548110962,-0.114329993724823,2.088428020477295,77.10000610351562,-172.5,-17.700000762939453
123563,0.12022674083709717,-0.34213778376579285,0.6926495432853699,-2.3018438816070557,0.4878079891204834,2.8658719062805176,67.5,-170.10000610351562,-15.90000057220459
123585,-0.08314187079668045,-0.6280501484870911,0.4133167862892151,-1.9054999351501465,0.8307979702949524,3.353679895401001,57.900001525878906,-186.90000915527344,-19.5
123606,-0.07835672795772552,-0.8553444743156433,0.36426907777786255,-1.2118979692459106,0.5868939757347107,3.711913824081421,57.900001525878906,-167.70001220703125,-27.30000114440918
123626,0.032897863537073135,-1.0599093437194824,0.6699201464653015,-0.7926880121231079,0.5335400104522705,4.28356409072876,57.900001525878906,-179.70001220703125,-24.900001525878906
123646,0.9396826028823853,1.745381236076355,0.04785143584012985,1.882633924484253,1.9512319564819336,7.362851619720459,48.30000305175781,-179.70001220703125,-24.900001525878906
123666,1.633528470993042,6.992291450500488,-1.3960657119750977,3.8795979022979736,6.615895748138428,14.725703239440918,41.10000228881836,-177.3000030517578,-23.700000762939453
123687,7.735184669494629,18.47364616394043,-6.169246673583984,2.2180018424987793,16.250102996826172,33.51393508911133,2.700000047683716,-189.3000030517578,-24.900001525878906
123707,14.65510082244873,19.544919967651367,-7.965469837188721,-8.529017448425293,6.989373683929443,23.757774353027344,-9.300000190734863,-182.10000610351562,-27.900001525878906
123729,9.367517471313477,19.599349975585938,-2.9314987659454346,-2.9802019596099854,-8.39182186126709,-15.083937644958496,-23.700000762939453,-174.90000915527344,-15.300000190734863
123749,12.291837692260742,19.595762252807617,-6.262557029724121,10.609824180603027,9.946709632873535,-0.510673999786377,0.30000001192092896,-179.70001220703125,-29.700000762939453
123771,19.599349975585938,19.598752975463867,-9.14261531829834,-7.904013633728027,15.381196022033691,16.120529174804688,-16.5,-177.3000030517578,-22.5
123791,14.564183235168457,19.599349975585938,-7.57009744644165,0.7317119836807251,-5.678390026092529,-11.318669319152832,-21.30000114440918,-167.70001220703125,-27.30000114440918
123811,9.745543479919434,19.278745651245117,-4.936473846435547,3.7347798347473145,-11.943674087524414,-19.367502212524414,-6.900000095367432,-179.70001220703125,-24.900001525878906
123831,4.142139911651611,13.652613639831543,-1.2094451189041138,-3.8795979022979736,-6.661627769470215,-15.42692756652832,0.30000001192092896,-186.90000915527344,-28.500001907348633
123851,1.452889323234558,9.188074111938477,-2.584575891494751,0.08384199440479279,1.753059983253479,-17.157121658325195,12.300000190734863,-174.90000915527344,-26.100000381469727
123871,-0.2769401967525482,2.5971367359161377,-1.7537552118301392,1.0823240280151367,-4.375028133392334,-21.49403953552246,33.900001525878906,-167.70001220703125,-33.900001525878906
123914,-2.1353704929351807,-3.1049602031707764,-1.0844331979751587,1.8597679138183594,0.13719600439071655,-0.02286599949002266,74.70000457763672,-172.5,-28.500001907348633
123934,0.5694320797920227,2.387786626815796,-1.1699676513671875,3.0106899738311768,-3.917707920074463,6.806446075439453,65.10000610351562,-177.3000030517578,-24.900001525878906
123954,1.6789872646331787,3.752748966217041,-0.007775858510285616,-0.114329993724823,-2.7591638565063477,2.8277618885040283,65.10000610351562,-179.70001220703125,-26.700000762939453
123974,0.16748003661632538,-0.36905422806739807,-0.3696523606777191,-0.8231759667396545,-1.3186060190200806,-1.5929979085922241,74.70000457763672,-172.5,-17.100000381469727
123994,0.25122004747390747,-1.9098705053329468,0.00717771565541625,0.13719600439071655,-2.8582499027252197,1.5701320171356201,65.10000610351562,-170.10000610351562,-24.30000114440918
124014,0.6609479784965515,-0.812876284122467,0.7321270108222961,-0.6326259970664978,-1.8597679138183594,4.481735706329346,55.500003814697266,-174.90000915527344,-18.900001525878906
124034,0.4354480803012848,-0.13218960165977478,0.5682358145713806,-0.9832379817962646,-0.8307979702949524,4.17685604095459,72.30000305175781,-186.90000915527344,-27.30000114440918
124054,0.3636709153652191,-0.2368646115064621,0.699827253818512,-1.7835479974746704,0.2439039945602417,3.2850818634033203,67.5,-177.3000030517578,-24.30000114440918
124074,0.16149860620498657,-0.37563377618789673,0.5706284046173096,-2.080806016921997,0.800309956073761,2.782029867172241,53.10000228881836,-165.3000030517578,-24.30000114440918
124095,0.0544310100376606,-0.33615633845329285,0.4844958186149597,-1.5396440029144287,1.3033620119094849,2.3551979064941406,48.30000305175781,-174.90000915527344,-26.100000381469727
124115,0.8589333295822144,2.0109567642211914,-0.256005197763443,1.1051899194717407,2.2484898567199707,4.359784126281738,43.5,-189.3000030517578,-27.30000114440918
124135,1.028207778930664,6.3534746170043945,-1.320699691772461,3.6738038063049316,6.6768717765808105,10.693665504455566,45.900001525878906,-174.90000915527344,-30.30000114440918
124155,6.574787616729736,18.618396759033203,-6.529926776885986,4.1921000480651855,15.71656322479248,32.91941833496094,19.5,-182.10000610351562,-27.30000114440918
124175,14.242980003356934,19.523386001586914,-8.225662231445312,-10.28969955444336,5.884183883666992,19.840065002441406,-9.300000190734863,-162.90000915527344,-23.100000381469727
124195,5.887521266937256,15.524801254272461,-1.735212802886963,-2.385685920715332,-16.60833740234375,-28.369083404541016,0.30000001192092896,-174.90000915527344,-21.900001525878906
124215,2.0761542320251465,5.988607406616211,-1.4181970357894897,12.797337532043457,0.7012239694595337,-19.931529998779297,21.900001525878906,-182.10000610351562,-25.500001907348633
124235,6.817633628845215,19.599349975585938,-6.854120254516602,-0.4420759975910187,17.95743179321289,25.571809768676758,14.700000762939453,-174.90000915527344,-23.100000381469727
124258,19.436058044433594,19.46835708618164,-13.32542896270752,-7.652487754821777,17.660173416137695,27.980361938476562,-11.700000762939453,-174.90000915527344,-27.30000114440918
124278,1.552779197692871,6.182405948638916,1.2860074043273926,2.378063917160034,-33.39960479736328,-48.33110046386719,26.700000762939453,-182.10000610351562,-25.500001907348633
124298,-1.7106889486312866,-1.0156468152999878,7.312297821044922,8.78054428100586,-20.89952278137207,-36.18925476074219,50.70000076293945,-182.10000610351562,-23.700000762939453
124322,-0.5048326849937439,5.3372297286987305,-5.635105133056641,-6.3719916343688965,6.013757705688477,6.410101890563965,48.30000305175781,-170.10000610351562,-18.900001525878906
124342,0.500047504901886,8.115005493164062,-1.545601487159729,-7.896391868591309,-10.5717134475708,2.995445966720581,53.10000228881836,-182.10000610351562,-29.100000381469727
124362,0.9707860350608826,3.5876615047454834,2.241241693496704,0.6097599864006042,-2.03507399559021,-5.6097917556762695,65.10000610351562,-174.90000915527344,-23.100000381469727
124383,1.418795108795166,2.7012135982513428,-1.6813799142837524,-1.9054999351501465,3.612828016281128,-0.6173819899559021,60.30000305175781,-182.10000610351562,-25.500001907348633
124403,1.9756662845611572,5.356370449066162,-0.04665515199303627,-2.7210538387298584,-0.8612859845161438,3.6356940269470215,57.900001525878906,-177.3000030517578,-23.100000381469727
124424,2.399151563644409,4.81325626373291,-0.44980350136756897,-2.042695999145508,1.753059983253479,2.652456045150757,38.70000076293945,-184.5,-32.70000076293945
124444,2.6832692623138428,5.514878273010254,-0.22250919044017792,-1.9054999351501465,1.5853760242462158,4.519845962524414,45.900001525878906,-184.5,-26.700000762939453
124464,3.067875385284424,7.836271286010742,-0.7733988761901855,-0.2896359860897064,3.7805118560791016,6.379613876342773,41.10000228881836,-172.5,-23.100000381469727
124485,4.369434356689453,14.061742782592773,-2.8363940715789795,1.2195199728012085,7.484803676605225,14.20740795135498,19.5,-182.10000610351562,-30.30000114440918
124505,9.462023735046387,19.599349975585938,-4.303040504455566,-7.987855911254883,3.346057891845703,15.167779922485352,0.30000001192092896,-182.10000610351562,-32.70000076293945
124525,4.036268711090088,8.427236557006836,2.649773359298706,-5.7164998054504395,-8.132674217224121,-20.594642639160156,9.90000057220459,-177.3000030517578,-30.900001525878906
124545,-0.2308831810951233,2.3357481956481934,-2.566631555557251,12.469592094421387,9.801891326904297,-14.016858100891113,45.900001525878906,-174.90000915527344,-26.700000762939453
124568,1.7029130458831787,11.141609191894531,-3.9094624519348145,-5.937537670135498,-6.5244317054748535,7.766818046569824,26.700000762939453,-184.5,-25.500001907348633
124588,1.9936105012893677,11.028559684753418,1.9397776126861572,-0.09146399796009064,-6.859799861907959,-2.088428020477295,31.500001907348633,-182.10000610351562,-30.30000114440918
124608,2.6479790210723877,8.631202697753906,-2.2585878372192383,3.2622158527374268,1.0975680351257324,-6.242417812347412,36.30000305175781,-186.90000915527344,-23.700000762939453
124628,2.408721685409546,8.578566551208496,-0.08374001830816269,-2.4009299278259277,-2.088428020477295,-2.797273874282837,55.500003814697266,-174.90000915527344,-34.5
124648,2.4613583087921143,9.194653511047363,-0.827829897403717,-1.2881180047988892,1.9436099529266357,-2.545747995376587,45.900001525878906,-191.70001220703125,-32.70000076293945
124731,2.0157418251037598,8.90455436706543,-2.011554718017578,0.48018598556518555,1.3948259353637695,0.6707359552383423,43.5,-177.3000030517578,-24.30000114440918
124761,2.40513277053833,9.379480361938477,-1.9469553232192993,1.2804960012435913,0.6250039935112,1.196653962135315,48.30000305175781,-179.70001220703125,-27.30000114440918
124781,2.358477830886841,9.636083602905273,-1.8668042421340942,0.7164679765701294,0.5030519962310791,0.7926880121231079,38.70000076293945,-186.90000915527344,-28.500001907348633
124824,2.5714166164398193,9.340600967407227,-1.6765947341918945,-0.26677000522613525,0.18292799592018127,-0.8689079880714417,33.900001525878906,-172.5,-26.100000381469727
124866,2.554668664932251,8.942237854003906,-1.511507272720337,-0.46494197845458984,0.5335400104522705,-1.3109840154647827,48.30000305175781,-177.3000030517578,-32.70000076293945
124886,2.5265560150146484,8.840553283691406,-1.549788475036621,-0.3125019967556,0.7774440050125122,-1.196653962135315,38.70000076293945,-184.5,-27.30000114440918
124927,2.253204584121704,8.794496536254883,-2.0755560398101807,0.038109999150037766,0.46494197845458984,-0.6250039935112,38.70000076293945,-179.70001220703125,-29.100000381469727
125001,2.804692506790161,9.260449409484863,-2.333355665206909,-0.4192099869251251,0.426831990480423,0.08384199440479279,41.10000228881836,-179.70001220703125,-24.900001525878906
125022,2.712578296661377,9.012818336486816,-2.345318555831909,-1.1585439443588257,0.6554920077323914,0.1600620001554489,33.900001525878906,-186.90000915527344,-32.70000076293945
125061,2.730522632598877,9.337011337280273,-2.2968690395355225,-2.1036720275878906,0.6783579587936401,0.16768398880958557,48.30000305175781,-182.10000610351562,-36.900001525878906
125081,2.6898488998413086,9.47637939453125,-2.0492377281188965,-2.8811159133911133,0.7088459730148315,-0.15243999660015106,41.10000228881836,-172.5,-33.900001525878906
125125,2.1569035053253174,9.099549293518066,-1.408626675605774,-3.704291820526123,0.739333987236023,-1.6082419157028198,43.5,-182.10000610351562,-28.500001907348633
125145,2.0647895336151123,8.935657501220703,-1.0676852464675903,-3.201239824295044,0.6478700041770935,-1.9588539600372314,45.900001525878906,-170.10000610351562,-29.700000762939453
125165,2.002582550048828,9.045716285705566,-0.6142928600311279,-2.583858013153076,0.48018598556518555,-1.6615959405899048,53.10000228881836,-179.70001220703125,-37.5
125185,1.7429885864257812,9.088184356689453,-0.61249840259552,-1.7835479974746704,0.7850660085678101,-1.6768399477005005,48.30000305175781,-182.10000610351562,-31.500001907348633
125205,1.7537552118301392,9.02896785736084,-0.6794903874397278,-0.9527499675750732,0.6326259970664978,-1.5701320171356201,50.70000076293945,-184.5,-29.100000381469727
125229,1.8614208698272705,9.20841121673584,-0.8535500168800354,-0.35061198472976685,0.6250039935112,-1.1051899194717407,55.500003814697266,-179.70001220703125,-32.70000076293945
125249,1.7399978637695312,9.129456520080566,-1.1263031959533691,-0.09146399796009064,0.49542999267578125,-0.7621999979019165,45.900001525878906,-189.3000030517578,-33.30000305175781
125269,1.7830642461776733,9.1802978515625,-1.299764633178711,3.3917899131774902,1.3109840154647827,-0.44969800114631653,45.900001525878906,-177.3000030517578,-24.900001525878906
125289,1.9744699001312256,9.45843505859375,-1.739399790763855,2.5686140060424805,0.6783579587936401,-0.5030519962310791,55.500003814697266,-194.10000610351562,-32.70000076293945
125311,1.85543954372406,9.27420711517334,-1.6682207584381104,1.6615959405899048,0.3582339882850647,-0.8384199738502502,48.30000305175781,-162.90000915527344,-26.100000381469727
125353,2.030097246170044,10.574569702148438,-3.731813907623291,1.3414719104766846,3.9405739307403564,0.12195199728012085,60.30000305175781,-170.10000610351562,-30.30000114440918
125373,2.1030707359313965,8.621034622192383,-2.47391939163208,-3.254593849182129,-4.618931770324707,-3.4832539558410645,60.30000305175781,-196.50001525878906,-27.30000114440918
125396,1.4050378799438477,9.315478324890137,-1.2716519832611084,-2.5000159740448,-0.853663980960846,0.25152599811553955,72.30000305175781,-179.70001220703125,-37.5
125457,1.7693068981170654,9.460827827453613,-1.23695969581604,1.1661659479141235,0.9451279640197754,-1.2195199728012085,48.30000305175781,-174.90000915527344,-30.30000114440918
125664,2.095892906188965,9.218579292297363,-1.1484345197677612,-0.19817200303077698,2.294221878051758,0.007621999830007553,41.10000228881836,-160.5,-33.900001525878906
125706,1.3506067991256714,9.22934627532959,-1.4762169122695923,0.060975998640060425,0.6326259970664978,-0.4725639820098877,65.10000610351562,-162.90000915527344,-27.30000114440918
125726,1.4774131774902344,9.295740127563477,-1.5414143800735474,-0.342989981174469,0.8993960022926331,0.39634400606155396,60.30000305175781,-172.5,-32.10000228881836
125747,1.645491361618042,9.360339164733887,-1.3709436655044556,-0.7240899801254272,0.5640279650688171,0.7240899801254272,55.500003814697266,-162.90000915527344,-33.30000305175781
125767,1.8721874952316284,9.401013374328613,-1.3422328233718872,-1.0289700031280518,0.6783579587936401,0.20579399168491364,62.70000076293945,-155.70001220703125,-31.500001907348633
125787,1.4618613719940186,9.238916397094727,-1.3601771593093872,-0.5640279650688171,0.46494197845458984,-0.25152599811553955,65.10000610351562,-167.70001220703125,-27.900001525878906
125807,1.8883373737335205,9.243701934814453,-1.5402181148529053,-0.4192099869251251,0.457319974899292,0.19054999947547913,62.70000076293945,-170.10000610351562,-30.900001525878906
125827,2.1114447116851807,9.357946395874023,-1.2632780075073242,-0.5182960033416748,0.22103799879550934,0.4192099869251251,62.70000076293945,-165.3000030517578,-31.500001907348633
125847,2.026508331298828,9.450060844421387,-1.3380458354949951,-1.0442140102386475,0.4878079891204834,0.02286599949002266,45.900001525878906,-172.5,-25.500001907348633
125867,1.7047075033187866,9.345385551452637,-1.539620041847229,-0.7774440050125122,0.4725639820098877,-0.3582339882850647,72.30000305175781,-170.10000610351562,-37.5
125887,1.9571237564086914,9.462621688842773,-1.5569661855697632,-0.9908599853515625,-0.114329993724823,-0.6173819899559021,67.5,-177.3000030517578,-29.700000762939453
125910,1.7974196672439575,9.351366996765137,-1.2722500562667847,-0.7850660085678101,-0.7926880121231079,-1.2271419763565063,57.900001525878906,-172.5,-27.900001525878906
125930,1.8321119546890259,9.331029891967773,-1.2716519832611084,-0.800309956073761,-0.571649968624115,-0.8231759667396545,62.70000076293945,-177.3000030517578,-30.30000114440918
125950,1.5844807624816895,9.337610244750977,-1.2590909004211426,-0.8384199738502502,-0.5868939757347107,-0.7088459730148315,55.500003814697266,-165.3000030517578,-25.500001907348633
125991,1.630537748336792,8.927284240722656,-0.9725804924964905,-2.1646480560302734,-1.7759259939193726,-0.9222619533538818,74.70000457763672,-177.3000030517578,-29.100000381469727
126079,1.420589566230774,9.671972274780273,-1.3141200542449951,-1.1585439443588257,-0.35061198472976685,0.1295740008354187,67.5,-172.5,-38.70000076293945
126099,1.6221637725830078,9.409985542297363,-0.8924292922019958,-1.3948259353637695,-0.7545779943466187,-0.038109999150037766,74.70000457763672,-177.3000030517578,-36.900001525878906
126139,1.5007407665252686,9.2879638671875,-0.9366918802261353,-2.03507399559021,-0.46494197845458984,0.6402480006217957,60.30000305175781,-167.70001220703125,-29.700000762939453
126159,1.517488718032837,9.347180366516113,-0.8469704389572144,-1.875011920928955,-0.48018598556518555,0.7469559907913208,65.10000610351562,-170.10000610351562,-33.30000305175781
126201,1.745381236076355,9.16953182220459,-0.724949300289154,-1.9969639778137207,-0.41158798336982727,0.3277460038661957,57.900001525878906,-174.90000915527344,-30.900001525878906
126221,1.7836623191833496,9.21439266204834,-0.6567609906196594,-1.3567159175872803,-0.2743920087814331,0.4725639820098877,62.70000076293945,-167.70001220703125,-28.500001907348633
126243,1.8644115924835205,9.28497314453125,-0.6262556910514832,-0.9984819889068604,0.06859800219535828,0.457319974899292,67.5,-172.5,-35.70000076293945
126263,1.8028029203414917,9.310693740844727,-0.6621442437171936,-0.6936019659042358,0.2591480016708374,0.2896359860897064,62.70000076293945,-174.90000915527344,-36.30000305175781
126283,1.933198094367981,9.32086181640625,-0.6902570128440857,-0.4039659798145294,0.48018598556518555,0.04573199898004532,50.70000076293945,-170.10000610351562,-32.10000228881836
126303,1.0892183780670166,8.613258361816406,-1.82254159450531,8.193650245666504,0.914639949798584,-1.6768399477005005,50.70000076293945,-174.90000915527344,-35.10000228881836
126323,2.1036689281463623,8.903956413269043,-1.2375577688217163,-0.17530599236488342,1.9207439422607422,1.417691946029663,74.70000457763672,-186.90000915527344,-33.30000305175781
126343,1.9660959243774414,10.408884048461914,0.179442897439003,-0.04573199898004532,0,1.5701320171356201,69.9000015258789,-182.10000610351562,-29.700000762939453
126363,1.6251544952392578,9.284375190734863,-1.4750205278396606,0.7012239694595337,-0.7240899801254272,0.2134159952402115,60.30000305175781,-177.3000030517578,-29.700000762939453
126386,1.6251544952392578,9.51705265045166,-1.1388641595840454,-0.4725639820098877,0.8612859845161438,-0.2591480016708374,57.900001525878906,-179.70001220703125,-33.900001525878906
126406,1.7884474992752075,8.996668815612793,-0.7853617072105408,-0.38109999895095825,-0.10670799762010574,-0.44969800114631653,60.30000305175781,-186.90000915527344,-30.900001525878906
126428,1.4762169122695923,9.05409049987793,-1.324886679649353,0.685979962348938,-0.6097599864006042,0.7088459730148315,53.10000228881836,-172.5,-32.70000076293945
126448,2.000190019607544,9.700084686279297,-1.0957978963851929,0.5335400104522705,-1.8140360116958618,0.685979962348938,60.30000305175781,-177.3000030517578,-28.500001907348633
126468,1.7782790660858154,9.273608207702637,-1.1316864490509033,0.7545779943466187,-1.6387299299240112,-0.15243999660015106,57.900001525878906,-170.10000610351562,-36.30000305175781
126488,1.615584135055542,9.10971736907959,-1.0946016311645508,1.2500079870224,-2.3551979064941406,0.5182960033416748,50.70000076293945,-172.5,-29.700000762939453
126512,1.8925243616104126,8.935657501220703,-0.9660009145736694,1.14329993724823,-1.4862899780273438,1.3490939140319824,55.500003814697266,-174.90000915527344,-29.700000762939453
126532,2.0857245922088623,9.334619522094727,-1.1113495826721191,0.7698220014572144,0.4878079891204834,1.9664759635925293,41.10000228881836,-184.5,-27.30000114440918
126552,2.121613025665283,9.4913330078125,-1.2489224672317505,0.6631140112876892,1.425313949584961,1.4100699424743652,45.900001525878906,-167.70001220703125,-32.70000076293945
126572,2.1383612155914307,9.25925350189209,-1.3625696897506714,0.6554920077323914,1.2347639799118042,1.013725996017456,50.70000076293945,-172.5,-31.500001907348633
126592,2.0946967601776123,9.46142578125,-1.4702354669570923,0.28201398253440857,0.7240899801254272,0.20579399168491364,36.30000305175781,-174.90000915527344,-29.700000762939453
126615,2.217315912246704,10.045212745666504,-1.8087843656539917,-1.0289700031280518,0.6707359552383423,-1.3338500261306763,41.10000228881836,-182.10000610351562,-36.30000305175781
126635,2.1539127826690674,9.488940238952637,-1.3924767971038818,-1.0823240280151367,0.7545779943466187,-1.7149499654769897,65.10000610351562,-167.70001220703125,-29.700000762939453
126658,1.9924142360687256,9.266430854797363,-1.4164025783538818,-0.6021379828453064,-0.2591480016708374,-2.2713558673858643,50.70000076293945,-167.70001220703125,-32.10000228881836
126678,2.161688804626465,9.156970977783203,-1.0036839246749878,-0.5182960033416748,-0.5487840175628662,-2.7058098316192627,67.5,-162.90000915527344,-35.70000076293945
126701,2.1838200092315674,9.49432373046875,-0.9085791707038879,-0.5868939757347107,0.9832379817962646,-2.599102020263672,50.70000076293945,-160.5,-31.500001907348633
126721,2.020526885986328,9.371106147766113,-1.113144040107727,-0.5868939757347107,1.9131219387054443,-2.4237959384918213,62.70000076293945,-162.90000915527344,-29.100000381469727
126743,1.7507644891738892,9.336413383483887,-1.4481041431427002,-2.4237959384918213,2.126538038253784,-3.0716660022735596,62.70000076293945,-172.5,-33.30000305175781
126805,0.020935004577040672,8.668288230895996,-2.1832218170166016,7.8506598472595215,0.8231759667396545,-3.696669816970825,65.10000610351562,-167.70001220703125,-26.700000762939453
126846,1.23995041847229,9.50209903717041,-0.9839451909065247,0.6783579587936401,0.5640279650688171,-1.189031958580017,69.9000015258789,-174.90000915527344,-37.5
126866,1.2854092121124268,9.654027938842773,-1.2381559610366821,0.6402480006217957,0.5411620140075684,-1.1204339265823364,67.5,-186.90000915527344,-33.900001525878906
126886,1.1885100603103638,9.516454696655273,-1.1669769287109375,0.06859800219535828,0.6097599864006042,-1.2500079870224,89.10000610351562,-172.5,-29.700000762939453
126926,1.0700777769088745,9.46920108795166,-1.1675751209259033,-0.09146399796009064,0.18292799592018127,-1.3490939140319824,72.30000305175781,-167.70001220703125,-35.10000228881836
126946,1.1932952404022217,9.4793701171875,-1.0640963315963745,0.007621999830007553,0.05335399881005287,-1.3643379211425781,84.30000305175781,-172.5,-27.900001525878906
126966,1.1532196998596191,9.363927841186523,-1.0491427183151245,-0.10670799762010574,0.1295740008354187,-1.478667974472046,74.70000457763672,-177.3000030517578,-32.10000228881836
126986,1.0587130784988403,9.32205867767334,-1.110153317451477,0.1295740008354187,0.1600620001554489,-1.5091559886932373,81.9000015258789,-172.5,-30.900001525878906
127006,0.9779637455940247,9.320263862609863,-1.21004319190979,0.4420759975910187,0.02286599949002266,-1.5167779922485352,81.9000015258789,-162.90000915527344,-33.900001525878906
127029,1.0174411535263062,9.242505073547363,-1.223800539970398,0.6936019659042358,-0.17530599236488342,-1.417691946029663,79.5,-182.10000610351562,-31.500001907348633
127049,0.9570287466049194,9.258654594421387,-1.2824184894561768,0.9603719711303711,-0.26677000522613525,-1.1509219408035278,77.10000610351562,-174.90000915527344,-30.30000114440918
127110,1.094003438949585,9.491930961608887,-1.3003628253936768,1.067080020904541,-0.6783579587936401,-0.015243999660015106,81.9000015258789,-174.90000915527344,-36.30000305175781
127130,0.9725804924964905,9.633092880249023,-1.430757999420166,0.5411620140075684,-0.3887220025062561,0.6097599864006042,84.30000305175781,-167.70001220703125,-26.700000762939453
127150,0.9014014601707458,9.566699028015137,-1.5091147422790527,0.09146399796009064,-0.4420759975910187,0.914639949798584,96.30000305175781,-160.5,-30.30000114440918
127170,0.918149471282959,9.463818550109863,-1.5779011249542236,-0.060975998640060425,-0.49542999267578125,1.0594580173492432,72.30000305175781,-165.3000030517578,-26.700000762939453
127190,1.035983681678772,9.392041206359863,-1.6550616025924683,0.05335399881005287,-0.7012239694595337,1.021347999572754,84.30000305175781,-170.10000610351562,-26.100000381469727
127230,1.2447354793548584,9.188074111938477,-1.6736040115356445,0.33536797761917114,-1.0518360137939453,0.8155539631843567,81.9000015258789,-172.5,-29.100000381469727
127251,1.3781213760375977,9.140222549438477,-1.7687088251113892,0.6631140112876892,-1.2271419763565063,0.7774440050125122,81.9000015258789,-165.3000030517578,-29.100000381469727
127271,1.615584135055542,9.095361709594727,-1.7794753313064575,0.9070180058479309,-1.5929979085922241,0.9603719711303711,74.70000457763672,-167.70001220703125,-21.30000114440918
127293,1.6676225662231445,9.072632789611816,-1.81955087184906,0.9222619533538818,-1.478667974472046,1.013725996017456,77.10000610351562,-179.70001220703125,-34.5
127314,1.7872512340545654,9.125866889953613,-1.8751782178878784,1.021347999572754,-1.6387299299240112,1.1585439443588257,84.30000305175781,-162.90000915527344,-26.100000381469727
127335,1.8380934000015259,9.29693603515625,-1.927216649055481,0.9298839569091797,-1.6387299299240112,1.189031958580017,65.10000610351562,-160.5,-32.70000076293945
127355,1.6837724447250366,9.00025749206543,-1.848261833190918,0.7850660085678101,-1.6615959405899048,1.1204339265823364,81.9000015258789,-167.70001220703125,-24.900001525878906
127375,1.9379832744598389,9.182690620422363,-1.606611967086792,1.14329993724823,-1.8521459102630615,1.6158639192581177,74.70000457763672,-170.10000610351562,-27.900001525878906
127399,1.9852365255355835,9.66838264465332,-1.1867156028747559,0.3734779953956604,-1.5472660064697266,1.8140360116958618,79.5,-174.90000915527344,-25.500001907348633
127419,1.5802937746047974,9.20542049407959,-1.3500087261199951,-0.39634400606155396,-0.8689079880714417,1.6615959405899048,79.5,-172.5,-27.900001525878906
127439,1.2453336715698242,9.29813289642334,-1.2154265642166138,-0.06859800219535828,-0.9070180058479309,1.9131219387054443,81.9000015258789,-182.10000610351562,-36.30000305175781
