time,sensor_accX[g],sensor_accY[g],sensor_accZ[g],sensor_gyroX[°/s],sensor_gyroY[°/s],sensor_gyroZ[°/s],sensor_magX[µT],sensor_magY[µT],sensor_magZ[µT]
394303,-2.9937055110931396,8.589333534240723,-3.2215981483459473,-0.2591480016708374,0.2591480016708374,-0.19817200303077698,230.70001220703125,-112.50000762939453,-14.700000762939453
394323,-3.0870158672332764,8.575575828552246,-3.293375253677368,-0.38109999895095825,0.4039659798145294,-0.3048799932003021,228.3000030517578,-124.50000762939453,-15.90000057220459
394346,-3.1193156242370605,8.529519081115723,-3.3107213973999023,-0.3734779953956604,0.3277460038661957,-0.4039659798145294,237.90000915527344,-110.10000610351562,-16.5
394366,-3.1139323711395264,8.48525619506836,-3.2598791122436523,-0.41158798336982727,0.342989981174469,-0.3582339882850647,228.3000030517578,-107.70000457763672,-16.5
394386,-3.106156349182129,8.467909812927246,-3.2048499584198,-0.457319974899292,0.3734779953956604,-0.2743920087814331,233.10000610351562,-114.9000015258789,-16.5
394406,-3.0894083976745605,8.503798484802246,-3.2245888710021973,-0.4420759975910187,0.426831990480423,-0.17530599236488342,221.10000610351562,-110.10000610351562,-18.900001525878906
394430,-3.148026466369629,8.502602577209473,-3.2509069442749023,-0.426831990480423,0.4878079891204834,-0.18292799592018127,225.90000915527344,-105.30000305175781,-17.100000381469727
394450,-3.084623336791992,8.55105209350586,-3.230570077896118,-0.3201240003108978,0.48018598556518555,-0.22103799879550934,242.70001220703125,-102.9000015258789,-8.100000381469727
394470,-3.063688278198242,8.56301498413086,-3.1528115272521973,-0.35061198472976685,0.5564059615135193,-0.2972579896450043,230.70001220703125,-112.50000762939453,-17.100000381469727
394490,-3.0947916507720947,8.46432113647461,-3.1737465858459473,-0.342989981174469,0.6936019659042358,-0.3582339882850647,240.3000030517578,-102.9000015258789,-21.30000114440918
394510,-3.0870158672332764,8.507986068725586,-3.2168128490448,-0.2439039945602417,0.6783579587936401,-0.2439039945602417,237.90000915527344,-100.50000762939453,-24.30000114440918
394530,-3.1731483936309814,8.439797401428223,-3.2048499584198,-0.39634400606155396,0.6478700041770935,-0.19817200303077698,230.70001220703125,-119.70000457763672,-19.5
394551,-3.1498208045959473,8.509779930114746,-3.2473182678222656,-0.3277460038661957,0.5564059615135193,-0.12195199728012085,221.10000610351562,-110.10000610351562,-13.500000953674316
394571,-3.0858194828033447,8.54387378692627,-3.2688512802124023,-0.4192099869251251,0.39634400606155396,-0.19054999947547913,240.3000030517578,-110.10000610351562,-16.5
394595,-2.881852865219116,8.59292221069336,-3.165970802307129,-0.3887220025062561,0.20579399168491364,-0.08384199440479279,235.50001525878906,-107.70000457763672,-21.900001525878906
394615,-2.884843587875366,8.560622215270996,-3.058305025100708,-0.6554920077323914,0.2743920087814331,-0.015243999660015106,235.50001525878906,-114.9000015258789,-18.900001525878906
394635,-3.201261281967163,8.080313682556152,-3.1336710453033447,-0.8079319596290588,0.4878079891204834,-0.18292799592018127,245.10000610351562,-110.10000610351562,-14.100000381469727
394655,-3.1217081546783447,8.439797401428223,-3.2054481506347656,-0.2972579896450043,0.13719600439071655,0.08384199440479279,233.10000610351562,-112.50000762939453,-21.30000114440918
394675,-3.1079509258270264,8.518752098083496,-3.008060932159424,-0.48018598556518555,0.114329993724823,-0.26677000522613525,233.10000610351562,-117.30000305175781,-19.5
394695,-3.1940834522247314,8.53310775756836,-3.1827187538146973,-0.41158798336982727,0.3277460038661957,-0.510673999786377,235.50001525878906,-114.9000015258789,-23.100000381469727
394715,-3.2030556201934814,8.483461380004883,-3.0918009281158447,-0.4039659798145294,0.13719600439071655,-0.6173819899559021,228.3000030517578,-117.30000305175781,-17.700000762939453
394735,-3.27961802482605,8.33093547821045,-3.1498208045959473,-0.44969800114631653,0.3277460038661957,-0.6326259970664978,225.90000915527344,-100.50000762939453,-18.30000114440918
394755,-3.165372610092163,8.37280559539795,-3.1940834522247314,-0.13719600439071655,0.17530599236488342,-0.39634400606155396,235.50001525878906,-100.50000762939453,-20.700000762939453
394775,-2.9937055110931396,8.612062454223633,-3.145035743713379,-0.114329993724823,0.2439039945602417,-0.23628199100494385,235.50001525878906,-119.70000457763672,-15.300000190734863
394795,-2.9518356323242188,8.762794494628906,-3.21980357170105,-0.15243999660015106,0.4192099869251251,-0.2896359860897064,228.3000030517578,-112.50000762939453,-12.300000190734863
394815,-2.860917806625366,8.890796661376953,-3.374124526977539,-0.2134159952402115,0.3887220025062561,-0.342989981174469,233.10000610351562,-110.10000610351562,-12.90000057220459
394835,-2.9883222579956055,8.716139793395996,-3.2293739318847656,-0.5182960033416748,0.228659987449646,-0.5411620140075684,247.50001525878906,-110.10000610351562,-18.30000114440918
394855,-2.926713466644287,8.815430641174316,-3.3998446464538574,-0.4878079891204834,0.3277460038661957,-0.5564059615135193,230.70001220703125,-102.9000015258789,-9.90000057220459
394876,-2.951237440109253,8.741859436035156,-3.2353553771972656,-0.7545779943466187,0.05335399881005287,-0.6783579587936401,228.3000030517578,-110.10000610351562,-9.90000057220459
394896,-3.1528115272521973,8.482863426208496,-3.2024574279785156,-1.0594580173492432,0.4344539940357208,-0.8384199738502502,235.50001525878906,-114.9000015258789,-18.900001525878906
394916,-3.2748327255249023,8.264541625976562,-3.144437551498413,-1.242385983467102,0.510673999786377,-0.8689079880714417,225.90000915527344,-114.9000015258789,-24.30000114440918
394936,-3.5105011463165283,8.065958023071289,-3.0600993633270264,-1.3186060190200806,0.800309956073761,-0.7850660085678101,247.50001525878906,-112.50000762939453,-18.30000114440918
394956,-3.573306083679199,8.2442045211792,-3.1276895999908447,-1.189031958580017,1.0518360137939453,-0.4878079891204834,230.70001220703125,-107.70000457763672,-17.700000762939453
394976,-3.902284860610962,8.110220909118652,-2.9739668369293213,-1.3872039318084717,1.0518360137939453,-0.5564059615135193,233.10000610351562,-102.9000015258789,-15.300000190734863
394996,-3.9124531745910645,8.291458129882812,-3.0158369541168213,-1.2042759656906128,1.5853760242462158,-0.2134159952402115,245.10000610351562,-110.10000610351562,-9.90000057220459
395016,-3.5188751220703125,8.743654251098633,-3.079838275909424,-1.0899460315704346,1.4558019638061523,0.114329993724823,233.10000610351562,-105.30000305175781,-18.30000114440918
395036,-3.6014187335968018,9.06485652923584,-2.887834310531616,-1.0289700031280518,1.7987920045852661,-0.25152599811553955,240.3000030517578,-112.50000762939453,-21.30000114440918
395060,-3.5332305431365967,8.968555450439453,-2.9338912963867188,-1.013725996017456,1.7683039903640747,-0.7774440050125122,225.90000915527344,-110.10000610351562,-12.90000057220459
395080,-3.413601875305176,8.951210021972656,-2.7885425090789795,-0.9908599853515625,1.5701320171356201,-0.8307979702949524,237.90000915527344,-102.9000015258789,-18.900001525878906
395100,-3.4052278995513916,8.79688835144043,-2.852543830871582,-1.1661659479141235,1.9893419742584229,-0.6402480006217957,240.3000030517578,-110.10000610351562,-12.90000057220459
395120,-3.3783113956451416,8.721522331237793,-2.8543381690979004,-1.189031958580017,1.9131219387054443,-0.3125019967556,233.10000610351562,-102.9000015258789,-16.5
395140,-3.2748327255249023,8.817225456237793,-2.9285080432891846,-1.3109840154647827,1.8445239067077637,0.04573199898004532,233.10000610351562,-107.70000457763672,-16.5
395161,-3.279019832611084,8.534303665161133,-2.816655158996582,-1.5320219993591309,1.753059983253479,0.2134159952402115,223.50001525878906,-105.30000305175781,-23.100000381469727
395181,-3.243131160736084,8.409890174865723,-2.7406911849975586,-1.5853760242462158,1.707327961921692,0.4878079891204834,230.70001220703125,-114.9000015258789,-15.90000057220459
395203,-3.2359535694122314,8.41946029663086,-2.7891407012939453,-1.8140360116958618,1.6768399477005005,0.6707359552383423,242.70001220703125,-107.70000457763672,-22.5
395224,-3.213223934173584,8.36682415008545,-2.9907147884368896,-1.4558019638061523,1.646351933479309,0.6707359552383423,228.3000030517578,-107.70000457763672,-24.900001525878906
395244,-3.1187174320220947,8.680849075317383,-3.072660446166992,-0.967993974685669,1.14329993724823,0.7774440050125122,235.50001525878906,-105.30000305175781,-24.30000114440918
395264,-2.945255994796753,8.807655334472656,-3.031388521194458,-0.5640279650688171,0.914639949798584,0.6097599864006042,230.70001220703125,-119.70000457763672,-15.300000190734863
395287,-2.790336847305298,8.821412086486816,-2.6671195030212402,-0.739333987236023,1.1737879514694214,0.3734779953956604,223.50001525878906,-102.9000015258789,-17.700000762939453
395307,-2.7676074504852295,8.48824691772461,-2.7371022701263428,-0.8841519951820374,1.7683039903640747,0.28201398253440857,225.90000915527344,-117.30000305175781,-11.700000762939453
395331,-2.813664436340332,8.349477767944336,-2.772392749786377,-0.7926880121231079,1.882633924484253,0.39634400606155396,225.90000915527344,-110.10000610351562,-18.30000114440918
395351,-2.7765796184539795,8.442788124084473,-2.808281183242798,-0.6097599864006042,1.7911700010299683,0.4725639820098877,218.70001220703125,-110.10000610351562,-14.700000762939453
395375,-3.0959880352020264,8.592324256896973,-2.762822389602661,-0.6402480006217957,1.4939119815826416,0.09908600151538849,223.50001525878906,-122.10000610351562,-16.5
395395,-3.398050308227539,8.50619125366211,-3.0900065898895264,-0.5335400104522705,1.5167779922485352,-0.3582339882850647,216.3000030517578,-117.30000305175781,-15.300000190734863
395415,-3.8562276363372803,8.189773559570312,-3.2503089904785156,-0.16768398880958557,1.3643379211425781,-0.739333987236023,211.50001525878906,-107.70000457763672,-13.500000953674316
395439,-3.7222437858581543,8.83995532989502,-3.3878817558288574,-0.015243999660015106,0.5259180068969727,-0.15243999660015106,230.70001220703125,-112.50000762939453,-12.90000057220459
395460,-3.6163723468780518,9.287365913391113,-3.2586829662323,-0.3125019967556,1.067080020904541,-0.08384199440479279,230.70001220703125,-114.9000015258789,-18.900001525878906
395480,-3.788637638092041,9.16055965423584,-3.800600528717041,-0.114329993724823,2.14178204536438,-0.030487999320030212,225.90000915527344,-117.30000305175781,-15.300000190734863
395500,-3.49973464012146,8.88361930847168,-3.603213310241699,-0.457319974899292,0.6173819899559021,0.6402480006217957,233.10000610351562,-124.50000762939453,-11.100000381469727
395520,-3.439321994781494,8.58574390411377,-2.7849535942077637,-1.1509219408035278,1.4558019638061523,1.14329993724823,216.3000030517578,-107.70000457763672,-22.5
395540,-2.891423225402832,9.472789764404297,-3.6026151180267334,-0.5487840175628662,3.201239824295044,1.9131219387054443,218.70001220703125,-114.9000015258789,-16.5
395560,-2.835197687149048,9.576269149780273,-3.6205594539642334,-1.3338500261306763,2.3094658851623535,1.2881180047988892,211.50001525878906,-110.10000610351562,-12.300000190734863
395580,-3.458462715148926,8.3578519821167,-3.573904275894165,-0.967993974685669,2.6677000522613525,0.7317119836807251,223.50001525878906,-119.70000457763672,-15.300000190734863
395600,-2.9554243087768555,8.88062858581543,-3.9453511238098145,-0.22103799879550934,2.0198299884796143,1.9131219387054443,218.70001220703125,-114.9000015258789,-13.500000953674316
395621,-2.607903242111206,9.280786514282227,-3.216214656829834,-0.8841519951820374,1.0365920066833496,1.9664759635925293,223.50001525878906,-112.50000762939453,-11.700000762939453
395641,-2.804692506790161,8.728700637817383,-3.3854892253875732,-1.0975680351257324,2.5228819847106934,1.8673899173736572,218.70001220703125,-122.10000610351562,-16.5
395663,-2.414703130722046,8.64256763458252,-3.6325223445892334,-0.5259180068969727,2.126538038253784,2.8277618885040283,209.10000610351562,-129.3000030517578,-8.100000381469727
395683,-2.036078691482544,8.77894401550293,-3.114530563354492,-0.6936019659042358,1.4024479389190674,2.903981924057007,206.70001220703125,-124.50000762939453,-11.700000762939453
395705,-1.5874714851379395,8.487648963928223,-2.7765796184539795,-0.510673999786377,2.1036720275878906,3.0106899738311768,197.10000610351562,-129.3000030517578,-11.700000762939453
395726,-1.1346771717071533,9.246692657470703,-2.507415294647217,-0.39634400606155396,2.6677000522613525,3.4832539558410645,199.50001525878906,-131.70001220703125,-15.300000190734863
395746,-1.4062341451644897,9.54217529296875,-2.7580373287200928,-0.5945159792900085,4.496979713439941,2.5000159740448,206.70001220703125,-124.50000762939453,-18.30000114440918
395767,-2.0253121852874756,9.043323516845703,-3.46384596824646,-0.02286599949002266,5.39637565612793,1.471045970916748,194.70001220703125,-129.3000030517578,-21.30000114440918
395788,-2.1802310943603516,9.09296989440918,-3.890321969985962,0.2591480016708374,4.062525749206543,1.4481799602508545,194.70001220703125,-134.10000610351562,-12.90000057220459
395808,-2.375823974609375,9.10493278503418,-3.70190691947937,0.26677000522613525,3.254593849182129,1.3948259353637695,192.3000030517578,-138.90000915527344,-12.300000190734863
395830,-2.2908875942230225,9.090577125549316,-3.8071799278259277,0.19054999947547913,3.1783738136291504,1.4100699424743652,204.3000030517578,-141.3000030517578,-8.100000381469727
395850,-2.438628911972046,9.065454483032227,-3.907668113708496,-0.04573199898004532,3.163130044937134,1.9740979671478271,185.10000610351562,-136.5,-14.700000762939453
395872,-2.3889830112457275,8.929078102111816,-3.9806413650512695,-0.8079319596290588,2.957335948944092,2.7591638565063477,194.70001220703125,-126.9000015258789,-3.9000000953674316
395892,-2.3118226528167725,8.77296257019043,-3.8041892051696777,-1.14329993724823,2.8201398849487305,3.3917899131774902,180.3000030517578,-136.5,-10.5
395912,-2.1886050701141357,8.769373893737793,-3.705495595932007,-1.295740008354187,2.9344699382781982,3.7424018383026123,182.70001220703125,-143.70001220703125,-9.300000190734863
395933,-2.173053503036499,8.59172534942627,-3.7282252311706543,-1.5015339851379395,2.896359920501709,3.8338658809661865,175.5,-134.10000610351562,-15.300000190734863
395953,-2.068976640701294,8.408095359802246,-3.68695330619812,-1.3414719104766846,2.7210538387298584,4.024415969848633,175.5,-155.70001220703125,-9.300000190734863
395973,-1.82553231716156,8.499013900756836,-3.597231864929199,-1.3033620119094849,2.4237959384918213,4.207344055175781,168.3000030517578,-143.70001220703125,-15.300000190734863
395993,-1.6239581108093262,8.38955307006836,-3.5457916259765625,-1.2881180047988892,2.278977870941162,4.222588062286377,158.70001220703125,-129.3000030517578,-9.90000057220459
396013,-1.455880045890808,8.25317668914795,-3.493155002593994,-1.2195199728012085,2.0960500240325928,4.2988080978393555,158.70001220703125,-153.3000030517578,-9.300000190734863
396033,-1.2022674083709717,8.159268379211426,-3.457266330718994,-1.1128119230270386,1.92836594581604,4.413137912750244,163.5,-158.10000610351562,-12.90000057220459
396056,-1.0353854894638062,8.260354042053223,-3.3364415168762207,-1.0975680351257324,1.7606819868087769,4.611310005187988,144.3000030517578,-162.90000915527344,-11.100000381469727
396076,-0.9618139266967773,8.630006790161133,-3.3041417598724365,-1.2804960012435913,1.8902559280395508,4.5503339767456055,151.5,-155.70001220703125,-20.100000381469727
396096,-1.1819305419921875,8.60189437866211,-3.49375319480896,-1.6768399477005005,1.9588539600372314,4.016793727874756,146.70001220703125,-172.5,-9.90000057220459
396120,-1.3212977647781372,8.329140663146973,-3.735402822494507,-1.5929979085922241,1.471045970916748,3.513741970062256,132.3000030517578,-170.10000610351562,-12.300000190734863
396140,-1.2883999347686768,8.372207641601562,-3.71386981010437,-1.6158639192581177,1.0823240280151367,3.620450019836426,129.90000915527344,-155.70001220703125,-11.100000381469727
396162,-1.1861175298690796,8.70238208770752,-3.681570053100586,-1.7225719690322876,0.9451279640197754,3.696669816970825,129.90000915527344,-150.90000915527344,-9.300000190734863
396183,-0.924130916595459,9.225757598876953,-3.845461130142212,-2.0045859813690186,0.853663980960846,3.7195358276367188,125.10000610351562,-153.3000030517578,-5.700000286102295
396203,-0.8613258600234985,8.729896545410156,-3.6438870429992676,-2.75154185295105,0.5030519962310791,3.0869100093841553,120.30000305175781,-160.5,-15.90000057220459
396223,-0.814670741558075,8.152091026306152,-3.64508318901062,-2.5762360095977783,0.7698220014572144,2.888737916946411,117.9000015258789,-158.10000610351562,-19.5
396243,-0.4767199456691742,8.241811752319336,-3.657644271850586,-2.5152599811553955,0.25152599811553955,3.1250200271606445,115.50000762939453,-167.70001220703125,-20.700000762939453
396303,0.9785618782043457,8.2800931930542,-3.20784068107605,-2.2713558673858643,-1.2576299905776978,2.2103798389434814,103.50000762939453,-165.3000030517578,-15.90000057220459
396325,1.3201014995574951,7.813541412353516,-2.8567309379577637,-2.03507399559021,-1.425313949584961,2.1189160346984863,105.9000015258789,-172.5,-14.700000762939453
396345,1.958320140838623,8.647951126098633,-2.9374802112579346,-1.3872039318084717,-1.6158639192581177,2.9344699382781982,113.10000610351562,-170.10000610351562,-13.500000953674316
396388,2.842973470687866,8.80107593536377,-2.0109567642211914,-2.583858013153076,-2.4009299278259277,1.92836594581604,105.9000015258789,-167.70001220703125,-23.100000381469727
396430,2.9637985229492188,9.361536026000977,-1.5665364265441895,-2.2180018424987793,-2.3018438816070557,2.1112940311431885,91.5,-172.5,-17.100000381469727
396450,2.6898488998413086,9.131848335266113,-1.5796955823898315,-2.134160041809082,-2.4771499633789062,1.4329359531402588,89.10000610351562,-170.10000610351562,-24.30000114440918
396474,2.860917806625366,9.256860733032227,-1.335653305053711,-1.829279899597168,-3.3689239025115967,1.2804960012435913,101.10000610351562,-174.90000915527344,-18.900001525878906
396515,2.857927083969116,9.652831077575684,-0.9055884480476379,-2.492393970489502,-2.5000159740448,0.8689079880714417,96.30000305175781,-167.70001220703125,-14.100000381469727
396535,2.7861499786376953,9.913022994995117,-1.104171872138977,-2.2561118602752686,-2.2027578353881836,0.7850660085678101,81.9000015258789,-167.70001220703125,-26.700000762939453
396557,2.516387462615967,9.386059761047363,-0.9546361565589905,-2.690565824508667,-2.2484898567199707,0.3734779953956604,91.5,-184.5,-25.500001907348633
396577,2.2585878372192383,9.174915313720703,-0.7464824318885803,-2.39330792427063,-2.0579400062561035,0.7545779943466187,89.10000610351562,-179.70001220703125,-13.500000953674316
396599,2.027106523513794,9.197644233703613,-0.7614359855651855,-2.0960500240325928,-1.5853760242462158,1.0899460315704346,96.30000305175781,-172.5,-24.900001525878906
396619,1.6628375053405762,8.65572738647461,-0.6256575584411621,-2.0579400062561035,-1.646351933479309,0.9375059604644775,93.9000015258789,-177.3000030517578,-24.900001525878906
396639,1.4762169122695923,8.38476848602295,-0.6920514106750488,-1.3338500261306763,-1.478667974472046,1.2118979692459106,74.70000457763672,-167.70001220703125,-24.30000114440918
396660,1.6419024467468262,8.814234733581543,-0.6687238216400146,-0.8612859845161438,-1.524399995803833,1.6920839548110962,86.70000457763672,-170.10000610351562,-23.100000381469727
396680,1.423580288887024,8.470900535583496,-0.7111920118331909,-1.0899460315704346,-1.4939119815826416,1.4862899780273438,77.10000610351562,-170.10000610351562,-21.900001525878906
396700,1.6179767847061157,8.867469787597656,-0.7410991191864014,-0.5030519962310791,-1.6920839548110962,1.9054999351501465,79.5,-177.3000030517578,-19.5
396720,1.8626172542572021,9.54097843170166,-0.9779637455940247,-0.3125019967556,-1.7606819868087769,1.935987949371338,86.70000457763672,-172.5,-23.100000381469727
396740,1.9475535154342651,9.968650817871094,-1.0790499448776245,-0.2896359860897064,-2.088428020477295,1.7759259939193726,79.5,-182.10000610351562,-29.700000762939453
396760,1.9637033939361572,10.157065391540527,-1.0808444023132324,-0.26677000522613525,-2.446661949157715,1.3033620119094849,74.70000457763672,-165.3000030517578,-24.900001525878906
396784,1.7011185884475708,9.48116397857666,-0.8786720037460327,-0.5868939757347107,-2.538125991821289,0.4725639820098877,65.10000610351562,-172.5,-27.30000114440918
396804,1.6568560600280762,9.194055557250977,-0.9414770603179932,-0.26677000522613525,-2.591480016708374,0.33536797761917114,79.5,-172.5,-17.700000762939453
396824,1.6688188314437866,9.03494930267334,-1.0066746473312378,-0.20579399168491364,-2.492393970489502,0.3887220025062561,77.10000610351562,-172.5,-26.700000762939453
396864,1.7537552118301392,9.003846168518066,-1.1747528314590454,-0.09146399796009064,-2.2180018424987793,0.8231759667396545,65.10000610351562,-177.3000030517578,-21.30000114440918
396887,1.8291212320327759,8.698793411254883,-1.23396897315979,0.08384199440479279,-2.042695999145508,1.0442140102386475,84.30000305175781,-172.5,-23.100000381469727
396907,1.9397776126861572,8.589333534240723,-1.1980804204940796,0.13719600439071655,-1.9969639778137207,1.1661659479141235,60.30000305175781,-184.5,-23.100000381469727
396929,2.1006782054901123,8.553444862365723,-1.1956877708435059,0.3277460038661957,-1.8978779315948486,1.3490939140319824,72.30000305175781,-177.3000030517578,-29.100000381469727
396949,2.4033384323120117,8.957191467285156,-1.2650723457336426,0.6478700041770935,-1.7606819868087769,1.5548880100250244,72.30000305175781,-167.70001220703125,-21.900001525878906
396969,2.3883848190307617,8.846534729003906,-1.2124358415603638,0.2896359860897064,-1.7911700010299683,1.3338500261306763,72.30000305175781,-167.70001220703125,-21.900001525878906
396989,2.3094301223754883,8.91053581237793,-1.0796480178833008,0.4344539940357208,-1.5015339851379395,1.1661659479141235,60.30000305175781,-170.10000610351562,-28.500001907348633
397009,2.131183385848999,9.210803985595703,-1.3183071613311768,0.5564059615135193,-1.3490939140319824,0.5487840175628662,65.10000610351562,-179.70001220703125,-24.30000114440918
397029,2.0283029079437256,8.692811965942383,-1.2094451189041138,0.19817200303077698,-1.478667974472046,-0.1295740008354187,60.30000305175781,-174.90000915527344,-30.30000114440918
397049,1.9637033939361572,8.453554153442383,-1.2094451189041138,0.39634400606155396,-1.5091559886932373,-0.4878079891204834,55.500003814697266,-167.70001220703125,-21.900001525878906
397091,2.396160840988159,9.52423095703125,-1.5707234144210815,0.9984819889068604,-0.9451279640197754,0.10670799762010574,53.10000228881836,-162.90000915527344,-23.100000381469727
397111,2.4942562580108643,9.399816513061523,-1.5402181148529053,0.08384199440479279,-1.0061039924621582,-0.38109999895095825,62.70000076293945,-174.90000915527344,-20.700000762939453
397131,2.4882748126983643,9.075623512268066,-1.6849687099456787,-0.08384199440479279,-0.39634400606155396,-0.33536797761917114,65.10000610351562,-167.70001220703125,-23.100000381469727
397151,2.3859922885894775,9.05109977722168,-1.9684885740280151,0.04573199898004532,0.17530599236488342,-0.20579399168491364,62.70000076293945,-179.70001220703125,-20.100000381469727
397174,2.3267762660980225,9.270617485046387,-2.2729432582855225,0.1448179930448532,0.8460419774055481,0.09146399796009064,57.900001525878906,-167.70001220703125,-19.5
397195,2.4069273471832275,9.540380477905273,-2.655754804611206,0.18292799592018127,1.5548880100250244,-0.22103799879550934,60.30000305175781,-165.3000030517578,-17.100000381469727
397215,2.26875638961792,10.207907676696777,-3.41898512840271,0.8765299916267395,2.8277618885040283,-0.2439039945602417,69.9000015258789,-165.3000030517578,-18.900001525878906
397235,2.1066596508026123,9.46022891998291,-3.6977198123931885,0.3887220025062561,0.9908599853515625,-1.6234859228134155,62.70000076293945,-184.5,-21.30000114440918
397255,1.8715893030166626,8.221475601196289,-2.7161672115325928,0.16768398880958557,0.685979962348938,-1.9054999351501465,74.70000457763672,-179.70001220703125,-18.900001525878906
397275,2.0372750759124756,9.06007194519043,-3.603213310241699,0.5868939757347107,2.225623846054077,-0.6402480006217957,55.500003814697266,-162.90000915527344,-14.700000762939453
397295,1.9601144790649414,10.334115982055664,-4.315601348876953,1.14329993724823,2.8811159133911133,-0.13719600439071655,57.900001525878906,-172.5,-25.500001907348633
397315,2.3088319301605225,10.867659568786621,-5.073448657989502,0.9603719711303711,2.03507399559021,-0.48018598556518555,65.10000610351562,-170.10000610351562,-23.700000762939453
397335,1.7669143676757812,9.636083602905273,-4.718151569366455,0.4725639820098877,-0.426831990480423,-1.8140360116958618,65.10000610351562,-177.3000030517578,-26.100000381469727
397355,1.4181970357894897,8.570192337036133,-4.344910621643066,1.0442140102386475,-0.6326259970664978,-1.9664759635925293,74.70000457763672,-165.3000030517578,-15.90000057220459
397415,1.4923666715621948,8.69939136505127,-4.119410514831543,-0.1448179930448532,-0.5487840175628662,-0.12195199728012085,53.10000228881836,-172.5,-18.30000114440918
397468,1.7388015985488892,7.762699604034424,-3.3184971809387207,-1.5396440029144287,0.060975998640060425,0.8612859845161438,60.30000305175781,-167.70001220703125,-16.5
397488,1.9750680923461914,7.845242977142334,-3.1049602031707764,-1.417691946029663,0.5335400104522705,1.5853760242462158,62.70000076293945,-172.5,-24.30000114440918
397528,2.289691209793091,8.049808502197266,-2.926713466644287,-1.0747020244598389,0.5792719721794128,1.875011920928955,65.10000610351562,-170.10000610351562,-21.30000114440918
397569,2.4075255393981934,8.284279823303223,-3.2329628467559814,-0.800309956073761,0.6402480006217957,1.8369019031524658,62.70000076293945,-182.10000610351562,-27.900001525878906
397589,2.265167474746704,8.957789421081543,-3.6564478874206543,-0.16768398880958557,0.426831990480423,1.6387299299240112,57.900001525878906,-172.5,-24.900001525878906
397630,1.8261305093765259,8.438002586364746,-3.950136184692383,-0.09908600151538849,-0.7469559907913208,-0.07621999830007553,45.900001525878906,-172.5,-18.30000114440918
397650,2.0552191734313965,8.543275833129883,-3.9244160652160645,0.1295740008354187,-1.2576299905776978,-0.1600620001554489,48.30000305175781,-167.70001220703125,-15.300000190734863
397711,2.336346387863159,8.222073554992676,-3.0385663509368896,-1.4329359531402588,-0.3201240003108978,-0.3201240003108978,55.500003814697266,-179.70001220703125,-21.900001525878906
397731,2.283709764480591,8.000162124633789,-2.923722743988037,-1.6768399477005005,0.28201398253440857,-0.3582339882850647,53.10000228881836,-174.90000915527344,-18.900001525878906
397753,2.450591802597046,8.31179428100586,-2.839982748031616,-1.196653962135315,0.426831990480423,-0.2896359860897064,65.10000610351562,-167.70001220703125,-23.700000762939453
397773,2.650371551513672,8.35486125946045,-2.700615406036377,-1.067080020904541,0.38109999895095825,-0.23628199100494385,60.30000305175781,-179.70001220703125,-24.30000114440918
397815,2.700615406036377,8.039639472961426,-2.396758794784546,-1.1737879514694214,-0.10670799762010574,0.12195199728012085,57.900001525878906,-170.10000610351562,-20.700000762939453
397838,3.011051654815674,9.07203483581543,-2.929704189300537,-0.19817200303077698,-0.08384199440479279,1.0823240280151367,57.900001525878906,-172.5,-26.700000762939453
397859,3.045743942260742,9.236523628234863,-2.5791923999786377,-0.8384199738502502,-1.2347639799118042,0.7850660085678101,55.500003814697266,-172.5,-24.900001525878906
397879,2.9350874423980713,8.83576774597168,-2.345318555831909,-1.1814099550247192,-1.1737879514694214,0.6478700041770935,45.900001525878906,-165.3000030517578,-17.700000762939453
397900,2.829216241836548,8.65871810913086,-2.19398832321167,-1.3490939140319824,-1.5091559886932373,0.25152599811553955,57.900001525878906,-179.70001220703125,-24.900001525878906
397920,2.578594446182251,8.167043685913086,-1.7663161754608154,-1.875011920928955,-1.4481799602508545,0.10670799762010574,57.900001525878906,-177.3000030517578,-21.30000114440918
397982,2.118622303009033,9.30710506439209,-1.2572965621948242,-1.7606819868087769,-1.1814099550247192,-0.739333987236023,48.30000305175781,-170.10000610351562,-29.100000381469727
398068,2.158698081970215,10.127159118652344,-0.7901468873023987,-2.027451992034912,-0.10670799762010574,-1.5015339851379395,48.30000305175781,-172.5,-29.700000762939453
398088,2.3776183128356934,10.914315223693848,-0.49944937229156494,-0.9984819889068604,-0.7926880121231079,-0.228659987449646,45.900001525878906,-177.3000030517578,-22.5
398130,1.543807029724121,8.295644760131836,-0.5843856930732727,-0.6707359552383423,-1.0365920066833496,-1.3338500261306763,43.5,-172.5,-25.500001907348633
398150,1.9068797826766968,8.17541790008545,-0.6101058125495911,-0.4192099869251251,-0.9222619533538818,0.342989981174469,50.70000076293945,-179.70001220703125,-27.30000114440918
398172,2.060004472732544,8.35366439819336,-0.7494731545448303,-0.12195199728012085,-0.5411620140075684,1.5548880100250244,72.30000305175781,-167.70001220703125,-29.700000762939453
398192,2.146136999130249,8.619239807128906,-0.9331030249595642,-0.04573199898004532,-0.457319974899292,2.378063917160034,43.5,-167.70001220703125,-24.30000114440918
398214,2.1569035053253174,8.703577995300293,-1.0658907890319824,-0.1600620001554489,-0.4420759975910187,2.6067240238189697,45.900001525878906,-172.5,-25.500001907348633
398234,2.20296049118042,8.902759552001953,-1.1532196998596191,0.038109999150037766,-0.5792719721794128,2.4619059562683105,45.900001525878906,-172.5,-21.900001525878906
398254,2.3351502418518066,9.1982421875,-1.1633881330490112,0.09908600151538849,-0.6707359552383423,2.0655620098114014,33.900001525878906,-177.3000030517578,-21.30000114440918
398274,2.3447203636169434,9.270617485046387,-1.1011812686920166,0.030487999320030212,-0.7317119836807251,1.4405579566955566,53.10000228881836,-162.90000915527344,-27.30000114440918
398297,2.2962708473205566,9.553539276123047,-1.1107515096664429,0.3201240003108978,-0.6707359552383423,0.7850660085678101,41.10000228881836,-174.90000915527344,-26.100000381469727
398359,2.372833251953125,9.088184356689453,-0.8577370047569275,0.1295740008354187,0.342989981174469,-0.7926880121231079,41.10000228881836,-182.10000610351562,-25.500001907348633
398379,2.3207948207855225,8.921302795410156,-0.9019995927810669,0.2591480016708374,0.8917739987373352,-0.228659987449646,38.70000076293945,-174.90000915527344,-25.500001907348633
398400,2.1120429039001465,8.575575828552246,-0.9827489256858826,0.1448179930448532,1.3186060190200806,0.4420759975910187,41.10000228881836,-155.70001220703125,-30.30000114440918
398420,2.193390369415283,8.911731719970703,-1.0682833194732666,0.5335400104522705,1.5396440029144287,1.1661659479141235,48.30000305175781,-186.90000915527344,-22.5
398440,2.0851263999938965,9.00025749206543,-1.2537076473236084,0.2439039945602417,1.653973937034607,1.14329993724823,41.10000228881836,-177.3000030517578,-17.700000762939453
398462,2.0935003757476807,8.914722442626953,-1.24593186378479,0.20579399168491364,1.2804960012435913,1.0289700031280518,26.700000762939453,-186.90000915527344,-26.700000762939453
398482,2.152118444442749,8.698793411254883,-1.1478363275527954,0.09146399796009064,1.0518360137939453,0.7698220014572144,41.10000228881836,-182.10000610351562,-32.10000228881836
398506,2.3321595191955566,8.804664611816406,-1.2124358415603638,0.19054999947547913,0.800309956073761,0.7698220014572144,33.900001525878906,-167.70001220703125,-23.100000381469727
398526,2.616875410079956,9.12168025970459,-1.3524012565612793,0.2972579896450043,0.6173819899559021,0.7164679765701294,48.30000305175781,-167.70001220703125,-23.100000381469727
398546,2.7879443168640137,8.99128532409668,-1.2764370441436768,0.060975998640060425,0.3125019967556,0.5411620140075684,29.100000381469727,-179.70001220703125,-25.500001907348633
398568,3.233560800552368,9.22336483001709,-1.3841028213500977,0.18292799592018127,0.36585599184036255,0.6554920077323914,29.100000381469727,-172.5,-23.700000762939453
398608,3.6702053546905518,9.10074520111084,-1.5641438961029053,0.1600620001554489,0.7698220014572144,0.739333987236023,26.700000762939453,-182.10000610351562,-24.30000114440918
398628,3.675588607788086,8.833374977111816,-1.755549669265747,-0.10670799762010574,1.0747020244598389,0.5411620140075684,33.900001525878906,-182.10000610351562,-30.30000114440918
398648,3.526052713394165,8.162857055664062,-1.7860549688339233,0.25152599811553955,1.1204339265823364,0.5411620140075684,14.700000762939453,-184.5,-24.30000114440918
398668,3.5158843994140625,8.305214881896973,-2.0073678493499756,0.7698220014572144,1.5625100135803223,0.6250039935112,36.30000305175781,-170.10000610351562,-24.900001525878906
398731,4.377808570861816,10.05298900604248,-2.717961549758911,0.7621999979019165,2.1570260524749756,-0.6631140112876892,33.900001525878906,-179.70001220703125,-26.100000381469727
398753,4.171449184417725,9.643858909606934,-2.835197687149048,-0.7621999979019165,2.949713945388794,-1.417691946029663,33.900001525878906,-177.3000030517578,-14.100000381469727
398773,3.111539840698242,8.009134292602539,-2.9338912963867188,-0.5868939757347107,3.9253299236297607,-2.179892063140869,38.70000076293945,-177.3000030517578,-24.30000114440918
398793,3.2168128490448,8.314187049865723,-3.8137595653533936,1.3948259353637695,3.147886037826538,-0.7088459730148315,38.70000076293945,-179.70001220703125,-27.900001525878906
398855,3.1312785148620605,8.238821029663086,-3.594241142272949,1.189031958580017,-0.25152599811553955,-1.0061039924621582,33.900001525878906,-182.10000610351562,-29.100000381469727
398905,3.183915138244629,8.098855972290039,-3.1246988773345947,-0.18292799592018127,-0.7317119836807251,-0.8307979702949524,41.10000228881836,-174.90000915527344,-24.30000114440918
398925,3.1462321281433105,8.072537422180176,-2.947648525238037,-0.35061198472976685,-0.6478700041770935,-0.6783579587936401,26.700000762939453,-179.70001220703125,-27.900001525878906
398967,3.0983805656433105,8.458937644958496,-3.1312785148620605,-0.10670799762010574,-0.2743920087814331,-0.5640279650688171,57.900001525878906,-174.90000915527344,-27.900001525878906
399009,2.9889204502105713,8.516958236694336,-3.0152387619018555,-0.007621999830007553,-0.18292799592018127,-0.967993974685669,33.900001525878906,-179.70001220703125,-23.700000762939453
399029,2.863908529281616,8.483461380004883,-2.9703779220581055,-0.07621999830007553,0.007621999830007553,-1.1128119230270386,38.70000076293945,-172.5,-18.30000114440918
399049,2.7640187740325928,8.179006576538086,-3.037968158721924,-0.28201398253440857,0.20579399168491364,-1.1661659479141235,33.900001525878906,-179.70001220703125,-21.30000114440918
399093,2.7460744380950928,8.60189437866211,-3.0068647861480713,-0.457319974899292,0.510673999786377,-0.7545779943466187,31.500001907348633,-177.3000030517578,-28.500001907348633
399113,2.676689863204956,8.47628402709961,-3.1671669483184814,-0.739333987236023,0.5792719721794128,-0.7469559907913208,41.10000228881836,-174.90000915527344,-20.700000762939453
399136,2.783757448196411,8.318374633789062,-2.942265272140503,-1.196653962135315,0.28201398253440857,-0.5335400104522705,38.70000076293945,-172.5,-27.900001525878906
399156,2.8154590129852295,8.356057167053223,-3.1163249015808105,-0.853663980960846,0.5945159792900085,-0.1295740008354187,45.900001525878906,-184.5,-26.100000381469727
399196,3.377115249633789,9.069642066955566,-2.44102144241333,-1.6692179441452026,0.6021379828453064,0.2972579896450043,53.10000228881836,-170.10000610351562,-26.100000381469727
399217,3.076249361038208,8.873451232910156,-2.4158995151519775,-2.03507399559021,1.2881180047988892,0.1600620001554489,38.70000076293945,-170.10000610351562,-20.700000762939453
399237,2.9350874423980713,8.665895462036133,-2.5654351711273193,-2.2027578353881836,1.471045970916748,0.08384199440479279,38.70000076293945,-170.10000610351562,-27.30000114440918
399257,3.1964759826660156,9.323254585266113,-2.8040943145751953,-1.5396440029144287,1.021347999572754,0.6478700041770935,29.100000381469727,-172.5,-26.700000762939453
399277,2.623455047607422,8.674269676208496,-2.662334442138672,-2.088428020477295,0.5182960033416748,0.685979962348938,36.30000305175781,-191.70001220703125,-21.900001525878906
399297,1.9565256834030151,8.581557273864746,-2.3955626487731934,-1.7911700010299683,-0.426831990480423,1.3490939140319824,33.900001525878906,-179.70001220703125,-27.900001525878906
399317,1.7328201532363892,9.655821800231934,-2.310028076171875,-1.2652519941329956,-1.3567159175872803,1.3186060190200806,33.900001525878906,-172.5,-22.5
399339,1.9756662845611572,10.398117065429688,-1.725642442703247,-1.7149499654769897,-2.6600780487060547,0.5335400104522705,29.100000381469727,-177.3000030517578,-26.100000381469727
399360,2.0049753189086914,10.335312843322754,-0.6890606880187988,-2.530503988265991,-2.3704419136047363,-0.9375059604644775,45.900001525878906,-167.70001220703125,-24.30000114440918
399381,2.0606024265289307,9.492528915405273,-0.38161522150039673,-2.835383892059326,-1.0823240280151367,-1.7301939725875854,38.70000076293945,-170.10000610351562,-22.5
399403,2.0007882118225098,9.601988792419434,-0.06579572707414627,-2.6753220558166504,0.853663980960846,-1.196653962135315,38.70000076293945,-182.10000610351562,-27.30000114440918
399423,1.6072101593017578,9.87653636932373,-0.2075556069612503,-2.1494040489196777,1.7454379796981812,-1.196653962135315,43.5,-177.3000030517578,-31.500001907348633
399443,1.4905723333358765,9.408788681030273,-0.21951846778392792,-1.9512319564819336,1.829279899597168,-1.189031958580017,50.70000076293945,-177.3000030517578,-29.100000381469727
399463,1.6730059385299683,9.00205135345459,0.31402507424354553,-1.4939119815826416,1.371959924697876,-0.5411620140075684,53.10000228881836,-189.3000030517578,-26.700000762939453
399483,1.7663161754608154,9.137829780578613,0.25540703535079956,-1.189031958580017,2.3475759029388428,0.33536797761917114,41.10000228881836,-186.90000915527344,-29.100000381469727
399507,1.508516550064087,9.277795791625977,-0.9259253144264221,-0.46494197845458984,2.690565824508667,0.5487840175628662,45.900001525878906,-172.5,-23.100000381469727
399527,0.8679054379463196,8.792701721191406,-0.9839451909065247,0.739333987236023,1.1509219408035278,0.571649968624115,53.10000228881836,-172.5,-29.100000381469727
399547,1.2519131898880005,9.36572265625,-0.6627424359321594,1.577754020690918,-0.114329993724823,0.7545779943466187,43.5,-174.90000915527344,-33.30000305175781
399569,1.9218333959579468,9.840049743652344,-0.8039041757583618,1.0365920066833496,-0.6936019659042358,0.853663980960846,41.10000228881836,-184.5,-27.900001525878906
399589,1.496553659439087,9.432714462280273,-1.143051266670227,0.39634400606155396,-1.1280559301376343,-0.09146399796009064,41.10000228881836,-174.90000915527344,-29.100000381469727
399611,2.1443426609039307,10.18159008026123,-0.6747052669525146,0.7164679765701294,-2.4619059562683105,-0.3582339882850647,36.30000305175781,-184.5,-33.30000305175781
399631,2.5971367359161377,9.358545303344727,-0.3206046223640442,-1.196653962135315,-2.4085519313812256,-1.2042759656906128,31.500001907348633,-165.3000030517578,-26.700000762939453
399651,2.7622241973876953,8.82380485534668,-0.021533146500587463,-1.5091559886932373,-2.1112940311431885,-1.3033620119094849,33.900001525878906,-184.5,-30.30000114440918
399671,2.8477587699890137,8.662306785583496,-0.11065644770860672,-1.7149499654769897,0.06859800219535828,-0.9527499675750732,33.900001525878906,-179.70001220703125,-24.900001525878906
399694,2.369842529296875,8.198745727539062,-0.7022198438644409,-1.5853760242462158,1.0747020244598389,-1.067080020904541,41.10000228881836,-174.90000915527344,-32.70000076293945
399734,2.854936361312866,9.42733097076416,-1.4774131774902344,-0.05335399881005287,0.23628199100494385,-1.8140360116958618,48.30000305175781,-177.3000030517578,-27.30000114440918
399795,2.954228162765503,9.335217475891113,-1.748371958732605,1.3414719104766846,-0.5259180068969727,-1.3872039318084717,50.70000076293945,-191.70001220703125,-24.30000114440918
399815,2.9428634643554688,9.360339164733887,-1.9080760478973389,1.1661659479141235,-0.5411620140075684,-1.417691946029663,53.10000228881836,-172.5,-24.30000114440918
399835,2.8627121448516846,9.07801628112793,-1.815363883972168,0.9908599853515625,-0.967993974685669,-1.0975680351257324,50.70000076293945,-182.10000610351562,-25.500001907348633
399855,2.7382984161376953,8.59471607208252,-1.81656014919281,0.8079319596290588,-0.8384199738502502,-1.013725996017456,43.5,-177.3000030517578,-20.700000762939453
399876,2.589959144592285,8.73827075958252,-2.071967363357544,1.189031958580017,-0.9375059604644775,-0.6402480006217957,50.70000076293945,-179.70001220703125,-21.900001525878906
399896,2.465545415878296,8.881226539611816,-2.1144354343414307,1.1051899194717407,-1.2347639799118042,-0.7012239694595337,53.10000228881836,-165.3000030517578,-27.900001525878906
399918,2.510406017303467,8.90455436706543,-2.0857245922088623,1.0518360137939453,-1.478667974472046,-0.8231759667396545,53.10000228881836,-172.5,-26.700000762939453
399938,2.500835657119751,8.94343376159668,-2.1383612155914307,0.8231759667396545,-1.5701320171356201,-1.1585439443588257,43.5,-177.3000030517578,-27.900001525878906
399958,2.402142286300659,8.725709915161133,-2.19099760055542,0.5487840175628662,-1.5396440029144287,-1.3338500261306763,55.500003814697266,-170.10000610351562,-32.70000076293945
399980,2.4846858978271484,8.758607864379883,-2.211334466934204,0.6173819899559021,-1.242385983467102,-0.9375059604644775,62.70000076293945,-182.10000610351562,-28.500001907348633
400000,2.426666021347046,8.855506896972656,-2.2490174770355225,0.6250039935112,-0.914639949798584,-0.4192099869251251,55.500003814697266,-182.10000610351562,-28.500001907348633
400020,2.4129087924957275,9.04810905456543,-2.3321595191955566,0.5030519962310791,-0.6173819899559021,0.02286599949002266,60.30000305175781,-174.90000915527344,-27.900001525878906
400040,2.4673397541046143,9.31787109375,-2.232269525527954,0.09146399796009064,-0.5182960033416748,0.17530599236488342,62.70000076293945,-182.10000610351562,-28.500001907348633
400063,2.500835657119751,9.551146507263184,-2.3172059059143066,-0.20579399168491364,-0.12195199728012085,0.15243999660015106,60.30000305175781,-172.5,-25.500001907348633
400083,2.3148133754730225,9.210803985595703,-2.2603821754455566,-0.5335400104522705,0.02286599949002266,-0.5182960033416748,62.70000076293945,-170.10000610351562,-32.10000228881836
400103,2.2992615699768066,9.122876167297363,-2.1569035053253174,-0.41158798336982727,0.12195199728012085,-0.5182960033416748,53.10000228881836,-172.5,-26.100000381469727
400185,1.9278148412704468,9.085193634033203,-2.1898014545440674,0.3887220025062561,0.3201240003108978,-0.5792719721794128,69.9000015258789,-170.10000610351562,-34.5
400366,1.7047075033187866,9.235925674438477,-2.1772403717041016,-0.10670799762010574,0.3582339882850647,-0.4344539940357208,57.900001525878906,-186.90000915527344,-25.500001907348633
400403,1.431954264640808,9.234729766845703,-2.2460267543792725,-0.8460419774055481,0.8765299916267395,-1.1509219408035278,65.10000610351562,-165.3000030517578,-26.100000381469727
400423,1.3876917362213135,9.028369903564453,-2.178436756134033,-0.46494197845458984,0.7012239694595337,-1.1280559301376343,62.70000076293945,-182.10000610351562,-23.700000762939453
400463,1.4606651067733765,9.238916397094727,-2.20894193649292,-0.3734779953956604,0.7012239694595337,-0.7926880121231079,79.5,-172.5,-31.500001907348633
400483,1.5043295621871948,9.101343154907227,-2.187408924102783,-0.18292799592018127,0.6783579587936401,-0.9070180058479309,72.30000305175781,-177.3000030517578,-23.700000762939453
400503,1.342831015586853,9.161755561828613,-2.2424380779266357,-0.342989981174469,0.8993960022926331,-0.6402480006217957,65.10000610351562,-162.90000915527344,-27.900001525878906
400524,1.3703455924987793,9.216785430908203,-2.2914857864379883,-0.3582339882850647,0.7621999979019165,-0.5259180068969727,62.70000076293945,-177.3000030517578,-29.100000381469727
400544,1.4804039001464844,9.325647354125977,-2.1479313373565674,-0.33536797761917114,0.6250039935112,-0.4192099869251251,67.5,-167.70001220703125,-28.500001907348633
400564,1.3697474002838135,9.13663387298584,-2.1114447116851807,-0.5640279650688171,0.8460419774055481,-0.5640279650688171,67.5,-174.90000915527344,-24.30000114440918
400586,1.4241783618927002,9.245495796203613,-2.1945865154266357,-0.5335400104522705,0.7545779943466187,-0.39634400606155396,77.10000610351562,-165.3000030517578,-24.900001525878906
400670,1.6191730499267578,9.244897842407227,-2.027106523513794,-0.1448179930448532,0.22103799879550934,-0.5182960033416748,67.5,-174.90000915527344,-25.500001907348633
400708,1.5689289569854736,9.19644832611084,-2.080341339111328,-0.17530599236488342,0.3887220025062561,-0.6631140112876892,69.9000015258789,-177.3000030517578,-22.5
400728,1.5575642585754395,9.129456520080566,-2.130585193634033,-0.18292799592018127,0.426831990480423,-0.7164679765701294,65.10000610351562,-177.3000030517578,-24.30000114440918
400768,1.531844139099121,9.266430854797363,-2.118622303009033,-0.22103799879550934,0.510673999786377,-0.46494197845458984,77.10000610351562,-165.3000030517578,-23.100000381469727
400791,1.5790973901748657,9.25925350189209,-2.113837242126465,-0.38109999895095825,0.571649968624115,-0.3734779953956604,81.9000015258789,-179.70001220703125,-17.700000762939453
400812,1.555769920349121,9.251477241516113,-2.077948570251465,-0.41158798336982727,0.6097599864006042,-0.38109999895095825,74.70000457763672,-170.10000610351562,-27.30000114440918
400835,1.4415245056152344,9.04810905456543,-2.083930015563965,-0.20579399168491364,0.5868939757347107,-0.5182960033416748,89.10000610351562,-158.10000610351562,-31.500001907348633
400855,1.521675705909729,9.214990615844727,-2.0456490516662598,-0.1295740008354187,0.571649968624115,-0.4192099869251251,74.70000457763672,-167.70001220703125,-30.900001525878906
400876,1.502535104751587,9.258654594421387,-2.0665838718414307,-0.2591480016708374,0.6554920077323914,-0.4725639820098877,67.5,-165.3000030517578,-27.900001525878906
400900,1.449898600578308,9.161755561828613,-2.1090521812438965,-0.17530599236488342,0.6250039935112,-0.571649968624115,60.30000305175781,-177.3000030517578,-28.500001907348633
400920,1.449898600578308,9.12766170501709,-2.071967363357544,-0.07621999830007553,0.5868939757347107,-0.6173819899559021,69.9000015258789,-177.3000030517578,-19.5
400942,1.4977500438690186,9.120484352111816,-2.020526885986328,0.030487999320030212,0.571649968624115,-0.5868939757347107,72.30000305175781,-174.90000915527344,-26.100000381469727
400962,1.4905723333358765,9.349573135375977,-2.0994818210601807,0.060975998640060425,0.6936019659042358,-0.44969800114631653,69.9000015258789,-160.5,-23.700000762939453
400982,1.3924767971038818,9.22934627532959,-2.110248327255249,-0.1295740008354187,0.7088459730148315,-0.510673999786377,79.5,-158.10000610351562,-21.900001525878906
401002,1.3817102909088135,9.192859649658203,-2.0964910984039307,-0.04573199898004532,0.6631140112876892,-0.5335400104522705,69.9000015258789,-170.10000610351562,-25.500001907348633
401022,1.432552456855774,9.298730850219727,-2.0851263999938965,-0.09146399796009064,0.7317119836807251,-0.49542999267578125,72.30000305175781,-172.5,-20.100000381469727
401042,1.311727523803711,9.162952423095703,-2.062995195388794,-0.2439039945602417,0.7621999979019165,-0.5335400104522705,69.9000015258789,-182.10000610351562,-19.5
401065,1.4110193252563477,9.261645317077637,-2.014545440673828,-0.13719600439071655,0.7774440050125122,-0.5182960033416748,79.5,-167.70001220703125,-26.100000381469727
401085,1.406832218170166,9.3358154296875,-2.006171464920044,-0.2439039945602417,0.853663980960846,-0.5411620140075684,79.5,-172.5,-26.700000762939453
401105,1.296773910522461,9.086389541625977,-2.0456490516662598,-0.5259180068969727,0.8841519951820374,-0.685979962348938,57.900001525878906,-165.3000030517578,-18.900001525878906
401125,1.3482142686843872,9.24609375,-1.9846383333206177,-0.09908600151538849,0.8307979702949524,-0.4039659798145294,79.5,-167.70001220703125,-26.100000381469727
401145,1.3374476432800293,9.289758682250977,-1.9876290559768677,-0.2591480016708374,0.914639949798584,-0.3125019967556,91.5,-165.3000030517578,-18.900001525878906
401168,1.2638760805130005,9.245495796203613,-2.0259101390838623,-0.23628199100494385,0.8993960022926331,-0.28201398253440857,86.70000457763672,-167.70001220703125,-26.700000762939453
401231,1.3195034265518188,9.08997917175293,-1.9696848392486572,-0.114329993724823,0.6250039935112,-0.06859800219535828,72.30000305175781,-172.5,-24.30000114440918
401251,1.3165127038955688,9.262842178344727,-1.9977974891662598,0.015243999660015106,0.5640279650688171,0.114329993724823,77.10000610351562,-177.3000030517578,-26.700000762939453
401272,1.3111294507980347,9.198841094970703,-2.0546212196350098,-0.06859800219535828,0.3201240003108978,0.07621999830007553,77.10000610351562,-165.3000030517578,-22.5
401292,1.308736801147461,9.164746284484863,-2.080341339111328,-0.09908600151538849,0.19817200303077698,0.05335399881005287,81.9000015258789,-174.90000915527344,-23.700000762939453
401312,1.3488123416900635,9.197644233703613,-2.077350616455078,0.060975998640060425,-0.030487999320030212,0.10670799762010574,60.30000305175781,-172.5,-24.30000114440918
401334,1.3799158334732056,9.303515434265137,-2.0911078453063965,-0.09908600151538849,-0.3125019967556,0.2591480016708374,65.10000610351562,-167.70001220703125,-21.30000114440918
401374,1.5270589590072632,9.150989532470703,-2.0576117038726807,-0.20579399168491364,-0.41158798336982727,0.4192099869251251,86.70000457763672,-182.10000610351562,-21.900001525878906
401394,1.546797752380371,9.170727729797363,-2.160492420196533,-0.23628199100494385,-0.2743920087814331,0.36585599184036255,81.9000015258789,-167.70001220703125,-26.700000762939453
401416,1.5707234144210815,9.22037410736084,-2.155109167098999,-0.25152599811553955,-0.19054999947547913,0.3277460038661957,74.70000457763672,-177.3000030517578,-20.700000762939453
401436,1.5761067867279053,9.21319580078125,-2.1868107318878174,-0.2896359860897064,-0.07621999830007553,0.19817200303077698,69.9000015258789,-170.10000610351562,-21.30000114440918
401478,1.5886677503585815,9.236523628234863,-2.167072057723999,-0.2896359860897064,0.19054999947547913,0.007621999830007553,74.70000457763672,-174.90000915527344,-14.700000762939453
401499,1.6024249792099,9.22336483001709,-2.1084539890289307,-0.35061198472976685,0.228659987449646,0.007621999830007553,65.10000610351562,-160.5,-23.700000762939453
401519,1.505525827407837,9.13364315032959,-2.1658756732940674,-0.4725639820098877,0.2896359860897064,0.038109999150037766,74.70000457763672,-182.10000610351562,-18.30000114440918
401539,1.4959555864334106,9.239514350891113,-2.1921939849853516,-0.3887220025062561,0.28201398253440857,0.10670799762010574,77.10000610351562,-167.70001220703125,-19.5
401599,1.4546836614608765,9.02298641204834,-2.1000800132751465,-0.04573199898004532,-0.3048799932003021,-0.038109999150037766,77.10000610351562,-177.3000030517578,-28.500001907348633
401619,1.5019370317459106,9.20242977142334,-2.0970892906188965,-0.060975998640060425,-0.22103799879550934,0.19054999947547913,79.5,-182.10000610351562,-22.5
401639,1.332662582397461,9.168933868408203,-2.151520252227783,-0.07621999830007553,-0.030487999320030212,0.13719600439071655,69.9000015258789,-165.3000030517578,-20.700000762939453
401662,1.4594688415527344,9.25925350189209,-2.164081335067749,-0.06859800219535828,-0.3201240003108978,-0.1600620001554489,79.5,-170.10000610351562,-26.100000381469727
401682,1.5796955823898315,9.05289363861084,-2.0163400173187256,0.007621999830007553,-0.3277460038661957,-0.10670799762010574,79.5,-172.5,-21.900001525878906
401705,1.5222738981246948,9.031360626220703,-2.1060614585876465,0.05335399881005287,-0.04573199898004532,0.19054999947547913,79.5,-165.3000030517578,-22.5
401725,1.5635457038879395,9.19046688079834,-2.110846519470215,0.06859800219535828,0.038109999150037766,0.3201240003108978,84.30000305175781,-167.70001220703125,-22.5
401746,1.5031332969665527,9.263440132141113,-2.1269965171813965,0.1600620001554489,0.1295740008354187,0.28201398253440857,67.5,-170.10000610351562,-24.900001525878906
401766,1.5790973901748657,9.110315322875977,-2.1772403717041016,0.20579399168491364,0.13719600439071655,0.33536797761917114,79.5,-182.10000610351562,-24.30000114440918
401786,1.517488718032837,9.024781227111816,-2.1622867584228516,0.1600620001554489,0.19817200303077698,0.5868939757347107,60.30000305175781,-167.70001220703125,-27.30000114440918
401806,1.5019370317459106,9.132447242736816,-2.2645692825317383,0.2591480016708374,0.1448179930448532,0.853663980960846,60.30000305175781,-174.90000915527344,-30.30000114440918
401827,1.5796955823898315,9.241907119750977,-2.2394473552703857,0.16768398880958557,0,0.9222619533538818,62.70000076293945,-162.90000915527344,-17.100000381469727
401847,1.5641438961029053,9.253870010375977,-2.277728319168091,-0.07621999830007553,0.09146399796009064,0.6326259970664978,48.30000305175781,-174.90000915527344,-23.100000381469727
401867,1.62934148311615,9.098352432250977,-2.2454288005828857,-0.06859800219535828,0.07621999830007553,0.44969800114631653,69.9000015258789,-162.90000915527344,-25.500001907348633
401930,1.727436900138855,9.13065242767334,-2.2460267543792725,-0.09146399796009064,-0.09908600151538849,0.6326259970664978,62.70000076293945,-172.5,-17.700000762939453
401966,1.7633254528045654,9.087586402893066,-2.1796329021453857,-0.3048799932003021,0.015243999660015106,0.5564059615135193,69.9000015258789,-174.90000915527344,-23.100000381469727
401986,1.7531570196151733,9.119287490844727,-2.27473783493042,-0.3582339882850647,-0.007621999830007553,0.7469559907913208,57.900001525878906,-167.70001220703125,-18.900001525878906
402026,1.8823559284210205,9.16953182220459,-2.2316713333129883,-0.17530599236488342,-0.36585599184036255,0.7317119836807251,50.70000076293945,-165.3000030517578,-19.5
402049,1.9218333959579468,9.00205135345459,-2.22090482711792,-0.44969800114631653,-0.2439039945602417,0.2134159952402115,60.30000305175781,-177.3000030517578,-24.30000114440918
402070,1.9595164060592651,8.987696647644043,-2.2167179584503174,-0.18292799592018127,-0.426831990480423,0.3887220025062561,53.10000228881836,-184.5,-22.5
402090,1.9487497806549072,9.049304962158203,-2.226288080215454,-0.26677000522613525,-0.4192099869251251,0.36585599184036255,53.10000228881836,-174.90000915527344,-21.900001525878906
402112,1.940375804901123,9.12766170501709,-2.25380277633667,-0.22103799879550934,-0.44969800114631653,0.3277460038661957,62.70000076293945,-182.10000610351562,-17.100000381469727
402132,1.946357250213623,9.216785430908203,-2.2609803676605225,-0.35061198472976685,-0.4725639820098877,0.08384199440479279,62.70000076293945,-167.70001220703125,-27.30000114440918
402152,1.9140574932098389,9.10493278503418,-2.2394473552703857,-0.3201240003108978,-0.44969800114631653,-0.25152599811553955,50.70000076293945,-165.3000030517578,-25.500001907348633
402176,1.8991038799285889,9.03315544128418,-2.2633728981018066,-0.3277460038661957,-0.4192099869251251,-0.28201398253440857,57.900001525878906,-165.3000030517578,-31.500001907348633
402196,1.9320018291473389,9.000855445861816,-2.2167179584503174,-0.28201398253440857,-0.3277460038661957,-0.18292799592018127,60.30000305175781,-167.70001220703125,-17.700000762939453
402236,1.8841503858566284,9.01820182800293,-2.283709764480591,-0.4039659798145294,-0.18292799592018127,0.02286599949002266,57.900001525878906,-177.3000030517578,-27.30000114440918
402386,1.806391716003418,9.117493629455566,-2.3447203636169434,-0.41158798336982727,0.09146399796009064,-0.33536797761917114,67.5,-174.90000915527344,-23.100000381469727
402406,1.7806715965270996,9.125268936157227,-2.3112244606018066,-0.4039659798145294,0.07621999830007553,-0.3887220025062561,60.30000305175781,-174.90000915527344,-19.5
402449,1.7370071411132812,9.107922554016113,-2.313616991043091,-0.3887220025062561,0.15243999660015106,-0.16768398880958557,57.900001525878906,-179.70001220703125,-19.5
402509,1.8267285823822021,9.237720489501953,-2.24183988571167,-0.3734779953956604,0.05335399881005287,-0.1448179930448532,67.5,-179.70001220703125,-21.30000114440918
402529,1.708296298980713,9.004444122314453,-2.2549989223480225,-0.5945159792900085,0.28201398253440857,-0.38109999895095825,60.30000305175781,-179.70001220703125,-21.30000114440918
402571,1.8069899082183838,9.102540016174316,-2.2609803676605225,-0.3277460038661957,-0.015243999660015106,-0.09908600151538849,53.10000228881836,-165.3000030517578,-27.900001525878906
402593,1.8177565336227417,9.105530738830566,-2.2376527786254883,-0.3125019967556,0.12195199728012085,-0.10670799762010574,62.70000076293945,-179.70001220703125,-23.700000762939453
402613,1.8763744831085205,9.19525146484375,-2.253204584121704,-0.25152599811553955,0.1295740008354187,-0.25152599811553955,62.70000076293945,-174.90000915527344,-26.700000762939453
402633,1.8010084629058838,9.09296989440918,-2.223297357559204,-0.510673999786377,0.2134159952402115,-0.36585599184036255,60.30000305175781,-165.3000030517578,-25.500001907348633
402653,1.7699050903320312,9.03913688659668,-2.2813172340393066,-0.46494197845458984,0.38109999895095825,-0.342989981174469,55.500003814697266,-165.3000030517578,-23.700000762939453
402673,1.8512524366378784,9.082202911376953,-2.2615785598754883,-0.426831990480423,0.2439039945602417,-0.25152599811553955,72.30000305175781,-191.70001220703125,-16.5
402696,1.8512524366378784,9.14560604095459,-2.2047550678253174,-0.49542999267578125,0.3125019967556,-0.22103799879550934,65.10000610351562,-182.10000610351562,-24.30000114440918
402717,1.8656079769134521,9.05887508392334,-2.1563053131103516,-0.4878079891204834,0.4039659798145294,-0.3201240003108978,62.70000076293945,-172.5,-21.30000114440918
402737,1.8476636409759521,9.057679176330566,-2.2370548248291016,-0.44969800114631653,0.3734779953956604,-0.18292799592018127,55.500003814697266,-172.5,-26.100000381469727
402757,1.8500561714172363,9.107324600219727,-2.173053503036499,-0.49542999267578125,0.4192099869251251,-0.1448179930448532,67.5,-167.70001220703125,-27.30000114440918
402777,1.83151376247406,9.064258575439453,-2.178436756134033,-0.44969800114631653,0.4192099869251251,-0.17530599236488342,48.30000305175781,-177.3000030517578,-20.700000762939453
402799,1.8147658109664917,9.087586402893066,-2.205353021621704,-0.41158798336982727,0.4192099869251251,-0.18292799592018127,45.900001525878906,-184.5,-24.900001525878906
402821,1.7980177402496338,9.102540016174316,-2.1808292865753174,-0.35061198472976685,0.457319974899292,-0.2896359860897064,79.5,-167.70001220703125,-17.700000762939453
402841,1.8087843656539917,9.03016471862793,-2.2077457904815674,-0.3734779953956604,0.426831990480423,-0.2896359860897064,60.30000305175781,-167.70001220703125,-28.500001907348633
402863,1.8135695457458496,9.08997917175293,-2.1921939849853516,-0.33536797761917114,0.4344539940357208,-0.19054999947547913,62.70000076293945,-167.70001220703125,-18.30000114440918
402884,1.806391716003418,9.156373023986816,-2.1766421794891357,-0.3582339882850647,0.426831990480423,-0.17530599236488342,57.900001525878906,-186.90000915527344,-25.500001907348633
402904,1.82553231716156,9.09177303314209,-2.1868107318878174,-0.342989981174469,0.342989981174469,-0.2439039945602417,55.500003814697266,-174.90000915527344,-21.900001525878906
402924,1.8961132764816284,9.100147247314453,-2.157501697540283,-0.2896359860897064,0.342989981174469,-0.23628199100494385,72.30000305175781,-174.90000915527344,-30.900001525878906
402946,1.8117750883102417,9.027771949768066,-2.142548084259033,-0.44969800114631653,0.3201240003108978,-0.228659987449646,65.10000610351562,-170.10000610351562,-23.700000762939453
402966,1.8775707483291626,9.131250381469727,-2.1838200092315674,-0.22103799879550934,0.3201240003108978,-0.114329993724823,57.900001525878906,-172.5,-24.900001525878906
402986,1.8632153272628784,9.21738338470459,-2.139557361602783,-0.3048799932003021,0.3201240003108978,-0.18292799592018127,55.500003814697266,-174.90000915527344,-24.30000114440918
403006,1.8069899082183838,9.00922966003418,-2.18501615524292,-0.6173819899559021,0.25152599811553955,-0.3125019967556,41.10000228881836,-172.5,-17.700000762939453
403026,1.8608227968215942,9.006836891174316,-2.2017643451690674,-0.1600620001554489,0.2591480016708374,-0.22103799879550934,72.30000305175781,-170.10000610351562,-24.30000114440918
403046,1.8943188190460205,9.177906036376953,-2.1323797702789307,-0.2591480016708374,0.1448179930448532,-0.15243999660015106,53.10000228881836,-179.70001220703125,-26.100000381469727
403066,1.8644115924835205,9.10074520111084,-2.121613025665283,-0.28201398253440857,0.25152599811553955,-0.19817200303077698,57.900001525878906,-179.70001220703125,-28.500001907348633
403086,1.7854567766189575,9.188074111938477,-2.1808292865753174,-0.23628199100494385,0.3048799932003021,-0.28201398253440857,62.70000076293945,-182.10000610351562,-24.900001525878906
403106,1.738203525543213,9.127063751220703,-2.155707359313965,-0.35061198472976685,0.2743920087814331,-0.41158798336982727,69.9000015258789,-177.3000030517578,-26.700000762939453
403127,1.7417923212051392,9.10493278503418,-2.2017643451690674,-0.3048799932003021,0.2972579896450043,-0.510673999786377,60.30000305175781,-167.70001220703125,-18.900001525878906
403147,1.7818678617477417,9.152185440063477,-2.182025671005249,-0.342989981174469,0.2743920087814331,-0.5259180068969727,60.30000305175781,-174.90000915527344,-26.700000762939453
403168,1.8057936429977417,9.186878204345703,-2.1509220600128174,-0.426831990480423,0.2896359860897064,-0.5259180068969727,62.70000076293945,-174.90000915527344,-24.900001525878906
403188,1.7812697887420654,9.054688453674316,-2.172455310821533,-0.4192099869251251,0.2972579896450043,-0.48018598556518555,62.70000076293945,-177.3000030517578,-22.5
403210,1.7519607543945312,9.04990291595459,-2.173053503036499,-0.3582339882850647,0.2743920087814331,-0.2896359860897064,67.5,-179.70001220703125,-24.900001525878906
403230,1.733418345451355,9.13962459564209,-2.1682682037353516,-0.25152599811553955,0.228659987449646,-0.18292799592018127,69.9000015258789,-182.10000610351562,-27.900001525878906
403254,1.742390513420105,9.142017364501953,-2.167072057723999,-0.28201398253440857,0.25152599811553955,-0.1600620001554489,62.70000076293945,-177.3000030517578,-24.900001525878906
403274,1.752558946609497,9.105530738830566,-2.1927921772003174,-0.2972579896450043,0.19817200303077698,-0.114329993724823,45.900001525878906,-174.90000915527344,-26.100000381469727
403294,1.7537552118301392,9.079212188720703,-2.1832218170166016,-0.23628199100494385,0.1600620001554489,-0.038109999150037766,62.70000076293945,-172.5,-27.30000114440918
403314,1.7633254528045654,9.10672664642334,-2.21492338180542,-0.19817200303077698,0.10670799762010574,-0.02286599949002266,57.900001525878906,-179.70001220703125,-26.100000381469727
403334,1.7794753313064575,9.130054473876953,-2.1951847076416016,-0.19817200303077698,0.05335399881005287,-0.06859800219535828,55.500003814697266,-174.90000915527344,-21.30000114440918
403354,1.8010084629058838,9.107324600219727,-2.1945865154266357,-0.228659987449646,0.007621999830007553,-0.1448179930448532,69.9000015258789,-174.90000915527344,-20.100000381469727
403374,1.848261833190918,9.124073028564453,-2.1981754302978516,-0.19054999947547913,0,-0.1600620001554489,67.5,-165.3000030517578,-26.700000762939453
403397,1.824336051940918,9.064258575439453,-2.1856143474578857,-0.2134159952402115,0.04573199898004532,-0.15243999660015106,62.70000076293945,-160.5,-30.900001525878906
403417,1.8512524366378784,9.164746284484863,-2.178436756134033,-0.1600620001554489,0.09908600151538849,-0.10670799762010574,60.30000305175781,-170.10000610351562,-17.700000762939453
403437,1.7800735235214233,8.963770866394043,-2.202362537384033,-0.3201240003108978,0.13719600439071655,-0.15243999660015106,62.70000076293945,-179.70001220703125,-26.100000381469727
403457,1.8386914730072021,9.182690620422363,-2.238250970840454,-0.10670799762010574,0.10670799762010574,-0.04573199898004532,69.9000015258789,-174.90000915527344,-27.900001525878906
403477,1.8703930377960205,9.22635555267334,-2.2065494060516357,-0.228659987449646,0.13719600439071655,-0.09146399796009064,60.30000305175781,-170.10000610351562,-20.700000762939453
403497,1.7944289445877075,8.88481616973877,-2.2221012115478516,-0.5030519962310791,0.04573199898004532,-0.17530599236488342,53.10000228881836,-174.90000915527344,-27.30000114440918
403517,1.83450448513031,9.085193634033203,-2.22090482711792,-0.16768398880958557,-0.007621999830007553,-0.038109999150037766,67.5,-167.70001220703125,-23.700000762939453
403540,1.946357250213623,9.04511833190918,-2.175446033477783,-0.3887220025062561,0,-0.09908600151538849,62.70000076293945,-179.70001220703125,-26.700000762939453
403560,2.048041582107544,9.185083389282227,-2.184418201446533,-0.2591480016708374,0.07621999830007553,0.05335399881005287,62.70000076293945,-177.3000030517578,-21.900001525878906
403580,2.0815374851226807,9.07382869720459,-2.1598942279815674,-0.44969800114631653,0.15243999660015106,0.06859800219535828,65.10000610351562,-177.3000030517578,-27.30000114440918
403603,2.19398832321167,9.248486518859863,-2.196381092071533,-0.3048799932003021,0.17530599236488342,0.22103799879550934,62.70000076293945,-172.5,-23.100000381469727
403623,2.2484195232391357,9.150391578674316,-2.1180243492126465,-0.35061198472976685,0.1295740008354187,0.12195199728012085,57.900001525878906,-165.3000030517578,-22.5
403643,2.337542772293091,9.074426651000977,-2.104865074157715,-0.3277460038661957,0.16768398880958557,0.19054999947547913,62.70000076293945,-179.70001220703125,-24.30000114440918
403727,2.3178040981292725,9.00025749206543,-2.012152910232544,-0.342989981174469,0.19817200303077698,-0.2591480016708374,60.30000305175781,-165.3000030517578,-20.100000381469727
403767,2.355487108230591,8.939845085144043,-2.0217232704162598,-0.28201398253440857,0.25152599811553955,-0.5335400104522705,50.70000076293945,-172.5,-27.30000114440918
403787,2.330364942550659,8.98829460144043,-2.039069414138794,-0.20579399168491364,0.3277460038661957,-0.5335400104522705,65.10000610351562,-182.10000610351562,-20.700000762939453
403828,2.2783265113830566,9.01401424407959,-2.0815374851226807,-0.16768398880958557,0.39634400606155396,-0.7240899801254272,62.70000076293945,-179.70001220703125,-26.100000381469727
403870,2.313018798828125,8.82380485534668,-2.1473333835601807,-0.44969800114631653,0.26677000522613525,-1.0823240280151367,77.10000610351562,-174.90000915527344,-20.700000762939453
403969,2.658745527267456,8.725111961364746,-2.012152910232544,-0.015243999660015106,-0.457319974899292,-0.7621999979019165,67.5,-162.90000915527344,-28.500001907348633
404007,2.5917534828186035,8.14551067352295,-1.8650097846984863,0.1600620001554489,-0.5868939757347107,-0.9527499675750732,67.5,-162.90000915527344,-23.700000762939453
404027,2.0994818210601807,7.796793460845947,-1.7190629243850708,0.23628199100494385,-0.6402480006217957,-1.1204339265823364,60.30000305175781,-182.10000610351562,-22.5
404067,0.6190779805183411,4.679272651672363,-0.9073829054832458,-0.5182960033416748,-1.2652519941329956,-3.0869100093841553,65.10000610351562,-172.5,-23.700000762939453
404087,-0.4139149487018585,2.697624683380127,-0.5933578014373779,-0.9298839569091797,-0.510673999786377,-1.6615959405899048,72.30000305175781,-170.10000610351562,-30.30000114440918
404130,-1.2561002969741821,4.3802008628845215,-1.1717621088027954,-1.5091559886932373,2.8277618885040283,5.876561641693115,60.30000305175781,-162.90000915527344,-21.900001525878906
404152,-1.0443576574325562,7.771073341369629,-2.340533494949341,-0.7088459730148315,3.9405739307403564,9.451279640197754,60.30000305175781,-162.90000915527344,-26.100000381469727
404172,-0.30565106868743896,12.336698532104492,-3.112137794494629,-1.9740979671478271,2.8277618885040283,7.324741840362549,45.900001525878906,-172.5,-24.900001525878906
404192,-0.19379831850528717,13.27578353881836,-3.5212676525115967,-0.41158798336982727,2.1570260524749756,3.9939279556274414,38.70000076293945,-170.10000610351562,-29.700000762939453
404212,0.48928093910217285,14.606651306152344,-3.6833643913269043,-0.12195199728012085,1.92836594581604,5.129605770111084,45.900001525878906,-177.3000030517578,-23.100000381469727
404232,3.228177547454834,19.481515884399414,-4.19776725769043,-1.1814099550247192,4.275941848754883,9.35981559753418,29.100000381469727,-172.5,-23.700000762939453
404252,6.062777042388916,19.56705093383789,-5.574692726135254,0.5640279650688171,9.466524124145508,9.138777732849121,19.5,-165.3000030517578,-26.700000762939453
404274,9.554137229919434,19.599349975585938,-8.360244750976562,2.8658719062805176,9.14639949798584,4.115880012512207,29.100000381469727,-158.10000610351562,-20.100000381469727
404294,8.983509063720703,19.599349975585938,-8.021097183227539,1.7835479974746704,-0.8460419774055481,-3.871975898742676,12.300000190734863,-162.90000915527344,-27.900001525878906
404317,9.28497314453125,19.599349975585938,-4.84615421295166,-4.222588062286377,-8.231760025024414,2.7744078636169434,12.300000190734863,-182.10000610351562,-23.100000381469727
404337,6.47848653793335,18.04298210144043,-1.5252646207809448,-4.2149658203125,-5.061007976531982,-4.093013763427734,17.100000381469727,-189.3000030517578,-23.100000381469727
404357,3.951930522918701,11.105122566223145,-2.1150336265563965,-0.9527499675750732,0.15243999660015106,-11.471109390258789,19.5,-177.3000030517578,-23.100000381469727
404377,1.4020471572875977,4.134364128112793,-0.9037940502166748,-1.4100699424743652,-2.995445966720581,-14.047346115112305,31.500001907348633,-182.10000610351562,-25.500001907348633
404397,-0.61249840259552,-0.5221788287162781,0.8966163396835327,-2.4542839527130127,-2.736297845840454,-8.81865406036377,41.10000228881836,-177.3000030517578,-32.10000228881836
404417,-2.0917060375213623,-3.2562904357910156,1.0826387405395508,-3.4222779273986816,0.25152599811553955,-5.061007976531982,55.500003814697266,-172.5,-25.500001907348633
404479,1.2519131898880005,1.8638135194778442,0.18662060797214508,-0.2439039945602417,-0.2591480016708374,2.187514066696167,31.500001907348633,-170.10000610351562,-25.500001907348633
404499,0.6340315341949463,-0.04964586719870567,0.05742172524333,-0.7088459730148315,-0.6021379828453064,1.4481799602508545,43.5,-177.3000030517578,-23.700000762939453
404519,0.6370222568511963,-0.47193479537963867,0.48329952359199524,-0.6021379828453064,-0.9756159782409668,2.5686140060424805,43.5,-162.90000915527344,-28.500001907348633
404539,0.5335435271263123,-0.47731807827949524,0.60651695728302,-0.8460419774055481,-0.342989981174469,2.5000159740448,31.500001907348633,-177.3000030517578,-24.900001525878906
404559,0.3415396511554718,-0.5861800909042358,0.7620341181755066,-1.0365920066833496,0.015243999660015106,2.1112940311431885,36.30000305175781,-186.90000915527344,-23.100000381469727
404624,0.6531721353530884,0.06938458234071732,0.6687238216400146,-0.6021379828453064,0.4878079891204834,1.1509219408035278,31.500001907348633,-167.70001220703125,-27.900001525878906
404748,6.69262170791626,17.501663208007812,-3.0146405696868896,4.413137912750244,1.981719970703125,-1.2500079870224,-16.5,-179.70001220703125,-30.30000114440918
404786,18.681201934814453,19.59396743774414,-8.733485221862793,-5.990891933441162,8.9329833984375,16.60071563720703,-33.30000305175781,-177.3000030517578,-30.900001525878906
404849,9.01521110534668,18.637537002563477,-3.7515528202056885,-4.489357948303223,-4.2911858558654785,-0.9832379817962646,-33.30000305175781,-165.3000030517578,-25.500001907348633
404869,6.073543548583984,14.031237602233887,-3.1845130920410156,-1.1204339265823364,-4.0396599769592285,-7.522913932800293,-16.5,-174.90000915527344,-28.500001907348633
404889,2.641399383544922,7.279998302459717,-1.5844807624816895,-0.09146399796009064,-6.737847805023193,-16.18150520324707,-11.700000762939453,-167.70001220703125,-23.700000762939453
404930,-1.7220536470413208,-2.1383612155914307,-0.0352904349565506,-1.3109840154647827,-3.765267848968506,-11.814099311828613,26.700000762939453,-167.70001220703125,-24.900001525878906
404985,0.8332131505012512,2.45896577835083,0.2990714907646179,0.19817200303077698,-1.5167779922485352,-0.800309956073761,31.500001907348633,-167.70001220703125,-22.5
405029,0.06400129944086075,-0.9588232040405273,0.7255474328994751,-1.3109840154647827,-0.05335399881005287,-3.041177988052368,38.70000076293945,-184.5,-24.900001525878906
405049,-0.051440294831991196,-0.8691017627716064,0.8882423043251038,-0.6478700041770935,0.08384199440479279,-1.478667974472046,48.30000305175781,-170.10000610351562,-28.500001907348633
405091,0.06340315192937851,-0.7422954440116882,0.9947117567062378,-0.8460419774055481,1.0594580173492432,-1.1661659479141235,36.30000305175781,-179.70001220703125,-28.500001907348633
405131,0.07895487546920776,-0.727940022945404,0.8930274844169617,-0.4878079891204834,1.4634239673614502,-0.12195199728012085,41.10000228881836,-167.70001220703125,-26.700000762939453
405226,7.093377590179443,19.599349975585938,-3.582278251647949,-5.160093784332275,1.013725996017456,11.859831809997559,-4.5,-179.70001220703125,-29.700000762939453
405291,16.182159423828125,19.599349975585938,-8.76817798614502,-3.620450019836426,4.207344055175781,8.407065391540527,-28.500001907348633,-170.10000610351562,-23.100000381469727
405384,4.124794006347656,10.680440902709961,-2.4153013229370117,-0.46494197845458984,-5.083873748779297,-12.149467468261719,-2.1000001430511475,-170.10000610351562,-29.100000381469727
405446,-0.7739970088005066,-4.1002702713012695,0.22968690097332,-1.646351933479309,-1.7225719690322876,-7.080837726593018,33.900001525878906,-184.5,-26.100000381469727
405507,1.933198094367981,3.958510160446167,-0.08792701363563538,-0.7012239694595337,-0.5792719721794128,1.5091559886932373,24.30000114440918,-174.90000915527344,-20.700000762939453
405530,0.3373526334762573,-0.7004254460334778,0.19020946323871613,-1.806414008140564,-1.14329993724823,-4.375028133392334,36.30000305175781,-167.70001220703125,-20.700000762939453
405551,0.16149860620498657,-1.2136321067810059,0.6250594258308411,-1.242385983467102,-1.2347639799118042,-2.5609920024871826,33.900001525878906,-167.70001220703125,-21.30000114440918
405571,0.09988987445831299,-0.7626323103904724,0.7255474328994751,-1.1356779336929321,-0.02286599949002266,-1.882633924484253,38.70000076293945,-174.90000915527344,-26.700000762939453
405592,-0.25241634249687195,-0.4797106683254242,0.708799421787262,-1.3872039318084717,0.5030519962310791,-1.8521459102630615,33.900001525878906,-167.70001220703125,-26.700000762939453
405612,-0.42886850237846375,-0.5748153924942017,0.4504016637802124,-1.5472660064697266,0.9832379817962646,-1.935987949371338,36.30000305175781,-174.90000915527344,-30.30000114440918
405636,-0.5251695513725281,-0.8296242952346802,0.3475210666656494,-1.1280559301376343,0.6478700041770935,-1.6234859228134155,33.900001525878906,-172.5,-28.500001907348633
405656,-0.14654502272605896,-0.30266034603118896,0.37025049328804016,0.02286599949002266,0.457319974899292,-0.15243999660015106,36.30000305175781,-177.3000030517578,-25.500001907348633
405676,0.6382185220718384,2.015143632888794,-0.06220686808228493,1.8597679138183594,1.3109840154647827,2.843005895614624,48.30000305175781,-182.10000610351562,-26.100000381469727
405696,1.6203693151474,5.524448394775391,-1.0108616352081299,1.7835479974746704,2.1189160346984863,7.5991339683532715,43.5,-179.70001220703125,-30.900001525878906
405740,7.090386867523193,19.560470581054688,-4.140944004058838,-3.452765941619873,3.5975840091705322,16.67693519592285,-16.5,-177.3000030517578,-23.100000381469727
405760,7.969058990478516,19.559274673461914,-4.846752643585205,-1.3414719104766846,3.910085916519165,7.576267719268799,-4.5,-174.90000915527344,-35.70000076293945
405780,10.706759452819824,19.599349975585938,-5.922811508178711,2.538125991821289,6.440589904785156,2.14178204536438,-16.5,-174.90000915527344,-32.10000228881836
405800,17.31145477294922,19.599349975585938,-8.834571838378906,-0.8384199738502502,5.327777862548828,11.623549461364746,-11.700000762939453,-153.3000030517578,-31.500001907348633
405823,17.75168800354004,19.599349975585938,-5.472410202026367,-7.759195804595947,-3.803377866744995,-3.7195358276367188,-30.900001525878906,-155.70001220703125,-25.500001907348633
405843,12.176396369934082,19.599349975585938,-3.162381887435913,-0.8993960022926331,-4.672286033630371,-14.108322143554688,-6.900000095367432,-179.70001220703125,-19.5
405863,7.370317459106445,18.044776916503906,-3.171952247619629,-1.4939119815826416,1.4862899780273438,-8.971094131469727,-4.5,-177.3000030517578,-25.500001907348633
405927,-0.09450659155845642,0.2984733283519745,0.2470330446958542,0.9298839569091797,-1.295740008354187,-16.69217872619629,26.700000762939453,-179.70001220703125,-28.500001907348633
405947,-1.9499460458755493,-3.609194755554199,0.38640037178993225,0.038109999150037766,-2.080806016921997,-10.365920066833496,45.900001525878906,-170.10000610351562,-27.900001525878906
405968,-1.7890455722808838,-3.9268085956573486,0.5730209946632385,1.295740008354187,-1.0899460315704346,-1.1280559301376343,53.10000228881836,-172.5,-31.500001907348633
405988,0.6561628580093384,1.0156468152999878,-0.42288708686828613,4.085391998291016,-1.371959924697876,5.960403919219971,57.900001525878906,-174.90000915527344,-23.700000762939453
406008,1.7148759365081787,3.746169328689575,-0.1058713048696518,1.6387299299240112,-1.3186060190200806,4.367405891418457,45.900001525878906,-165.3000030517578,-21.900001525878906
406028,0.4545886516571045,0.7440898418426514,-0.13936731219291687,0.12195199728012085,-0.48018598556518555,-0.9756159782409668,53.10000228881836,-179.70001220703125,-29.100000381469727
406052,0.2721550464630127,-0.8314187526702881,0.13458216190338135,0.8460419774055481,-1.0365920066833496,0.15243999660015106,48.30000305175781,-179.70001220703125,-17.700000762939453
406115,0.20576117932796478,-0.39357808232307434,0.7482768297195435,-0.18292799592018127,1.196653962135315,1.2728739976882935,36.30000305175781,-189.3000030517578,-17.700000762939453
406165,-0.10706759244203568,-0.4797106683254242,0.3648672103881836,-0.8765299916267395,2.4009299278259277,0.6631140112876892,50.70000076293945,-177.3000030517578,-24.30000114440918
406185,0.1178341656923294,0.4958605170249939,0.005383286625146866,0.5335400104522705,2.942091941833496,1.646351933479309,41.10000228881836,-179.70001220703125,-27.900001525878906
406225,3.3902742862701416,11.607562065124512,-3.2443275451660156,3.871975898742676,9.413169860839844,19.253171920776367,17.100000381469727,-170.10000610351562,-29.100000381469727
406245,9.4195556640625,19.599349975585938,-6.73449182510376,-0.9222619533538818,9.969575881958008,25.30504035949707,-6.900000095367432,-174.90000915527344,-29.100000381469727
406265,10.928669929504395,19.540733337402344,-4.867687702178955,-4.969543933868408,-2.5533699989318848,0.9298839569091797,-18.900001525878906,-182.10000610351562,-30.30000114440918
406288,11.795379638671875,19.599349975585938,-6.471907138824463,4.862835884094238,10.182991981506348,4.2149658203125,-6.900000095367432,-160.5,-22.5
406308,18.14466667175293,19.59695816040039,-10.057175636291504,-5.4573516845703125,13.75008773803711,19.603782653808594,-21.30000114440918,-167.70001220703125,-28.500001907348633
406330,17.20438575744629,19.599349975585938,-8.70537281036377,-7.690598011016846,-5.259180068969727,0.5411620140075684,-33.30000305175781,-162.90000915527344,-24.30000114440918
406350,10.878426551818848,19.46476936340332,-3.722841739654541,-5.579303741455078,-17.256208419799805,-16.463520050048828,-33.30000305175781,-167.70001220703125,-32.10000228881836
406370,6.97853422164917,13.873926162719727,1.096994161605835,-5.198204040527344,-7.5915117263793945,-11.333913803100586,-14.100000381469727,-179.70001220703125,-24.900001525878906
406390,3.9932024478912354,10.678646087646484,-2.2101383209228516,-4.207344055175781,2.5609920024871826,-11.044278144836426,2.700000047683716,-158.10000610351562,-26.700000762939453
406410,0.9360937476158142,5.269041538238525,-0.2237054705619812,-2.850627899169922,-5.068629741668701,-16.69217872619629,17.100000381469727,-184.5,-24.900001525878906
406433,-0.9073829054832458,-0.824839174747467,1.6813799142837524,-0.17530599236488342,-2.5228819847106934,-17.301939010620117,24.30000114440918,-189.3000030517578,-27.30000114440918
406453,-3.0630900859832764,-5.180516242980957,0.9923191666603088,-0.228659987449646,0.25152599811553955,-13.422341346740723,57.900001525878906,-186.90000915527344,-25.500001907348633
406473,-2.0647895336151123,-3.573306083679199,-0.07656230032444,3.917707920074463,1.2652519941329956,-0.9984819889068604,62.70000076293945,-177.3000030517578,-27.30000114440918
406493,1.2752407789230347,3.47281813621521,-0.6932476758956909,5.312533855438232,-1.8902559280395508,8.079319953918457,38.70000076293945,-167.70001220703125,-33.900001525878906
406535,-0.17585402727127075,-1.5976399183273315,-0.2428460419178009,2.789651870727539,-1.0594580173492432,-4.6951518058776855,38.70000076293945,-177.3000030517578,-23.700000762939453
406578,-0.16389118134975433,-0.4713366627693176,0.22011661529541016,0.9527499675750732,-1.2728739976882935,1.0594580173492432,43.5,-167.70001220703125,-24.30000114440918
406598,-0.2739494740962982,-0.6376203894615173,0.06699201464653015,0.3887220025062561,-0.853663980960846,-0.060975998640060425,48.30000305175781,-177.3000030517578,-24.30000114440918
406622,-0.22490175068378448,-0.7632304430007935,0.07716044038534164,-0.2134159952402115,-0.8993960022926331,-0.015243999660015106,43.5,-177.3000030517578,-23.100000381469727
406642,0.09450659155845642,-0.37862449884414673,0.031103434041142464,-0.09146399796009064,-0.457319974899292,0.3887220025062561,36.30000305175781,-170.10000610351562,-15.90000057220459
406662,0.8691017627716064,1.636519193649292,-0.22191104292869568,1.1509219408035278,0.4344539940357208,2.240867853164673,43.5,-167.70001220703125,-22.5
406682,1.3607752323150635,5.388669967651367,-1.20705246925354,3.208861827850342,4.146368026733398,7.324741840362549,38.70000076293945,-177.3000030517578,-18.900001525878906
406702,5.4113993644714355,13.777027130126953,-4.090699672698975,2.5152599811553955,8.68145751953125,21.105318069458008,36.30000305175781,-174.90000915527344,-23.700000762939453
406724,9.612157821655273,19.558677673339844,-5.4353251457214355,-3.864353895187378,2.14178204536438,7.3399858474731445,7.500000476837158,-182.10000610351562,-22.5
406745,6.604096412658691,17.57284164428711,-3.461453437805176,1.882633924484253,-3.399411916732788,-12.759227752685547,-4.5,-177.3000030517578,-26.700000762939453
406765,5.484971046447754,13.49470329284668,-4.597925186157227,3.8872199058532715,1.699705958366394,-9.199753761291504,14.700000762939453,-174.90000915527344,-23.700000762939453
406785,7.279998302459717,18.559778213500977,-7.187285900115967,1.653973937034607,4.245453834533691,7.60675573348999,17.100000381469727,-177.3000030517578,-24.900001525878906
406806,8.629408836364746,19.599349975585938,-5.871969699859619,-3.757645845413208,-3.346057891845703,6.394857883453369,12.300000190734863,-179.70001220703125,-22.5
406826,7.972647666931152,19.221921920776367,-3.8173484802246094,-2.850627899169922,-8.315601348876953,-1.6768399477005005,-2.1000001430511475,-177.3000030517578,-26.700000762939453
406846,4.550073623657227,11.729583740234375,-0.14235801994800568,-4.260697841644287,-6.478699684143066,-11.234827995300293,5.100000381469727,-182.10000610351562,-27.30000114440918
406888,0.4492053687572479,4.38797664642334,-2.1036689281463623,-2.0960500240325928,-1.242385983467102,-5.335400104522705,31.500001907348633,-182.10000610351562,-31.500001907348633
406908,1.2812222242355347,4.679272651672363,0.4486072361469269,-3.902463912963867,-1.7149499654769897,0.4420759975910187,21.900001525878906,-174.90000915527344,-25.500001907348633
406951,1.622761845588684,4.4250617027282715,-0.31282877922058105,-1.2881180047988892,0.6707359552383423,0.9222619533538818,38.70000076293945,-172.5,-27.30000114440918
406972,2.1473333835601807,5.754733562469482,-0.8403908610343933,0.3125019967556,0.8841519951820374,1.4558019638061523,26.700000762939453,-189.3000030517578,-24.900001525878906
407014,2.6850638389587402,7.391252517700195,-1.1484345197677612,0.9984819889068604,-0.10670799762010574,0.46494197845458984,36.30000305175781,-170.10000610351562,-33.30000305175781
407034,3.1372599601745605,8.37759017944336,-1.1496307849884033,0.9527499675750732,-0.2743920087814331,0.17530599236488342,36.30000305175781,-177.3000030517578,-28.500001907348633
407056,3.65106463432312,10.012913703918457,-1.6078083515167236,0.7012239694595337,0.7012239694595337,1.3033620119094849,24.30000114440918,-182.10000610351562,-24.900001525878906
407076,4.295862674713135,12.181181907653809,-2.9165451526641846,0.06859800219535828,1.9588539600372314,2.8048958778381348,26.700000762939453,-177.3000030517578,-24.900001525878906
407099,3.8472557067871094,12.059758186340332,-2.599529266357422,-0.5564059615135193,-1.0365920066833496,-0.5945159792900085,17.100000381469727,-179.70001220703125,-24.900001525878906
407119,2.835197687149048,10.207907676696777,-2.4996395111083984,0.7698220014572144,-0.3734779953956604,-1.3490939140319824,14.700000762939453,-186.90000915527344,-15.90000057220459
407141,2.545098304748535,10.221067428588867,-1.824336051940918,-0.914639949798584,-1.6615959405899048,-0.6173819899559021,21.900001525878906,-182.10000610351562,-25.500001907348633
407183,2.0187325477600098,8.015115737915039,-1.4881796836853027,-1.425313949584961,-0.09908600151538849,-1.981719970703125,36.30000305175781,-182.10000610351562,-32.10000228881836
407203,2.2789247035980225,8.2442045211792,-1.5928547382354736,-1.471045970916748,0.3582339882850647,-0.739333987236023,29.100000381469727,-177.3000030517578,-24.30000114440918
407226,2.4338438510894775,8.263344764709473,-1.648482084274292,-1.0365920066833496,0.3887220025062561,-0.6402480006217957,26.700000762939453,-172.5,-27.900001525878906
407246,2.5116024017333984,7.931973934173584,-1.530647873878479,-0.6021379828453064,0.228659987449646,-0.36585599184036255,33.900001525878906,-186.90000915527344,-27.30000114440918
407266,2.6958303451538086,8.241811752319336,-1.6460894346237183,0.2972579896450043,0.3125019967556,0.2743920087814331,29.100000381469727,-179.70001220703125,-27.30000114440918
407286,2.819645881652832,8.656923294067383,-1.7573440074920654,0.6478700041770935,0.16768398880958557,0.4420759975910187,38.70000076293945,-184.5,-26.700000762939453
407309,3.031986713409424,9.09177303314209,-1.8219435214996338,0.7850660085678101,-0.007621999830007553,0.5792719721794128,36.30000305175781,-174.90000915527344,-27.30000114440918
407329,3.27961802482605,9.53021240234375,-1.9726755619049072,0.6554920077323914,-0.07621999830007553,0.6173819899559021,24.30000114440918,-167.70001220703125,-27.900001525878906
407349,3.156998634338379,9.191662788391113,-1.8518506288528442,0,-0.20579399168491364,0.35061198472976685,26.700000762939453,-170.10000610351562,-18.900001525878906
407369,3.1372599601745605,9.426135063171387,-1.9032909870147705,-0.038109999150037766,-0.1448179930448532,0.457319974899292,19.5,-170.10000610351562,-26.100000381469727
407389,2.980546474456787,9.240711212158203,-1.9798532724380493,-0.8079319596290588,-0.17530599236488342,0.08384199440479279,36.30000305175781,-165.3000030517578,-33.900001525878906
407431,2.843571662902832,8.81004810333252,-1.6329302787780762,-0.7850660085678101,-0.04573199898004532,-0.23628199100494385,29.100000381469727,-182.10000610351562,-20.700000762939453
407451,2.8597216606140137,9.03494930267334,-1.5958454608917236,-0.48018598556518555,0.3125019967556,-0.2896359860897064,24.30000114440918,-184.5,-27.30000114440918
407471,2.8088793754577637,8.860291481018066,-1.511507272720337,-0.7545779943466187,0.49542999267578125,-0.49542999267578125,24.30000114440918,-177.3000030517578,-24.900001525878906
407491,2.820244073867798,8.784327507019043,-1.4744224548339844,-0.5564059615135193,0.6631140112876892,-0.49542999267578125,26.700000762939453,-177.3000030517578,-34.5
407511,2.828618049621582,8.725111961364746,-1.4702354669570923,-0.39634400606155396,0.8765299916267395,-0.2972579896450043,26.700000762939453,-182.10000610351562,-24.30000114440918
407552,2.736504077911377,9.01999568939209,-1.5820881128311157,-0.05335399881005287,1.0747020244598389,0.12195199728012085,41.10000228881836,-170.10000610351562,-23.700000762939453
407572,2.6778860092163086,9.12168025970459,-1.5982379913330078,0.04573199898004532,0.8231759667396545,0.09146399796009064,29.100000381469727,-179.70001220703125,-24.30000114440918
407592,2.6521658897399902,9.08100700378418,-1.5850788354873657,0.060975998640060425,0.5564059615135193,0,41.10000228881836,-182.10000610351562,-33.30000305175781
407614,2.671306610107422,9.062463760375977,-1.5689289569854736,0.09146399796009064,0.228659987449646,-0.09908600151538849,24.30000114440918,-174.90000915527344,-23.100000381469727
407675,2.6994192600250244,9.106128692626953,-1.5904622077941895,0.05335399881005287,-0.5487840175628662,-0.5564059615135193,24.30000114440918,-170.10000610351562,-31.500001907348633
407695,2.718559741973877,8.965564727783203,-1.4786094427108765,0.007621999830007553,-0.685979962348938,-0.4878079891204834,24.30000114440918,-167.70001220703125,-23.700000762939453
407715,2.7281301021575928,8.881226539611816,-1.4403282403945923,-0.015243999660015106,-0.6402480006217957,-0.3048799932003021,29.100000381469727,-172.5,-20.700000762939453
407735,2.798711061477661,9.05588436126709,-1.5007407665252686,0.05335399881005287,-0.5945159792900085,-0.12195199728012085,17.100000381469727,-184.5,-26.100000381469727
407755,2.7819628715515137,9.009827613830566,-1.5091147422790527,-0.08384199440479279,-0.5868939757347107,-0.060975998640060425,19.5,-177.3000030517578,-26.700000762939453
407775,2.8692917823791504,9.08698844909668,-1.4750205278396606,-0.015243999660015106,-0.5411620140075684,-0.038109999150037766,29.100000381469727,-162.90000915527344,-24.900001525878906
407797,2.9320969581604004,9.234130859375,-1.4726279973983765,-0.16768398880958557,-0.4192099869251251,-0.2439039945602417,19.5,-174.90000915527344,-25.500001907348633
407817,2.9470503330230713,9.13962459564209,-1.433748722076416,-0.19817200303077698,-0.2896359860897064,-0.457319974899292,31.500001907348633,-186.90000915527344,-27.30000114440918
407839,2.986527919769287,9.012818336486816,-1.3631678819656372,-0.18292799592018127,-0.16768398880958557,-0.5335400104522705,33.900001525878906,-165.3000030517578,-21.900001525878906
407860,2.9338912963867188,8.59471607208252,-1.335653305053711,-0.3125019967556,-0.007621999830007553,-0.6554920077323914,26.700000762939453,-179.70001220703125,-24.30000114440918
407881,3.010453462600708,8.73528003692627,-1.3547937870025635,0.1448179930448532,0.19817200303077698,-0.5411620140075684,29.100000381469727,-174.90000915527344,-28.500001907348633
407901,2.9135544300079346,8.406899452209473,-1.4475059509277344,-0.1295740008354187,0.2134159952402115,-0.7774440050125122,41.10000228881836,-179.70001220703125,-30.30000114440918
407921,2.688652753829956,7.6508469581604,-1.3512049913406372,0.17530599236488342,0.19817200303077698,-1.0442140102386475,24.30000114440918,-170.10000610351562,-27.900001525878906
407941,2.7293264865875244,7.771073341369629,-1.6592485904693604,1.0289700031280518,0.8155539631843567,-0.457319974899292,29.100000381469727,-167.70001220703125,-29.100000381469727
407963,3.0272016525268555,9.143811225891113,-2.161090612411499,1.600619912147522,1.2500079870224,0.114329993724823,24.30000114440918,-182.10000610351562,-20.700000762939453
408025,2.9051804542541504,8.80885124206543,-3.1456339359283447,1.4939119815826416,1.189031958580017,-1.7454379796981812,33.900001525878906,-162.90000915527344,-21.30000114440918
408046,2.8657028675079346,8.545668601989746,-3.404629707336426,1.8673899173736572,0.7926880121231079,-1.6387299299240112,50.70000076293945,-184.5,-22.5
408066,2.9614057540893555,9.281384468078613,-3.46085524559021,1.8445239067077637,0.44969800114631653,-1.2804960012435913,33.900001525878906,-172.5,-21.900001525878906
408087,3.0242109298706055,9.41237735748291,-3.6283352375030518,1.3109840154647827,0.39634400606155396,-1.7835479974746704,31.500001907348633,-177.3000030517578,-23.100000381469727
408107,3.0206220149993896,9.051697731018066,-3.422574043273926,0.7469559907913208,-0.09146399796009064,-1.9969639778137207,45.900001525878906,-191.70001220703125,-29.700000762939453
408127,2.9853315353393555,8.472695350646973,-3.2509069442749023,0.1295740008354187,-0.05335399881005287,-1.9588539600372314,41.10000228881836,-174.90000915527344,-18.900001525878906
408147,2.8447680473327637,7.879337310791016,-3.0600993633270264,-0.09146399796009064,0.12195199728012085,-1.5167779922485352,31.500001907348633,-179.70001220703125,-19.5
408167,2.8896286487579346,8.1485013961792,-3.020023822784424,-0.3125019967556,0.28201398253440857,-0.4192099869251251,45.900001525878906,-174.90000915527344,-20.700000762939453
408187,2.8956100940704346,8.27112102508545,-3.1067545413970947,-0.7850660085678101,0.457319974899292,-0.2439039945602417,41.10000228881836,-184.5,-23.700000762939453
408207,2.978153944015503,8.234634399414062,-3.0864176750183105,-0.9756159782409668,0.2896359860897064,-0.19054999947547913,43.5,-172.5,-26.700000762939453
408227,2.9679853916168213,8.022891998291016,-3.0690715312957764,-1.0442140102386475,0.228659987449646,-0.20579399168491364,38.70000076293945,-172.5,-21.30000114440918
408247,2.992509365081787,7.857205867767334,-3.061893939971924,-0.8841519951820374,0.06859800219535828,-0.114329993724823,43.5,-184.5,-19.5
408268,3.100174903869629,8.078518867492676,-3.0571086406707764,-0.6021379828453064,0.02286599949002266,0.060975998640060425,36.30000305175781,-174.90000915527344,-27.30000114440918
408288,3.2156167030334473,8.47030258178711,-3.2209999561309814,-0.510673999786377,0.07621999830007553,0.060975998640060425,43.5,-174.90000915527344,-29.100000381469727
408308,3.186905860900879,8.390151023864746,-3.27961802482605,-0.7926880121231079,0.02286599949002266,-0.26677000522613525,57.900001525878906,-172.5,-28.500001907348633
408328,3.2126259803771973,8.53490161895752,-3.4082186222076416,-0.6021379828453064,-0.08384199440479279,-0.3201240003108978,36.30000305175781,-170.10000610351562,-20.100000381469727
408352,3.1246988773345947,8.34887981414795,-3.3819003105163574,-0.8384199738502502,-0.26677000522613525,-0.5335400104522705,41.10000228881836,-179.70001220703125,-25.500001907348633
408373,3.1988685131073,8.52712631225586,-3.4177889823913574,-0.6173819899559021,-0.5259180068969727,-0.5487840175628662,41.10000228881836,-182.10000610351562,-27.900001525878906
408393,3.1755409240722656,8.470900535583496,-3.26167368888855,-0.9603719711303711,-0.7088459730148315,-0.739333987236023,50.70000076293945,-177.3000030517578,-24.900001525878906
408413,3.338235855102539,8.81782341003418,-3.236551523208618,-0.9527499675750732,-0.739333987236023,-0.5335400104522705,43.5,-162.90000915527344,-29.100000381469727
408433,3.5571563243865967,9.47637939453125,-3.081632614135742,-1.2042759656906128,-0.8689079880714417,-0.3887220025062561,43.5,-174.90000915527344,-20.700000762939453
408453,3.6743922233581543,9.76229190826416,-3.0804362297058105,-1.4405579566955566,-0.5487840175628662,-0.571649968624115,43.5,-167.70001220703125,-21.30000114440918
408476,3.3663487434387207,9.01820182800293,-2.393170118331909,-1.5320219993591309,-1.2118979692459106,-1.013725996017456,48.30000305175781,-177.3000030517578,-23.700000762939453
408496,2.798711061477661,8.096463203430176,-1.5192831754684448,-1.8978779315948486,-1.1128119230270386,-0.8993960022926331,55.500003814697266,-189.3000030517578,-23.700000762939453
408516,2.9285080432891846,9.326245307922363,-1.8440747261047363,-1.1585439443588257,0.35061198472976685,0.38109999895095825,48.30000305175781,-179.70001220703125,-26.700000762939453
408558,1.8016066551208496,9.4434814453125,-1.3894860744476318,-2.28659987449646,0.5792719721794128,-1.6844619512557983,41.10000228881836,-174.90000915527344,-27.900001525878906
408578,1.3745325803756714,9.07203483581543,-0.9953098893165588,-1.829279899597168,-0.05335399881005287,-1.4862899780273438,57.900001525878906,-182.10000610351562,-28.500001907348633
408598,1.1023775339126587,9.4674072265625,-0.8619239926338196,-1.9512319564819336,0.7164679765701294,-0.9756159782409668,48.30000305175781,-189.3000030517578,-29.100000381469727
408620,0.21592961251735687,8.50918197631836,-1.006076455116272,-1.7759259939193726,1.189031958580017,-1.7301939725875854,53.10000228881836,-179.70001220703125,-29.700000762939453
408640,-0.7470805644989014,8.788515090942383,-1.0276095867156982,-0.7774440050125122,1.3186060190200806,-0.5640279650688171,50.70000076293945,-170.10000610351562,-23.700000762939453
408662,-1.415804386138916,10.192954063415527,-1.7280350923538208,-0.7698220014572144,0.8765299916267395,-0.8384199738502502,43.5,-189.3000030517578,-21.30000114440918
408682,-1.2202116250991821,10.755806922912598,-1.9828439950942993,0.228659987449646,0.2591480016708374,-1.5853760242462158,43.5,-170.10000610351562,-26.700000762939453
408742,-0.8960181474685669,10.19235610961914,-1.4690390825271606,-0.5868939757347107,-0.3277460038661957,-1.2652519941329956,62.70000076293945,-177.3000030517578,-26.700000762939453
408762,-0.6412092447280884,9.78502082824707,-1.427767276763916,-0.800309956073761,-0.16768398880958557,-0.2743920087814331,53.10000228881836,-174.90000915527344,-30.30000114440918
408782,-0.3487173616886139,9.584044456481934,-1.2668668031692505,-0.9984819889068604,-0.5868939757347107,0.8841519951820374,65.10000610351562,-167.70001220703125,-30.900001525878906
408802,0.023925717920064926,9.31787109375,-1.099984884262085,-1.189031958580017,-0.44969800114631653,1.5320219993591309,67.5,-170.10000610351562,-23.100000381469727
408824,0.45638307929039,9.531408309936523,-1.1627899408340454,-1.1661659479141235,-0.685979962348938,1.7987920045852661,53.10000228881836,-177.3000030517578,-32.10000228881836
408844,0.48629024624824524,9.025379180908203,-1.0539278984069824,-1.0518360137939453,-0.9832379817962646,0.9603719711303711,38.70000076293945,-177.3000030517578,-29.700000762939453
408866,0.6579572558403015,8.944629669189453,-1.025217056274414,-0.36585599184036255,-1.6234859228134155,0.8384199738502502,45.900001525878906,-174.90000915527344,-30.900001525878906
408886,0.8045023083686829,8.850123405456543,-0.8601295948028564,-0.18292799592018127,-1.8978779315948486,0.4420759975910187,55.500003814697266,-174.90000915527344,-29.100000381469727
408908,1.2124358415603638,8.932666778564453,-0.824839174747467,0.1448179930448532,-2.0045859813690186,0.114329993724823,50.70000076293945,-167.70001220703125,-24.30000114440918
408932,1.527657151222229,8.90156364440918,-0.3828114867210388,-0.1295740008354187,-2.225623846054077,0.09146399796009064,33.900001525878906,-172.5,-23.100000381469727
408952,1.5641438961029053,9.03016471862793,-0.6352278590202332,0.4192099869251251,-1.0975680351257324,0.4192099869251251,41.10000228881836,-165.3000030517578,-26.700000762939453
408972,1.4313560724258423,9.536791801452637,-0.8104837536811829,0.38109999895095825,-0.8460419774055481,0.2972579896450043,50.70000076293945,-177.3000030517578,-24.30000114440918
408995,1.0796480178833008,8.786720275878906,-0.8798683285713196,0.015243999660015106,-0.13719600439071655,-0.6707359552383423,55.500003814697266,-170.10000610351562,-23.100000381469727
409035,1.6753984689712524,10.052391052246094,-1.226791262626648,1.646351933479309,-0.26677000522613525,-0.2896359860897064,43.5,-165.3000030517578,-23.700000762939453
409055,1.4905723333358765,9.798179626464844,-1.5001425743103027,1.2804960012435913,0.20579399168491364,-1.1509219408035278,48.30000305175781,-179.70001220703125,-30.30000114440918
409075,1.4690390825271606,9.375890731811523,-1.543807029724121,1.5167779922485352,0.2896359860897064,-1.478667974472046,41.10000228881836,-170.10000610351562,-29.100000381469727
409095,1.509712815284729,9.377087593078613,-1.6640337705612183,1.5472660064697266,0.4878079891204834,-1.6082419157028198,55.500003814697266,-172.5,-27.900001525878906
409115,1.6753984689712524,9.31308650970459,-1.7597366571426392,1.478667974472046,0.457319974899292,-1.882633924484253,50.70000076293945,-165.3000030517578,-24.900001525878906
409159,2.1084539890289307,8.513967514038086,-1.8386914730072021,1.0899460315704346,1.067080020904541,-2.3704419136047363,69.9000015258789,-172.5,-27.30000114440918
409180,2.253204584121704,8.63180160522461,-2.3770201206207275,0.739333987236023,1.4481799602508545,-1.577754020690918,53.10000228881836,-179.70001220703125,-25.500001907348633
409220,2.8956100940704346,9.49910831451416,-2.748466968536377,0.3277460038661957,2.378063917160034,-1.0061039924621582,67.5,-170.10000610351562,-25.500001907348633
409240,3.1671669483184814,10.552438735961914,-3.45786452293396,0.22103799879550934,3.239349842071533,-0.6097599864006042,69.9000015258789,-179.70001220703125,-19.5
409260,3.064286470413208,10.19534683227539,-3.7629175186157227,-0.342989981174469,2.294221878051758,-1.9512319564819336,65.10000610351562,-184.5,-32.10000228881836
409282,2.9255173206329346,9.12766170501709,-3.6414945125579834,0.06859800219535828,1.6158639192581177,-2.4695279598236084,62.70000076293945,-177.3000030517578,-22.5
409304,2.602519989013672,8.680251121520996,-3.6056058406829834,0.19054999947547913,0.9070180058479309,-2.3094658851623535,65.10000610351562,-170.10000610351562,-20.700000762939453
409324,2.7562427520751953,8.97035026550293,-3.67499041557312,0.426831990480423,0.3277460038661957,-1.8597679138183594,67.5,-165.3000030517578,-23.100000381469727
409344,2.8118700981140137,8.77296257019043,-3.5314362049102783,0.3125019967556,0.19054999947547913,-2.0045859813690186,72.30000305175781,-160.5,-22.5
409368,2.8064868450164795,8.486452102661133,-3.4261629581451416,0.13719600439071655,0.060975998640060425,-1.8597679138183594,60.30000305175781,-174.90000915527344,-20.100000381469727
409388,2.869889974594116,8.55882740020752,-3.3603672981262207,-0.060975998640060425,0.007621999830007553,-1.3567159175872803,69.9000015258789,-165.3000030517578,-18.30000114440918
409410,2.718559741973877,8.287869453430176,-3.096586227416992,-1.0518360137939453,0.06859800219535828,-1.4405579566955566,89.10000610351562,-170.10000610351562,-26.700000762939453
409430,2.6521658897399902,7.994180679321289,-2.843571662902832,-1.1128119230270386,-0.19817200303077698,-1.4329359531402588,69.9000015258789,-167.70001220703125,-24.30000114440918
409450,2.8130664825439453,8.214895248413086,-2.6061089038848877,-1.4481799602508545,0.015243999660015106,-1.0365920066833496,74.70000457763672,-167.70001220703125,-29.100000381469727
409470,2.846562385559082,8.52293872833252,-2.677288055419922,-1.577754020690918,0.1448179930448532,-0.9298839569091797,60.30000305175781,-167.70001220703125,-22.5
409490,2.8746750354766846,8.647353172302246,-2.5415093898773193,-1.5929979085922241,-0.05335399881005287,-0.7774440050125122,81.9000015258789,-165.3000030517578,-24.900001525878906
409514,2.853142023086548,8.686830520629883,-2.569024085998535,-1.5701320171356201,-0.33536797761917114,-0.8841519951820374,79.5,-167.70001220703125,-30.900001525878906
409534,2.8387866020202637,8.94642448425293,-2.6126885414123535,-0.7774440050125122,-0.6936019659042358,-0.5259180068969727,79.5,-177.3000030517578,-24.900001525878906
409554,2.969181776046753,9.335217475891113,-2.5797905921936035,-0.49542999267578125,-1.021347999572754,-0.23628199100494385,91.5,-167.70001220703125,-18.30000114440918
409576,2.6689138412475586,8.55583667755127,-2.349505662918091,-1.1509219408035278,-1.3490939140319824,-0.16768398880958557,81.9000015258789,-170.10000610351562,-18.30000114440918
409596,2.9225265979766846,8.689821243286133,-2.307635545730591,-0.9298839569091797,-1.4329359531402588,0.510673999786377,69.9000015258789,-174.90000915527344,-19.5
409616,2.6778860092163086,8.173025131225586,-2.321990966796875,-1.3414719104766846,-1.646351933479309,0.3734779953956604,79.5,-162.90000915527344,-37.5
409637,3.031986713409424,8.688026428222656,-2.3596739768981934,-0.5335400104522705,-1.981719970703125,0.6173819899559021,72.30000305175781,-167.70001220703125,-21.900001525878906
409657,3.061893939971924,8.85371208190918,-2.1682682037353516,-0.46494197845458984,-2.1036720275878906,0.16768398880958557,77.10000610351562,-170.10000610351562,-24.30000114440918
409680,3.1342692375183105,8.674867630004883,-1.9379832744598389,-0.571649968624115,-1.9207439422607422,-0.13719600439071655,81.9000015258789,-170.10000610351562,-24.900001525878906
409701,3.374124526977539,9.264636039733887,-1.8614208698272705,-0.3734779953956604,-1.6158639192581177,-0.3201240003108978,86.70000457763672,-179.70001220703125,-33.30000305175781
409722,3.576894998550415,10.661898612976074,-2.128790855407715,-0.1448179930448532,-1.0747020244598389,-0.228659987449646,69.9000015258789,-177.3000030517578,-30.900001525878906
409743,3.048734664916992,10.787508010864258,-2.0791449546813965,-1.0061039924621582,-1.3109840154647827,-1.2881180047988892,65.10000610351562,-172.5,-22.5
409763,1.1286958456039429,7.5013108253479,-1.3242884874343872,-1.4862899780273438,-1.3872039318084717,-4.199721813201904,86.70000457763672,-172.5,-25.500001907348633
409783,0.7004254460334778,8.257962226867676,-1.8895336389541626,1.0747020244598389,-0.571649968624115,-1.0899460315704346,81.9000015258789,-179.70001220703125,-29.100000381469727
409803,0.14833945035934448,10.967549324035645,-1.6078083515167236,-0.030487999320030212,-1.3643379211425781,0.015243999660015106,89.10000610351562,-167.70001220703125,-27.900001525878906
409825,-0.6430037021636963,9.942930221557617,-1.8548413515090942,-0.22103799879550934,0.33536797761917114,-1.8140360116958618,72.30000305175781,-165.3000030517578,-26.100000381469727
409845,-0.8517556190490723,9.64864444732666,-1.915253758430481,0.5259180068969727,-0.6250039935112,-0.5945159792900085,81.9000015258789,-170.10000610351562,-32.10000228881836
409865,-1.5109091997146606,9.5032958984375,-1.4750205278396606,0.10670799762010574,-0.46494197845458984,-0.5868939757347107,89.10000610351562,-165.3000030517578,-29.100000381469727
409928,-1.8805614709854126,9.691112518310547,-2.2633728981018066,0.800309956073761,1.5015339851379395,-1.5320219993591309,84.30000305175781,-170.10000610351562,-27.30000114440918
409948,-2.0695745944976807,9.59182071685791,-2.2466249465942383,1.1585439443588257,0.967993974685669,-2.0655620098114014,91.5,-160.5,-29.700000762939453
409968,-2.1449406147003174,9.924985885620117,-2.1419498920440674,1.0289700031280518,0.8307979702949524,-2.03507399559021,93.9000015258789,-155.70001220703125,-30.30000114440918
410011,-2.086920738220215,8.924293518066406,-1.8016066551208496,-0.25152599811553955,0.8612859845161438,-2.431417942047119,89.10000610351562,-177.3000030517578,-23.700000762939453
410053,-1.3464198112487793,8.900965690612793,-1.7388015985488892,-0.9222619533538818,0.4344539940357208,-0.8612859845161438,96.30000305175781,-165.3000030517578,-18.30000114440918
410073,-0.9941136240959167,8.471498489379883,-2.2155215740203857,0.1600620001554489,0.7850660085678101,-0.8384199738502502,98.70000457763672,-177.3000030517578,-24.900001525878906
410093,-0.6358259916305542,8.785524368286133,-2.2579896450042725,0.46494197845458984,-0.3582339882850647,0.015243999660015106,103.50000762939453,-170.10000610351562,-22.5
410137,0.23806090652942657,9.23712158203125,-2.560051918029785,0.685979962348938,-0.3887220025062561,-0.35061198472976685,89.10000610351562,-177.3000030517578,-32.70000076293945
410157,0.3403433561325073,9.601988792419434,-2.730522632598877,0.4344539940357208,-0.44969800114631653,-0.5792719721794128,93.9000015258789,-155.70001220703125,-23.700000762939453
410179,0.46296265721321106,9.450060844421387,-2.747868776321411,0.10670799762010574,-0.38109999895095825,-1.0594580173492432,103.50000762939453,-153.3000030517578,-15.90000057220459
410200,0.7303325533866882,9.991379737854004,-2.8094775676727295,0.04573199898004532,-0.39634400606155396,-1.1051899194717407,96.30000305175781,-177.3000030517578,-23.700000762939453
410220,0.4755236506462097,9.73836612701416,-2.9338912963867188,-0.228659987449646,0.2439039945602417,-1.8902559280395508,101.10000610351562,-160.5,-24.30000114440918
410240,0.2577996253967285,9.27121639251709,-3.1462321281433105,0.114329993724823,0.2972579896450043,-2.1189160346984863,91.5,-160.5,-25.500001907348633
410260,0.1591060310602188,9.334020614624023,-3.3723301887512207,0.5640279650688171,-0.2972579896450043,-1.6692179441452026,108.30000305175781,-167.70001220703125,-17.700000762939453
410282,0.09390844404697418,9.2760009765625,-3.3436191082000732,0.6097599864006042,-0.8917739987373352,-1.4100699424743652,108.30000305175781,-174.90000915527344,-25.500001907348633
410302,0.15372274816036224,9.411779403686523,-3.3460118770599365,0.6936019659042358,-1.013725996017456,-0.8765299916267395,103.50000762939453,-170.10000610351562,-16.5
410322,0.179442897439003,9.398022651672363,-3.341226577758789,0.030487999320030212,-0.853663980960846,-0.6783579587936401,120.30000305175781,-162.90000915527344,-21.30000114440918
410342,0.48748651146888733,9.073230743408203,-3.0834269523620605,-0.7012239694595337,-0.5411620140075684,0.114329993724823,113.10000610351562,-167.70001220703125,-21.30000114440918
410366,0.5467026829719543,8.893787384033203,-3.0236127376556396,-1.0975680351257324,-0.15243999660015106,0.4344539940357208,93.9000015258789,-165.3000030517578,-20.700000762939453
410386,0.8104837536811829,8.888404846191406,-2.8866379261016846,-0.9756159782409668,-0.1295740008354187,0.800309956073761,103.50000762939453,-165.3000030517578,-29.700000762939453
410408,1.018039345741272,9.020594596862793,-2.700615406036377,-1.067080020904541,-0.22103799879550934,0.8079319596290588,105.9000015258789,-170.10000610351562,-30.30000114440918
410428,1.2441374063491821,8.665297508239746,-2.632427215576172,-1.1814099550247192,-0.07621999830007553,0.5335400104522705,110.70000457763672,-160.5,-26.700000762939453
410449,1.531844139099121,8.630006790161133,-2.798711061477661,-0.7698220014572144,0.114329993724823,0.5182960033416748,105.9000015258789,-165.3000030517578,-17.100000381469727
410469,1.7220536470413208,8.76099967956543,-2.9069747924804688,-0.6707359552383423,-0.07621999830007553,0.4039659798145294,96.30000305175781,-170.10000610351562,-28.500001907348633
410489,2.21492338180542,9.122278213500977,-3.0900065898895264,-0.4344539940357208,0.2134159952402115,0.28201398253440857,103.50000762939453,-160.5,-30.30000114440918
410511,2.4428157806396484,8.923694610595703,-3.4506866931915283,-1.0975680351257324,1.021347999572754,-0.8765299916267395,96.30000305175781,-158.10000610351562,-21.900001525878906
410531,2.531341075897217,8.000760078430176,-4.060792446136475,-0.49542999267578125,1.9512319564819336,-2.446661949157715,101.10000610351562,-184.5,-21.900001525878906
410551,2.6599419116973877,6.72851037979126,-4.672094821929932,0.44969800114631653,1.806414008140564,-3.109776020050049,103.50000762939453,-160.5,-21.30000114440918
410573,4.351490020751953,8.734682083129883,-5.828305244445801,0.7850660085678101,1.14329993724823,0.38109999895095825,110.70000457763672,-165.3000030517578,-24.900001525878906
410593,4.995091915130615,9.38067626953125,-4.651159763336182,-2.6677000522613525,-1.707327961921692,-2.583858013153076,96.30000305175781,-170.10000610351562,-26.700000762939453
410613,4.297059059143066,7.082611083984375,-3.115128517150879,-2.843005895614624,0.33536797761917114,-6.775958061218262,134.70001220703125,-160.5,-21.30000114440918
410633,3.8376853466033936,5.733798503875732,-3.0714640617370605,-2.0198299884796143,4.375028133392334,-7.416205883026123,127.50000762939453,-165.3000030517578,-26.700000762939453
410656,3.666616439819336,6.175228118896484,-2.6629323959350586,-2.28659987449646,4.89332389831543,-6.623517990112305,125.10000610351562,-167.70001220703125,-23.100000381469727
410676,3.058305025100708,5.569907188415527,-1.712483286857605,-2.530503988265991,5.312533855438232,-8.018343925476074,129.90000915527344,-155.70001220703125,-21.900001525878906
410696,2.6784842014312744,4.402332305908203,-0.5293565392494202,-2.5076379776000977,6.2729058265686035,-8.963471412658691,132.3000030517578,-146.10000610351562,-18.30000114440918
410716,2.5092098712921143,3.7162623405456543,0.18183545768260956,-3.1402640342712402,7.904013633728027,-9.009203910827637,144.3000030517578,-158.10000610351562,-27.900001525878906
410759,1.3745325803756714,2.953629970550537,0.2577996253967285,-2.2103798389434814,10.861350059509277,-9.946709632873535,173.10000610351562,-134.10000610351562,-15.90000057220459
410787,-0.23207947611808777,2.0139474868774414,0.6764997243881226,-1.1737879514694214,9.893355369567871,-11.394889831542969,168.3000030517578,-150.90000915527344,-20.100000381469727
410807,-0.6645368337631226,2.3124208450317383,1.0228245258331299,0.3582339882850647,8.361333847045898,-10.907081604003906,182.70001220703125,-138.90000915527344,-19.5
410849,-2.0468451976776123,3.1761391162872314,3.3872835636138916,-0.4039659798145294,6.9360198974609375,-10.876593589782715,201.90000915527344,-126.9000015258789,-17.700000762939453
410869,-3.1013712882995605,5.726022720336914,2.0067696571350098,0.8384199738502502,7.134191989898682,-9.131155967712402,206.70001220703125,-122.10000610351562,-19.5
410889,-5.026793479919434,6.182405948638916,3.3196935653686523,0.19054999947547913,4.062525749206543,-11.615927696228027,206.70001220703125,-122.10000610351562,-21.900001525878906
410909,-7.158575057983398,4.0284929275512695,2.3237855434417725,1.92836594581604,4.085391998291016,-12.949777603149414,228.3000030517578,-102.9000015258789,-18.900001525878906
410931,-10.774947166442871,6.860699653625488,1.6843706369400024,2.8125178813934326,0.09908600151538849,-6.3719916343688965,223.50001525878906,-98.10000610351562,-18.30000114440918
410951,-14.612632751464844,8.670082092285156,-0.2338739037513733,2.652456045150757,1.4862899780273438,-5.083873748779297,240.3000030517578,-93.30000305175781,-20.700000762939453
410974,-10.3018159866333,8.63359546661377,-2.000190019607544,4.824726104736328,-5.640279769897461,-4.230209827423096,230.70001220703125,-98.10000610351562,-21.900001525878906
410994,-11.886895179748535,7.923001766204834,0.7082012891769409,3.49849796295166,-12.713495254516602,-4.5503339767456055,237.90000915527344,-102.9000015258789,-14.100000381469727
411014,-13.72797966003418,9.694701194763184,-2.1060614585876465,6.204308032989502,-1.882633924484253,-3.0335559844970703,249.90000915527344,-83.70000457763672,-14.700000762939453
411037,-9.83885383605957,12.424027442932129,-5.365342617034912,6.989373683929443,-7.85828161239624,-1.0365920066833496,242.70001220703125,-86.10000610351562,-11.100000381469727
411058,-12.791287422180176,11.283369064331055,-2.4972469806671143,3.0259339809417725,-18.231822967529297,-3.871975898742676,247.50001525878906,-88.5,-14.100000381469727
411079,-10.143906593322754,13.82547664642334,-5.764902114868164,8.795787811279297,-6.029001712799072,1.4329359531402588,252.3000030517578,-74.10000610351562,-18.30000114440918
411140,-9.652831077575684,15.674934387207031,-9.48834228515625,9.504633903503418,-3.003067970275879,7.225656032562256,249.90000915527344,-81.30000305175781,-10.5
411160,-8.917115211486816,16.3986873626709,-7.972049713134766,0.7621999979019165,-17.065658569335938,5.6097917556762695,242.70001220703125,-78.9000015258789,-27.30000114440918
411182,-12.883401870727539,13.493507385253906,-5.431736469268799,2.8582499027252197,-12.35526180267334,4.047281742095947,249.90000915527344,-86.10000610351562,-27.30000114440918
411203,-10.710348129272461,14.332701683044434,-8.95240592956543,7.5991339683532715,-0.9603719711303711,7.5991339683532715,245.10000610351562,-88.5,-24.30000114440918
411223,-10.05298900604248,13.60236930847168,-10.12476634979248,4.314052104949951,-4.42838191986084,7.522913932800293,240.3000030517578,-90.9000015258789,-21.900001525878906
411245,-8.350075721740723,14.882993698120117,-10.276694297790527,3.208861827850342,-7.865903854370117,10.990923881530762,228.3000030517578,-95.70000457763672,-24.30000114440918
411265,-6.876251697540283,15.704243659973145,-9.730589866638184,1.2042759656906128,-10.449761390686035,10.137259483337402,211.50001525878906,-98.10000610351562,-18.900001525878906
411285,-7.809354782104492,13.447450637817383,-8.271718978881836,0.5335400104522705,-7.865903854370117,7.774439811706543,206.70001220703125,-107.70000457763672,-30.30000114440918
411305,-6.901373386383057,13.871533393859863,-9.838255882263184,2.896359920501709,-0.49542999267578125,11.272937774658203,211.50001525878906,-110.10000610351562,-21.30000114440918
411327,-5.460447311401367,13.755494117736816,-10.62780475616455,0.3582339882850647,-3.1326420307159424,10.75464153289795,201.90000915527344,-124.50000762939453,-21.30000114440918
411347,-4.662524223327637,11.928167343139648,-9.114502906799316,-1.3338500261306763,-7.515291690826416,10.053418159484863,187.5,-119.70000457763672,-23.100000381469727
411367,-4.061988830566406,12.112993240356445,-7.923599720001221,-1.7378159761428833,-6.692115783691406,11.775989532470703,182.70001220703125,-136.5,-25.500001907348633
411388,-3.442312717437744,10.631991386413574,-7.390056610107422,-1.0518360137939453,0.22103799879550934,10.03055191040039,173.10000610351562,-138.90000915527344,-26.100000381469727
411409,-1.7711013555526733,10.300620079040527,-7.918814659118652,-1.5091559886932373,0.6707359552383423,9.52750015258789,173.10000610351562,-146.10000610351562,-27.900001525878906
411469,-0.40853163599967957,8.862086296081543,-6.626227855682373,-4.161612033843994,-1.5701320171356201,9.588476181030273,120.30000305175781,-160.5,-32.10000228881836
411626,3.1552040576934814,3.3065342903137207,-1.1095552444458008,-2.4009299278259277,7.484803676605225,4.824726104736328,91.5,-162.90000915527344,-28.500001907348633
411646,3.260477304458618,3.579287528991699,-0.7620341181755066,-2.75154185295105,7.469559669494629,4.53508996963501,108.30000305175781,-162.90000915527344,-31.500001907348633
411688,2.6862599849700928,3.1940834522247314,-0.36426907777786255,-2.2484898567199707,10.899459838867188,1.92836594581604,103.50000762939453,-167.70001220703125,-29.100000381469727
411709,2.863908529281616,4.325769901275635,0.17166703939437866,-1.3643379211425781,10.28969955444336,2.492393970489502,93.9000015258789,-174.90000915527344,-31.500001907348633
411729,2.47391939163208,5.687143325805664,0.41989636421203613,-0.9908599853515625,10.449761390686035,1.7301939725875854,93.9000015258789,-172.5,-30.30000114440918
411750,1.937385082244873,5.652451038360596,0.3869985044002533,-1.0594580173492432,10.0686616897583,-0.48018598556518555,91.5,-165.3000030517578,-33.900001525878906
411770,1.8111768960952759,6.117806434631348,0.5807968378067017,-0.2439039945602417,8.429931640625,-0.9298839569091797,86.70000457763672,-172.5,-27.30000114440918
411832,0.8685035705566406,7.671781539916992,1.5563679933547974,-2.896359920501709,6.250040054321289,-3.8795979022979736,96.30000305175781,-174.90000915527344,-26.100000381469727
411869,0.23507018387317657,8.41048812866211,0.5574692487716675,-1.3567159175872803,6.189064025878906,-1.3795819282531738,115.50000762939453,-167.70001220703125,-25.500001907348633
411890,-0.26378104090690613,8.612062454223633,-0.1896113157272339,-0.4878079891204834,5.312533855438232,-0.9527499675750732,96.30000305175781,-162.90000915527344,-30.900001525878906
