time,sensor_accX[g],sensor_accY[g],sensor_accZ[g],sensor_gyroX[°/s],sensor_gyroY[°/s],sensor_gyroZ[°/s],sensor_magX[µT],sensor_magY[µT],sensor_magZ[µT]
568538,-4.146327018737793,8.240017890930176,-3.0176312923431396,0.007621999830007553,0.114329993724823,-0.007621999830007553,259.5,-105.30000305175781,-29.100000381469727
568559,-4.147523403167725,8.200540542602539,-3.0002851486206055,-0.13719600439071655,0.007621999830007553,-0.23628199100494385,252.3000030517578,-95.70000457763672,-20.700000762939453
568580,-4.115223407745361,8.115005493164062,-2.993107318878174,-0.13719600439071655,-0.060975998640060425,-0.2743920087814331,261.9000244140625,-88.5,-24.30000114440918
568600,-4.143934726715088,8.043228149414062,-2.998490810394287,-0.1295740008354187,-0.007621999830007553,-0.2134159952402115,259.5,-107.70000457763672,-18.30000114440918
568624,-4.110438346862793,8.210110664367676,-2.9859297275543213,-0.09908600151538849,0.05335399881005287,-0.10670799762010574,254.70001220703125,-100.50000762939453,-24.30000114440918
568644,-4.15589714050293,8.1245756149292,-2.978153944015503,-0.228659987449646,0.1295740008354187,-0.22103799879550934,264.3000183105469,-98.10000610351562,-27.30000114440918
568665,-4.143934726715088,8.186184883117676,-2.9817426204681396,-0.18292799592018127,0.15243999660015106,-0.20579399168491364,266.70001220703125,-88.5,-21.30000114440918
568685,-4.124794006347656,8.161062240600586,-2.9608078002929688,-0.2439039945602417,0.2134159952402115,-0.2743920087814331,257.1000061035156,-98.10000610351562,-27.30000114440918
568746,-4.252796649932861,8.073734283447266,-2.9608078002929688,-0.4725639820098877,0.5335400104522705,-0.46494197845458984,261.9000244140625,-86.10000610351562,-20.100000381469727
568766,-4.125990390777588,8.212503433227539,-2.866899251937866,-0.2591480016708374,0.41158798336982727,-0.3201240003108978,266.70001220703125,-90.9000015258789,-21.30000114440918
568786,-4.265357494354248,8.126370429992676,-2.9279098510742188,-0.6250039935112,0.46494197845458984,-0.38109999895095825,271.5,-90.9000015258789,-16.5
568826,-4.253394603729248,8.2561674118042,-2.7532520294189453,-0.4420759975910187,0.41158798336982727,-0.48018598556518555,266.70001220703125,-93.30000305175781,-27.30000114440918
568906,-4.38498592376709,8.158071517944336,-2.847160577774048,-0.3125019967556,0.685979962348938,-0.3201240003108978,259.5,-93.30000305175781,-24.30000114440918
568948,-4.404725074768066,8.013919830322266,-2.825627326965332,-0.3277460038661957,0.800309956073761,-0.007621999830007553,252.3000030517578,-90.9000015258789,-19.5
568968,-4.39096736907959,8.140128135681152,-2.828019857406616,-0.2591480016708374,0.7621999979019165,0.09146399796009064,259.5,-83.70000457763672,-20.100000381469727
569010,-4.407715320587158,8.252578735351562,-2.8447680473327637,-0.4039659798145294,0.8460419774055481,-0.09146399796009064,259.5,-90.9000015258789,-20.100000381469727
569034,-4.527942180633545,8.2262601852417,-2.8477587699890137,-0.426831990480423,0.9756159782409668,-0.060975998640060425,252.3000030517578,-90.9000015258789,-21.30000114440918
569054,-4.740880966186523,8.117996215820312,-2.891423225402832,-0.510673999786377,1.1128119230270386,-0.06859800219535828,257.1000061035156,-88.5,-24.900001525878906
569074,-5.002269744873047,8.045022964477539,-3.067875385284424,-0.4344539940357208,1.2652519941329956,-0.015243999660015106,249.90000915527344,-90.9000015258789,-19.5
569096,-5.263658046722412,8.234036445617676,-3.5984280109405518,0.09908600151538849,1.1051899194717407,0.426831990480423,261.9000244140625,-88.5,-21.900001525878906
569116,-5.18889045715332,8.337514877319336,-3.496145725250244,-0.04573199898004532,0.1600620001554489,0.8384199738502502,254.70001220703125,-83.70000457763672,-21.30000114440918
569139,-5.010643482208252,8.235830307006836,-3.335843324661255,-0.3125019967556,0.23628199100494385,1.3414719104766846,266.70001220703125,-95.70000457763672,-21.30000114440918
569159,-4.840771198272705,8.343496322631836,-3.1875038146972656,-0.7850660085678101,0.3582339882850647,1.829279899597168,273.9000244140625,-102.9000015258789,-22.5
569179,-4.728320121765137,8.146707534790039,-3.023014545440674,-1.371959924697876,0.9756159782409668,1.935987949371338,261.9000244140625,-98.10000610351562,-24.30000114440918
569202,-4.339527130126953,8.2681303024292,-2.9859297275543213,-1.5396440029144287,1.2881180047988892,2.195136070251465,257.1000061035156,-105.30000305175781,-21.30000114440918
569222,-4.327564239501953,8.020499229431152,-2.608501434326172,-2.225623846054077,1.5929979085922241,1.9436099529266357,247.50001525878906,-90.9000015258789,-21.900001525878906
569242,-4.4101080894470215,7.665800094604492,-2.557061195373535,-2.324709892272949,2.339953899383545,1.8216580152511597,257.1000061035156,-98.10000610351562,-23.700000762939453
569262,-4.285694599151611,8.369216918945312,-2.6360161304473877,-1.6158639192581177,2.385685920715332,1.8673899173736572,259.5,-105.30000305175781,-20.700000762939453
569304,-4.574597358703613,8.688026428222656,-2.4751155376434326,-1.471045970916748,3.0335559844970703,1.2500079870224,242.70001220703125,-119.70000457763672,-22.5
569324,-4.69183349609375,9.19525146484375,-2.4452085494995117,-1.5015339851379395,2.850627899169922,1.4939119815826416,249.90000915527344,-114.9000015258789,-19.5
569346,-5.246910095214844,10.195944786071777,-2.2675600051879883,-2.4009299278259277,2.888737916946411,0.5868939757347107,245.10000610351562,-98.10000610351562,-23.100000381469727
569366,-5.882137775421143,7.6263227462768555,-2.537322521209717,-2.187514066696167,3.239349842071533,-1.1051899194717407,247.50001525878906,-110.10000610351562,-18.30000114440918
569386,-5.568711280822754,6.914532661437988,-2.402142286300659,-0.9756159782409668,1.8521459102630615,2.14178204536438,249.90000915527344,-119.70000457763672,-20.700000762939453
569406,-4.62005615234375,8.736475944519043,-2.1293890476226807,-1.1814099550247192,1.7835479974746704,4.8018598556518555,242.70001220703125,-107.70000457763672,-14.700000762939453
569426,-4.082923889160156,9.64146614074707,-2.608501434326172,-0.853663980960846,2.987823963165283,4.588443756103516,242.70001220703125,-119.70000457763672,-18.900001525878906
569446,-3.6229519844055176,9.505687713623047,-2.6790823936462402,-0.9832379817962646,2.2180018424987793,3.452765941619873,233.10000610351562,-122.10000610351562,-20.100000381469727
569466,-3.371133804321289,8.745448112487793,-2.533135414123535,-0.9984819889068604,2.743919849395752,3.109776020050049,225.90000915527344,-119.70000457763672,-20.100000381469727
569488,-3.0032758712768555,8.755617141723633,-2.664726972579956,-0.8993960022926331,3.2317278385162354,3.5823400020599365,228.3000030517578,-126.9000015258789,-15.90000057220459
569508,-2.9560225009918213,8.662904739379883,-2.781364917755127,-1.067080020904541,4.123501777648926,3.650938034057617,228.3000030517578,-129.3000030517578,-23.700000762939453
569528,-2.850151300430298,8.56600570678711,-3.1725502014160156,-0.9375059604644775,4.5503339767456055,3.60520601272583,218.70001220703125,-136.5,-18.900001525878906
569550,-2.786748170852661,8.4236478805542,-3.341824769973755,-0.8460419774055481,4.314052104949951,3.5747179985046387,228.3000030517578,-134.10000610351562,-16.5
569570,-2.673699140548706,8.53609848022461,-3.45188307762146,-0.7469559907913208,3.96343994140625,3.711913824081421,221.10000610351562,-124.50000762939453,-19.5
569590,-2.6031181812286377,8.742457389831543,-3.5045197010040283,-0.510673999786377,3.810999870300293,3.765267848968506,199.50001525878906,-131.70001220703125,-17.700000762939453
569610,-2.545696496963501,9.268823623657227,-3.5930447578430176,-0.38109999895095825,3.5442299842834473,3.8262438774108887,194.70001220703125,-136.5,-20.700000762939453
569634,-2.676689863204956,9.484752655029297,-3.5511748790740967,-0.5640279650688171,3.5213639736175537,3.094532012939453,204.3000030517578,-143.70001220703125,-15.300000190734863
569654,-2.775383472442627,9.508678436279297,-3.3525912761688232,-0.7088459730148315,3.5747179985046387,3.155508041381836,187.5,-136.5,-14.100000381469727
569674,-2.8094775676727295,9.325647354125977,-3.189896583557129,-1.2728739976882935,4.00154972076416,3.399411916732788,199.50001525878906,-138.90000915527344,-17.100000381469727
569694,-3.048734664916992,8.722719192504883,-3.311917543411255,-1.1280559301376343,4.580821990966797,3.810999870300293,194.70001220703125,-141.3000030517578,-11.700000762939453
569715,-2.6665213108062744,8.299832344055176,-3.195279836654663,-0.41158798336982727,4.260697841644287,4.763750076293945,194.70001220703125,-138.90000915527344,-21.30000114440918
569735,-2.343524217605591,8.208913803100586,-3.007462978363037,-0.10670799762010574,4.397893905639648,5.937537670135498,185.10000610351562,-153.3000030517578,-23.100000381469727
569755,-2.098285436630249,8.35366439819336,-3.368741273880005,0.4192099869251251,4.664663791656494,6.600651741027832,168.3000030517578,-148.5,-13.500000953674316
569775,-1.824336051940918,8.351272583007812,-3.3639559745788574,0.8841519951820374,4.161612033843994,6.692115783691406,168.3000030517578,-158.10000610351562,-11.100000381469727
569795,-1.5707234144210815,8.409890174865723,-3.3436191082000732,0.7698220014572144,3.8872199058532715,6.539675712585449,161.10000610351562,-162.90000915527344,-12.300000190734863
569817,-1.3344569206237793,8.481667518615723,-3.5128936767578125,0.8155539631843567,4.00154972076416,6.1738200187683105,149.10000610351562,-150.90000915527344,-9.300000190734863
569837,-0.8362038731575012,8.54806137084961,-3.6074001789093018,0.39634400606155396,3.559473991394043,5.785098075866699,165.90000915527344,-150.90000915527344,-20.100000381469727
569857,-0.518589973449707,8.32495403289795,-3.5368194580078125,-0.09908600151538849,3.407033920288086,5.335400104522705,134.70001220703125,-158.10000610351562,-12.90000057220459
569879,-0.24045348167419434,8.085098266601562,-3.6863551139831543,-0.38109999895095825,3.0869100093841553,5.030519962310791,129.90000915527344,-162.90000915527344,-11.100000381469727
569899,0.06639386713504791,7.941544055938721,-3.5254547595977783,-0.7164679765701294,2.240867853164673,4.916189670562744,134.70001220703125,-165.3000030517578,-13.500000953674316
569963,0.7076031565666199,7.345793724060059,-3.0595014095306396,-1.646351933479309,1.1661659479141235,3.818621873855591,110.70000457763672,-167.70001220703125,-17.100000381469727
569983,0.7620341181755066,7.003655910491943,-3.0929973125457764,-1.2042759656906128,0.8917739987373352,3.551851987838745,103.50000762939453,-167.70001220703125,-11.700000762939453
570003,0.9779637455940247,7.369121551513672,-3.070267915725708,-0.5030519962310791,0.030487999320030212,3.4908759593963623,110.70000457763672,-170.10000610351562,-12.300000190734863
570023,1.1466400623321533,7.515068054199219,-3.0176312923431396,0.07621999830007553,-0.6631140112876892,2.835383892059326,117.9000015258789,-170.10000610351562,-14.700000762939453
570043,1.3613734245300293,7.43671178817749,-2.9769575595855713,0.8307979702949524,-1.4481799602508545,1.9664759635925293,115.50000762939453,-167.70001220703125,-14.100000381469727
570083,1.645491361618042,7.007245063781738,-3.0918009281158447,1.7683039903640747,-1.7835479974746704,1.2728739976882935,98.70000457763672,-170.10000610351562,-15.300000190734863
570103,1.5826863050460815,8.61565113067627,-3.8885273933410645,2.1722700595855713,-1.3490939140319824,2.75154185295105,98.70000457763672,-160.5,-9.90000057220459
570126,2.1826236248016357,9.990781784057617,-4.610486030578613,0.5945159792900085,-1.4405579566955566,3.109776020050049,113.10000610351562,-174.90000915527344,-14.700000762939453
570146,2.358477830886841,9.959080696105957,-4.765405178070068,0.05335399881005287,-3.2698378562927246,1.0975680351257324,91.5,-174.90000915527344,-7.500000476837158
570167,2.331561326980591,9.16055965423584,-4.167262077331543,-0.5945159792900085,-4.275941848754883,0.5030519962310791,98.70000457763672,-172.5,-10.5
570187,2.545696496963501,8.974536895751953,-3.5870633125305176,-1.425313949584961,-3.96343994140625,1.0899460315704346,93.9000015258789,-184.5,-9.300000190734863
570209,2.5881645679473877,9.911827087402344,-3.374124526977539,-2.0198299884796143,-2.6219680309295654,1.577754020690918,110.70000457763672,-165.3000030517578,-11.700000762939453
570229,2.5714166164398193,10.262338638305664,-2.7341115474700928,-3.0183119773864746,-2.4161739349365234,0.8384199738502502,96.30000305175781,-165.3000030517578,-17.700000762939453
570249,2.360870361328125,9.975828170776367,-2.5528740882873535,-2.797273874282837,-1.3109840154647827,-0.2972579896450043,96.30000305175781,-165.3000030517578,-14.700000762939453
570271,2.342926025390625,10.09366226196289,-2.4224791526794434,-2.5152599811553955,-1.1737879514694214,-0.04573199898004532,91.5,-158.10000610351562,-14.100000381469727
570291,2.3985533714294434,10.971736907958984,-2.1628849506378174,-2.5076379776000977,-0.9908599853515625,1.0594580173492432,101.10000610351562,-162.90000915527344,-11.100000381469727
570312,2.42606782913208,11.450250625610352,-1.9529367685317993,-2.6753220558166504,-0.6326259970664978,0.9451279640197754,81.9000015258789,-170.10000610351562,-18.900001525878906
570332,1.945160984992981,9.814330101013184,-1.417598843574524,-3.246971845626831,-0.6783579587936401,-0.3125019967556,101.10000610351562,-172.5,-12.300000190734863
570352,1.1227144002914429,8.272316932678223,-0.7363139986991882,-3.239349842071533,-0.49542999267578125,-0.23628199100494385,98.70000457763672,-158.10000610351562,-11.100000381469727
570372,0.6914532780647278,8.193960189819336,-1.2351652383804321,-2.644834041595459,1.4634239673614502,0.7926880121231079,96.30000305175781,-174.90000915527344,-18.900001525878906
570392,0.43604621291160583,8.870460510253906,-2.0283029079437256,-1.8216580152511597,1.3186060190200806,0.8460419774055481,77.10000610351562,-174.90000915527344,-14.100000381469727
570412,0.36606350541114807,8.975733757019043,-2.2843079566955566,-0.9908599853515625,0.09146399796009064,0.22103799879550934,89.10000610351562,-174.90000915527344,-15.90000057220459
570436,0.515001118183136,8.856104850769043,-2.1060614585876465,-0.3125019967556,-1.0365920066833496,-0.05335399881005287,86.70000457763672,-174.90000915527344,-23.100000381469727
570456,0.8045023083686829,9.232934951782227,-2.0187325477600098,0.10670799762010574,-1.2804960012435913,0.038109999150037766,81.9000015258789,-170.10000610351562,-17.100000381469727
570478,0.7524638772010803,8.665297508239746,-1.5832844972610474,-0.9070180058479309,-1.1585439443588257,0.22103799879550934,81.9000015258789,-165.3000030517578,-18.900001525878906
570499,0.7841654419898987,9.189868927001953,-1.7178666591644287,-1.0061039924621582,-0.35061198472976685,1.2271419763565063,96.30000305175781,-170.10000610351562,-11.700000762939453
570519,0.7781839966773987,9.2939453125,-1.9834420680999756,-1.6844619512557983,-0.015243999660015106,1.4862899780273438,79.5,-170.10000610351562,-26.100000381469727
570559,1.0419650077819824,9.50508975982666,-1.9505442380905151,-1.5701320171356201,-0.35061198472976685,2.2637338638305664,89.10000610351562,-172.5,-17.100000381469727
570579,1.1621917486190796,8.635390281677246,-1.5790973901748657,-2.1036720275878906,-0.6021379828453064,2.134160041809082,77.10000610351562,-170.10000610351562,-21.30000114440918
570602,1.3476160764694214,8.799281120300293,-1.3757288455963135,-1.2271419763565063,-0.3887220025062561,2.850627899169922,84.30000305175781,-179.70001220703125,-20.100000381469727
570623,1.61737859249115,9.417760848999023,-1.4833946228027344,-1.1356779336929321,-0.09908600151538849,2.850627899169922,77.10000610351562,-179.70001220703125,-18.30000114440918
570644,1.5689289569854736,8.909937858581543,-1.3464198112487793,-1.4558019638061523,-0.05335399881005287,2.2484898567199707,72.30000305175781,-177.3000030517578,-18.30000114440918
570664,1.7130814790725708,8.502004623413086,-1.2273893356323242,-1.1051899194717407,-0.2439039945602417,2.0198299884796143,72.30000305175781,-184.5,-18.30000114440918
570684,1.9643014669418335,8.66948413848877,-1.126901388168335,-0.6554920077323914,-0.19054999947547913,2.1189160346984863,72.30000305175781,-179.70001220703125,-18.900001525878906
570704,1.9942086935043335,8.580361366271973,-1.1597992181777954,-0.5868939757347107,-0.20579399168491364,1.875011920928955,69.9000015258789,-179.70001220703125,-18.900001525878906
570724,2.083930015563965,8.191568374633789,-1.0389742851257324,-0.5335400104522705,-0.46494197845458984,1.7378159761428833,55.500003814697266,-177.3000030517578,-20.700000762939453
570746,2.307037353515625,8.216092109680176,-0.9402807354927063,-0.22103799879550934,-0.41158798336982727,1.92836594581604,67.5,-182.10000610351562,-25.500001907348633
570766,2.375823974609375,8.551650047302246,-1.107162594795227,-0.09146399796009064,-0.3048799932003021,1.935987949371338,65.10000610351562,-172.5,-22.5
570786,2.3381409645080566,8.888404846191406,-1.2746427059173584,-0.1448179930448532,-0.41158798336982727,1.3414719104766846,62.70000076293945,-165.3000030517578,-25.500001907348633
570806,2.480498790740967,8.81782341003418,-1.326681137084961,-0.1600620001554489,-0.7088459730148315,0.44969800114631653,55.500003814697266,-174.90000915527344,-24.900001525878906
570826,2.9338912963867188,9.03913688659668,-1.1926970481872559,0.33536797761917114,-0.5259180068969727,-0.114329993724823,55.500003814697266,-184.5,-21.30000114440918
570866,3.225186824798584,11.223554611206055,-2.1772403717041016,-0.342989981174469,0.3201240003108978,-0.2743920087814331,60.30000305175781,-177.3000030517578,-25.500001907348633
570886,2.301055908203125,9.31488037109375,-2.116229772567749,-0.1448179930448532,-0.04573199898004532,-2.9725799560546875,55.500003814697266,-167.70001220703125,-23.100000381469727
570906,2.0342843532562256,8.450563430786133,-2.2107365131378174,0.8155539631843567,-0.06859800219535828,-2.5533699989318848,65.10000610351562,-186.90000915527344,-25.500001907348633
570928,1.9050853252410889,9.27719783782959,-2.3919737339019775,0.7774440050125122,0.2972579896450043,-1.3643379211425781,69.9000015258789,-174.90000915527344,-19.5
570948,1.4690390825271606,9.592418670654297,-2.857927083969116,0.46494197845458984,1.2576299905776978,-1.753059983253479,77.10000610351562,-182.10000610351562,-26.700000762939453
570968,1.3464198112487793,10.527914047241211,-3.687551498413086,1.1204339265823364,2.0655620098114014,-1.699705958366394,72.30000305175781,-174.90000915527344,-20.700000762939453
570990,1.8913280963897705,11.451447486877441,-4.551867961883545,1.5472660064697266,2.2561118602752686,-1.5853760242462158,72.30000305175781,-167.70001220703125,-17.700000762939453
571050,1.1956877708435059,7.29016637802124,-5.252891540527344,3.0640439987182617,-2.179892063140869,-1.653973937034607,79.5,-179.70001220703125,-20.700000762939453
571074,1.5270589590072632,8.180203437805176,-4.37900447845459,1.1356779336929321,-3.3841679096221924,2.4619059562683105,77.10000610351562,-165.3000030517578,-16.5
571094,2.1509220600128174,9.284375190734863,-4.065577983856201,0.2896359860897064,-1.9588539600372314,3.1783738136291504,69.9000015258789,-179.70001220703125,-15.90000057220459
571114,1.912263035774231,8.449965476989746,-4.066175937652588,-0.5487840175628662,-0.7926880121231079,1.7606819868087769,67.5,-170.10000610351562,-17.700000762939453
571136,1.7932326793670654,7.363140106201172,-3.6618313789367676,-1.14329993724823,-0.853663980960846,1.7378159761428833,67.5,-177.3000030517578,-15.90000057220459
571196,2.369842529296875,7.661613464355469,-3.1223063468933105,-1.4100699424743652,-0.2591480016708374,1.9893419742584229,60.30000305175781,-177.3000030517578,-25.500001907348633
571292,2.580986976623535,8.507387161254883,-3.6474759578704834,-0.4344539940357208,-0.41158798336982727,0.8917739987373352,53.10000228881836,-172.5,-17.700000762939453
571333,3.084623336791992,7.906851768493652,-3.808974504470825,1.0975680351257324,-1.371959924697876,-3.6356940269470215,53.10000228881836,-177.3000030517578,-19.5
571353,3.0595014095306396,8.070144653320312,-3.624746322631836,1.2500079870224,-1.4634239673614502,-3.757645845413208,57.900001525878906,-174.90000915527344,-20.100000381469727
571416,2.217315912246704,7.6801557540893555,-3.7090845108032227,-1.0823240280151367,-0.060975998640060425,-2.8734939098358154,69.9000015258789,-170.10000610351562,-22.5
571438,1.8506543636322021,7.217193126678467,-3.6020169258117676,-1.4558019638061523,0.038109999150037766,-2.896359920501709,65.10000610351562,-167.70001220703125,-23.100000381469727
571458,1.5061240196228027,7.285381317138672,-3.41898512840271,-1.1661659479141235,0.2591480016708374,-1.8673899173736572,72.30000305175781,-172.5,-15.90000057220459
571478,2.113239049911499,9.314282417297363,-3.9746601581573486,-0.7621999979019165,0.342989981174469,0.44969800114631653,77.10000610351562,-172.5,-23.100000381469727
571498,1.8739819526672363,9.245495796203613,-3.1904945373535156,-1.9436099529266357,-0.8155539631843567,-1.0975680351257324,79.5,-162.90000915527344,-20.100000381469727
571518,1.439730167388916,9.08997917175293,-3.2066445350646973,-1.0442140102386475,-0.5335400104522705,-0.9603719711303711,77.10000610351562,-162.90000915527344,-22.5
571542,1.0682833194732666,8.662306785583496,-2.408721685409546,-2.1494040489196777,-2.1494040489196777,-1.2728739976882935,79.5,-170.10000610351562,-19.5
571562,0.6890606880187988,8.650343894958496,-2.2520081996917725,-1.371959924697876,-1.2728739976882935,-1.1051899194717407,77.10000610351562,-160.5,-17.700000762939453
571582,0.6663312911987305,9.73537540435791,-2.629436492919922,-0.8689079880714417,-2.126538038253784,-0.510673999786377,81.9000015258789,-155.70001220703125,-18.900001525878906
571602,0.2679680585861206,10.21927261352539,-1.9983956813812256,-1.6082419157028198,-2.9725799560546875,-1.013725996017456,84.30000305175781,-182.10000610351562,-26.100000381469727
571622,0.48210322856903076,11.002242088317871,-1.8799633979797363,-0.510673999786377,-2.9268479347229004,-0.6097599864006042,84.30000305175781,-172.5,-18.30000114440918
571642,2.2968690395355225,14.457115173339844,-1.1681731939315796,-1.5929979085922241,-3.4375219345092773,3.2622158527374268,72.30000305175781,-167.70001220703125,-26.100000381469727
571702,-1.2393522262573242,7.65981912612915,-0.4743273854255676,-1.8216580152511597,-1.0061039924621582,-8.21651554107666,96.30000305175781,-170.10000610351562,-24.900001525878906
571763,-0.3403433561325073,7.872159481048584,-0.5592637062072754,-1.242385983467102,0.26677000522613525,0.9451279640197754,91.5,-167.70001220703125,-27.900001525878906
571829,0.5718246698379517,7.936161041259766,-0.7614359855651855,-0.09908600151538849,-0.6250039935112,1.6844619512557983,81.9000015258789,-167.70001220703125,-26.100000381469727
571869,1.3655604124069214,8.68742847442627,-0.8846534490585327,0.46494197845458984,-0.3582339882850647,2.538125991821289,89.10000610351562,-179.70001220703125,-25.500001907348633
571889,1.411617398262024,8.945826530456543,-1.031198501586914,0.2896359860897064,-0.06859800219535828,2.591480016708374,86.70000457763672,-179.70001220703125,-24.30000114440918
571913,1.9894235134124756,9.789207458496094,-1.0676852464675903,0.28201398253440857,0.20579399168491364,2.6219680309295654,81.9000015258789,-172.5,-30.30000114440918
571953,1.6718095541000366,9.630102157592773,-1.1657806634902954,0.13719600439071655,0.6936019659042358,1.471045970916748,89.10000610351562,-174.90000915527344,-27.30000114440918
571974,1.5707234144210815,9.425537109375,-1.2022674083709717,0.05335399881005287,0.9222619533538818,0.7850660085678101,62.70000076293945,-160.5,-24.900001525878906
571994,1.3942712545394897,8.999659538269043,-1.1376678943634033,0.20579399168491364,1.1737879514694214,0.3125019967556,67.5,-174.90000915527344,-21.900001525878906
572014,1.3302699327468872,8.76399040222168,-1.1747528314590454,0.5640279650688171,1.3643379211425781,0.06859800219535828,72.30000305175781,-167.70001220703125,-20.100000381469727
572034,1.3882898092269897,8.528322219848633,-1.1167329549789429,0.5411620140075684,1.6311079263687134,0.16768398880958557,57.900001525878906,-174.90000915527344,-23.100000381469727
572054,1.3852990865707397,8.249588012695312,-1.0306003093719482,0.46494197845458984,2.126538038253784,0.28201398253440857,69.9000015258789,-174.90000915527344,-23.100000381469727
572077,2.42606782913208,9.908238410949707,-1.406832218170166,1.3033620119094849,2.7210538387298584,1.7301939725875854,65.10000610351562,-155.70001220703125,-26.700000762939453
572097,3.061295747756958,10.13553237915039,-1.0634982585906982,-0.3734779953956604,3.1859958171844482,1.3948259353637695,60.30000305175781,-177.3000030517578,-21.900001525878906
572121,2.42905855178833,8.903358459472656,-1.6951371431350708,-1.0899460315704346,4.580821990966797,1.013725996017456,67.5,-174.90000915527344,-24.900001525878906
572141,2.0827338695526123,8.179605484008789,-2.1419498920440674,-0.22103799879550934,4.740883827209473,0.5335400104522705,72.30000305175781,-179.70001220703125,-24.900001525878906
572161,2.2908875942230225,8.37160873413086,-2.4493954181671143,0.2591480016708374,3.612828016281128,1.0899460315704346,65.10000610351562,-174.90000915527344,-26.700000762939453
572185,2.842973470687866,9.311291694641113,-2.321990966796875,0.18292799592018127,3.2317278385162354,1.3567159175872803,60.30000305175781,-165.3000030517578,-24.900001525878906
572225,2.9464523792266846,9.96147346496582,-3.48777174949646,0.19817200303077698,4.649419784545898,0.48018598556518555,67.5,-172.5,-26.700000762939453
572251,3.3167028427124023,9.798778533935547,-4.126588344573975,0.4344539940357208,3.2164838314056396,-0.060975998640060425,55.500003814697266,-174.90000915527344,-19.5
572271,2.6940360069274902,8.1724271774292,-3.8400778770446777,0.6631140112876892,2.339953899383545,-1.0899460315704346,53.10000228881836,-162.90000915527344,-27.900001525878906
572312,3.102567672729492,9.186878204345703,-4.390369415283203,1.7225719690322876,0.4725639820098877,2.736297845840454,55.500003814697266,-182.10000610351562,-18.30000114440918
572354,2.933293104171753,8.80406665802002,-4.20374870300293,0.457319974899292,1.0747020244598389,-0.19054999947547913,48.30000305175781,-162.90000915527344,-28.500001907348633
572374,2.941667079925537,8.688624382019043,-4.237244606018066,-0.2972579896450043,0.5335400104522705,-0.5640279650688171,53.10000228881836,-167.70001220703125,-26.700000762939453
572394,2.9859297275543213,8.278298377990723,-4.0673723220825195,-0.6783579587936401,0.4192099869251251,-0.9984819889068604,48.30000305175781,-167.70001220703125,-15.90000057220459
572434,3.168961524963379,8.42544174194336,-3.7102808952331543,-1.478667974472046,-0.02286599949002266,-0.007621999830007553,55.500003814697266,-177.3000030517578,-16.5
572454,3.1426432132720947,8.655128479003906,-3.502725124359131,-1.829279899597168,0.1295740008354187,-0.4725639820098877,55.500003814697266,-174.90000915527344,-14.100000381469727
572474,3.1671669483184814,8.62582015991211,-3.2855992317199707,-2.3704419136047363,0.1448179930448532,-1.0518360137939453,50.70000076293945,-172.5,-23.100000381469727
572494,3.222196102142334,8.573183059692383,-3.118119239807129,-2.4542839527130127,0.09908600151538849,-1.4634239673614502,55.500003814697266,-174.90000915527344,-24.30000114440918
572514,3.1605875492095947,8.368020057678223,-2.8304126262664795,-2.6219680309295654,-0.114329993724823,-1.7987920045852661,69.9000015258789,-167.70001220703125,-21.30000114440918
572558,3.0953898429870605,8.26513957977295,-2.2155215740203857,-2.949713945388794,-0.4039659798145294,-2.5228819847106934,55.500003814697266,-174.90000915527344,-26.700000762939453
572578,2.8746750354766846,7.807559967041016,-1.9110667705535889,-2.8277618885040283,-0.38109999895095825,-2.743919849395752,69.9000015258789,-179.70001220703125,-29.700000762939453
572598,3.0660808086395264,8.412282943725586,-2.0940985679626465,-1.9740979671478271,-0.41158798336982727,-2.233245849609375,65.10000610351562,-174.90000915527344,-28.500001907348633
572618,2.7442798614501953,7.999564170837402,-1.6191730499267578,-2.0122079849243164,-0.8612859845161438,-2.4619059562683105,69.9000015258789,-179.70001220703125,-27.30000114440918
572638,2.8782639503479004,8.66350269317627,-1.6006306409835815,-0.9298839569091797,-1.1051899194717407,-1.8902559280395508,67.5,-162.90000915527344,-21.900001525878906
572658,2.796318292617798,8.76219654083252,-1.1053682565689087,-1.1356779336929321,-1.5625100135803223,-2.1570260524749756,74.70000457763672,-186.90000915527344,-30.900001525878906
572678,2.8567309379577637,8.871058464050293,-0.9372900128364563,-0.7545779943466187,-0.6936019659042358,-2.126538038253784,72.30000305175781,-182.10000610351562,-26.700000762939453
572718,4.036867141723633,11.826482772827148,-0.8726906180381775,-2.240867853164673,-0.8689079880714417,-1.2804960012435913,77.10000610351562,-177.3000030517578,-26.100000381469727
572738,1.7071000337600708,6.946234226226807,-0.12261930853128433,-1.425313949584961,-0.23628199100494385,-6.852177619934082,93.9000015258789,-182.10000610351562,-23.100000381469727
572758,1.315914511680603,7.678361415863037,-0.817661464214325,1.0975680351257324,1.2500079870224,-1.295740008354187,67.5,-177.3000030517578,-29.700000762939453
572778,1.6018269062042236,10.772555351257324,-0.9522436261177063,-1.1737879514694214,0.8765299916267395,0.49542999267578125,84.30000305175781,-172.5,-26.100000381469727
572802,0.5359361171722412,10.414865493774414,-1.0862276554107666,-0.5030519962310791,1.5091559886932373,-3.254593849182129,91.5,-160.5,-29.700000762939453
572822,0.28890305757522583,10.262937545776367,-0.9665990471839905,-0.2896359860897064,0.08384199440479279,-4.085391998291016,91.5,-167.70001220703125,-22.5
572844,0.08553444594144821,9.88849925994873,-0.6053206920623779,-0.8993960022926331,-0.09146399796009064,-4.8018598556518555,86.70000457763672,-179.70001220703125,-24.900001525878906
572864,0.040075577795505524,9.582250595092773,-0.41271865367889404,-0.4344539940357208,-0.22103799879550934,-4.352161884307861,108.30000305175781,-172.5,-27.900001525878906
572884,0.24344418942928314,9.195850372314453,-0.02751457691192627,-0.9222619533538818,0.04573199898004532,-3.003067970275879,101.10000610351562,-162.90000915527344,-29.100000381469727
572906,0.28651049733161926,9.195850372314453,-0.1591060310602188,-0.8231759667396545,1.1356779336929321,-0.9451279640197754,96.30000305175781,-177.3000030517578,-23.700000762939453
572927,0.3223990499973297,9.152185440063477,-0.12979702651500702,-1.0975680351257324,1.2728739976882935,-0.1600620001554489,96.30000305175781,-162.90000915527344,-23.100000381469727
572947,0.42169079184532166,9.386059761047363,-0.29069748520851135,-1.0365920066833496,1.4024479389190674,0.05335399881005287,105.9000015258789,-165.3000030517578,-27.900001525878906
572968,0.44083136320114136,9.541576385498047,-0.37144678831100464,-1.0365920066833496,1.2042759656906128,-0.2134159952402115,96.30000305175781,-170.10000610351562,-23.700000762939453
572988,0.11364716291427612,9.23831844329834,-0.358885794878006,-1.3948259353637695,1.1585439443588257,-0.8384199738502502,98.70000457763672,-165.3000030517578,-21.900001525878906
573008,0.3636709153652191,9.624120712280273,-0.4533923864364624,-0.9375059604644775,0.6478700041770935,-1.1128119230270386,105.9000015258789,-167.70001220703125,-30.30000114440918
573028,0.5586655139923096,9.85081672668457,-0.512010395526886,-1.0365920066833496,0.5259180068969727,-1.7225719690322876,98.70000457763672,-170.10000610351562,-27.30000114440918
573048,0.5855819582939148,9.32684326171875,-0.5042345523834229,-1.2881180047988892,0.2896359860897064,-2.2180018424987793,101.10000610351562,-179.70001220703125,-26.700000762939453
573068,0.9677953124046326,9.32684326171875,-0.48090696334838867,-0.6173819899559021,0.3887220025062561,-2.1494040489196777,105.9000015258789,-158.10000610351562,-26.700000762939453
573088,1.2064543962478638,9.98719310760498,-0.5287584066390991,-0.2972579896450043,0.8841519951820374,-2.1722700595855713,115.50000762939453,-162.90000915527344,-30.30000114440918
573108,1.22798752784729,10.269516944885254,-0.6818829774856567,-0.5487840175628662,1.5167779922485352,-2.4771499633789062,120.30000305175781,-172.5,-24.30000114440918
573128,1.4576743841171265,10.749227523803711,-0.812876284122467,-0.6021379828453064,1.9588539600372314,-2.637212038040161,96.30000305175781,-177.3000030517578,-24.30000114440918
573148,1.0850313901901245,9.566100120544434,-0.5712265372276306,-1.5701320171356201,2.446661949157715,-3.6890478134155273,129.90000915527344,-167.70001220703125,-35.10000228881836
573168,0.8499611616134644,8.82679557800293,-0.6388167142868042,-1.2500079870224,2.835383892059326,-3.2774598598480225,122.70000457763672,-162.90000915527344,-27.900001525878906
573188,0.7757914066314697,9.014613151550293,-0.7416973114013672,-0.8765299916267395,2.995445966720581,-2.644834041595459,115.50000762939453,-160.5,-24.30000114440918
573208,0.5526841282844543,9.167737007141113,-1.0425631999969482,-0.685979962348938,2.9802019596099854,-2.240867853164673,115.50000762939453,-165.3000030517578,-27.30000114440918
573228,0.25839775800704956,9.265832901000977,-1.1394623517990112,-0.28201398253440857,2.2103798389434814,-1.9512319564819336,137.10000610351562,-162.90000915527344,-24.900001525878906
573248,0.3325674831867218,9.29693603515625,-0.9235327243804932,-0.060975998640060425,1.5929979085922241,-1.6082419157028198,125.10000610351562,-167.70001220703125,-22.5
573268,0.5443100929260254,10.037437438964844,-0.9953098893165588,0.2743920087814331,1.5701320171356201,-1.4634239673614502,117.9000015258789,-153.3000030517578,-30.900001525878906
573288,0.7004254460334778,9.97044563293457,-0.9791600704193115,-0.2896359860897064,1.5625100135803223,-2.431417942047119,137.10000610351562,-165.3000030517578,-29.100000381469727
573308,0.6633405685424805,9.448864936828613,-0.9624120593070984,-0.007621999830007553,1.8978779315948486,-3.0106899738311768,134.70001220703125,-160.5,-24.900001525878906
573329,0.2308831810951233,9.006836891174316,-0.7536601424217224,0.2896359860897064,2.2637338638305664,-2.9725799560546875,129.90000915527344,-153.3000030517578,-25.500001907348633
573349,-0.35828763246536255,9.378283500671387,-1.0353854894638062,0.7088459730148315,2.6600780487060547,-1.8902559280395508,117.9000015258789,-158.10000610351562,-29.700000762939453
573369,-0.7309306859970093,9.404004096984863,-1.305746078491211,0.5868939757347107,2.3018438816070557,-1.653973937034607,127.50000762939453,-150.90000915527344,-22.5
573392,-1.1035737991333008,9.28018856048584,-1.455880045890808,1.5167779922485352,0.6402480006217957,-0.9603719711303711,129.90000915527344,-160.5,-27.30000114440918
573413,-0.9199438691139221,9.515856742858887,-1.4708335399627686,1.6844619512557983,-0.5030519962310791,-0.36585599184036255,141.90000915527344,-146.10000610351562,-22.5
573433,-0.5784042477607727,9.61574649810791,-1.5432088375091553,1.6844619512557983,-1.196653962135315,0.12195199728012085,134.70001220703125,-155.70001220703125,-22.5
573453,-0.253014475107193,9.70128059387207,-1.5037314891815186,1.4634239673614502,-1.7911700010299683,0.426831990480423,134.70001220703125,-158.10000610351562,-27.900001525878906
573473,-0.16389118134975433,9.445874214172363,-1.5533772706985474,1.1356779336929321,-1.699705958366394,0.510673999786377,129.90000915527344,-162.90000915527344,-23.100000381469727
573493,-0.12261930853128433,9.272412300109863,-1.7896437644958496,1.3948259353637695,-2.03507399559021,0.8384199738502502,137.10000610351562,-146.10000610351562,-26.100000381469727
573513,0.008374001830816269,9.271814346313477,-1.7561477422714233,1.295740008354187,-2.583858013153076,1.2652519941329956,137.10000610351562,-160.5,-26.100000381469727
573536,-0.14235801994800568,9.349573135375977,-1.8685986995697021,1.478667974472046,-2.7744078636169434,1.3338500261306763,134.70001220703125,-158.10000610351562,-24.30000114440918
573556,0.3212027847766876,9.652831077575684,-1.83151376247406,1.3872039318084717,-3.4908759593963623,1.295740008354187,125.10000610351562,-158.10000610351562,-17.700000762939453
573577,-0.010168430395424366,9.230542182922363,-1.5796955823898315,0.8841519951820374,-3.6280720233917236,0.800309956073761,122.70000457763672,-162.90000915527344,-18.30000114440918
573597,0.46296265721321106,9.69529914855957,-1.8111768960952759,0.9756159782409668,-3.300325870513916,0.6478700041770935,120.30000305175781,-170.10000610351562,-23.700000762939453
573617,0.6394148468971252,9.84483528137207,-1.8620190620422363,0.426831990480423,-2.843005895614624,0.2439039945602417,139.5,-160.5,-24.900001525878906
573638,0.7052105665206909,9.548155784606934,-1.6837724447250366,-0.04573199898004532,-2.599102020263672,-0.38109999895095825,129.90000915527344,-150.90000915527344,-28.500001907348633
573658,0.5915634036064148,9.405200004577637,-1.6753984689712524,-0.3582339882850647,-1.577754020690918,-0.3582339882850647,125.10000610351562,-162.90000915527344,-27.30000114440918
573678,0.5078234076499939,9.596606254577637,-1.8075881004333496,-0.46494197845458984,-0.6707359552383423,-0.5487840175628662,115.50000762939453,-165.3000030517578,-21.30000114440918
573698,0.4635607898235321,9.510473251342773,-1.9098705053329468,-0.739333987236023,0.17530599236488342,-0.9908599853515625,125.10000610351562,-167.70001220703125,-23.700000762939453
573718,0.2458367645740509,9.441088676452637,-1.8016066551208496,-0.7774440050125122,0.6554920077323914,-1.1661659479141235,139.5,-160.5,-28.500001907348633
573758,-0.17585402727127075,9.486547470092773,-2.071369171142578,-0.5411620140075684,1.425313949584961,-1.753059983253479,141.90000915527344,-165.3000030517578,-21.30000114440918
573778,-0.13218960165977478,9.493724822998047,-1.9397776126861572,-0.6707359552383423,1.3795819282531738,-1.7835479974746704,141.90000915527344,-162.90000915527344,-21.900001525878906
573800,0.05682358145713806,9.506884574890137,-1.6652300357818604,-1.2652519941329956,2.2561118602752686,-1.6234859228134155,141.90000915527344,-158.10000610351562,-24.30000114440918
573820,-0.17166703939437866,9.364526748657227,-1.7818678617477417,-1.417691946029663,2.9802019596099854,-1.524399995803833,144.3000030517578,-167.70001220703125,-27.900001525878906
573840,-0.16448931396007538,9.473388671875,-1.6999223232269287,-1.4024479389190674,2.9802019596099854,-1.2195199728012085,151.5,-160.5,-36.30000305175781
573860,-0.18422803282737732,9.445874214172363,-1.6209675073623657,-1.5853760242462158,3.193617820739746,-1.2881180047988892,139.5,-148.5,-31.500001907348633
573880,-0.3253897726535797,9.377685546875,-1.5701253414154053,-1.3948259353637695,3.3384358882904053,-1.2042759656906128,144.3000030517578,-150.90000915527344,-20.100000381469727
573900,-0.409129798412323,9.52303409576416,-1.6544634103775024,-1.295740008354187,3.0869100093841553,-1.189031958580017,137.10000610351562,-155.70001220703125,-19.5
573924,-0.2548089027404785,9.237720489501953,-1.396663784980774,-1.2271419763565063,2.7210538387298584,-1.524399995803833,151.5,-150.90000915527344,-33.30000305175781
573984,-0.6113021373748779,9.512866020202637,-1.739399790763855,-1.1204339265823364,2.5686140060424805,-0.8993960022926331,141.90000915527344,-160.5,-17.700000762939453
574004,-0.5628525614738464,9.41357421875,-1.649678349494934,-1.0365920066833496,2.0122079849243164,-1.013725996017456,151.5,-148.5,-22.5
574024,-0.39836323261260986,9.425537109375,-1.4301598072052002,-0.9756159782409668,1.7683039903640747,-0.7698220014572144,146.70001220703125,-148.5,-27.30000114440918
574044,-0.2811271846294403,9.39263916015625,-1.432552456855774,-0.8765299916267395,1.9207439422607422,-0.7164679765701294,153.90000915527344,-167.70001220703125,-26.700000762939453
574064,-0.3397451937198639,9.329833984375,-1.3829065561294556,-0.8612859845161438,2.080806016921997,-0.8993960022926331,146.70001220703125,-143.70001220703125,-23.700000762939453
574084,-0.3636709153652191,9.399816513061523,-1.4857871532440186,-0.6021379828453064,2.1112940311431885,-1.0061039924621582,153.90000915527344,-165.3000030517578,-25.500001907348633
574104,-0.7554545998573303,9.31607723236084,-1.3195034265518188,-0.5945159792900085,1.8140360116958618,-1.0823240280151367,149.10000610351562,-148.5,-21.900001525878906
574124,-0.9462621808052063,9.536791801452637,-1.4020471572875977,-0.2896359860897064,1.417691946029663,-0.6478700041770935,149.10000610351562,-160.5,-21.30000114440918
574145,-1.0910128355026245,9.423144340515137,-1.4869834184646606,-0.426831990480423,0.6631140112876892,-0.6097599864006042,151.5,-155.70001220703125,-25.500001907348633
574165,-1.2411466836929321,9.62172794342041,-1.514497995376587,0.04573199898004532,-1.1585439443588257,0.08384199440479279,146.70001220703125,-158.10000610351562,-20.700000762939453
574185,-1.1478363275527954,9.866368293762207,-1.538423776626587,0.038109999150037766,-1.8597679138183594,0.228659987449646,161.10000610351562,-143.70001220703125,-21.30000114440918
574205,-0.8667091727256775,9.575671195983887,-1.3990564346313477,-0.5335400104522705,-2.690565824508667,-0.04573199898004532,149.10000610351562,-153.3000030517578,-17.700000762939453
574228,-0.7285381555557251,9.337610244750977,-1.449898600578308,-0.18292799592018127,-3.407033920288086,0.007621999830007553,158.70001220703125,-146.10000610351562,-22.5
574248,-0.6711164116859436,9.075623512268066,-1.4780112504959106,-0.030487999320030212,-3.6433160305023193,0.2972579896450043,144.3000030517578,-155.70001220703125,-20.100000381469727
574270,-0.5167955160140991,9.472789764404297,-1.5103110074996948,0.2896359860897064,-3.9481959342956543,0.6936019659042358,146.70001220703125,-158.10000610351562,-26.100000381469727
574290,-0.21114446222782135,9.48116397857666,-1.3673548698425293,0.015243999660015106,-3.810999870300293,0.510673999786377,149.10000610351562,-160.5,-26.100000381469727
574310,-0.11304902285337448,9.596606254577637,-1.3565882444381714,-0.25152599811553955,-3.155508041381836,0.8155539631843567,156.3000030517578,-162.90000915527344,-30.900001525878906
574330,-0.18662060797214508,9.58284854888916,-1.2590909004211426,-0.48018598556518555,-2.591480016708374,0.3887220025062561,156.3000030517578,-167.70001220703125,-27.30000114440918
574350,-0.5281602144241333,9.54097843170166,-1.4361412525177002,-0.6402480006217957,-1.92836594581604,0.41158798336982727,151.5,-143.70001220703125,-32.10000228881836
574370,-0.806894838809967,9.66838264465332,-1.4810019731521606,-0.39634400606155396,-2.080806016921997,0.4192099869251251,156.3000030517578,-153.3000030517578,-27.900001525878906
574390,-0.724351167678833,9.45843505859375,-1.2375577688217163,-0.48018598556518555,-2.5076379776000977,0.46494197845458984,153.90000915527344,-148.5,-28.500001907348633
574410,-0.6238631010055542,9.532604217529297,-1.135873556137085,-0.49542999267578125,-2.591480016708374,0.8231759667396545,139.5,-150.90000915527344,-24.30000114440918
574470,0.013159145601093769,9.664196014404297,-1.0820406675338745,-0.08384199440479279,-3.155508041381836,1.6920839548110962,141.90000915527344,-162.90000915527344,-30.900001525878906
574490,-0.8685035705566406,8.98530387878418,-1.016244888305664,-0.2972579896450043,-2.7744078636169434,1.4558019638061523,141.90000915527344,-174.90000915527344,-28.500001907348633
574510,-0.09331030398607254,9.67257022857666,-1.421785831451416,0.6173819899559021,-2.8658719062805176,1.3795819282531738,139.5,-158.10000610351562,-27.900001525878906
574530,-0.3116324841976166,9.565502166748047,-0.9905247688293457,0.2134159952402115,-2.782029867172241,1.1204339265823364,129.90000915527344,-150.90000915527344,-25.500001907348633
574550,-0.4827013909816742,9.444079399108887,-1.1891082525253296,0.17530599236488342,-2.446661949157715,0.7545779943466187,137.10000610351562,-160.5,-30.900001525878906
574570,-0.2398553341627121,9.709654808044434,-1.3392421007156372,0.4420759975910187,-2.492393970489502,1.0365920066833496,127.50000762939453,-167.70001220703125,-29.700000762939453
574590,-0.1543208807706833,9.54695987701416,-1.046152114868164,0.22103799879550934,-2.7667858600616455,0.6250039935112,134.70001220703125,-158.10000610351562,-27.30000114440918
574610,-0.20396675169467926,9.520641326904297,-1.119125485420227,0.20579399168491364,-2.3018438816070557,0.6554920077323914,141.90000915527344,-162.90000915527344,-36.900001525878906
574634,-0.11663787811994553,9.668981552124023,-1.2692593336105347,0.04573199898004532,-2.073184013366699,0.7240899801254272,139.5,-155.70001220703125,-30.30000114440918
574654,-0.17106889188289642,9.271814346313477,-1.131088376045227,-0.22103799879550934,-1.7683039903640747,0.8307979702949524,127.50000762939453,-167.70001220703125,-35.10000228881836
574674,-0.26138848066329956,9.485949516296387,-1.1837249994277954,0.228659987449646,-1.7378159761428833,1.0975680351257324,132.3000030517578,-148.5,-32.10000228881836
574694,-0.2924919128417969,9.36273193359375,-1.2154265642166138,0.228659987449646,-1.6920839548110962,1.0289700031280518,134.70001220703125,-162.90000915527344,-26.100000381469727
574714,-0.41989636421203613,9.49432373046875,-1.3823083639144897,0.7240899801254272,-1.935987949371338,1.1509219408035278,125.10000610351562,-170.10000610351562,-25.500001907348633
574734,-0.28172534704208374,9.508678436279297,-1.21004319190979,0.7317119836807251,-2.8734939098358154,1.1204339265823364,127.50000762939453,-160.5,-33.30000305175781
574798,0.041271865367889404,9.520641326904297,-1.1795378923416138,0.4878079891204834,-1.9436099529266357,1.4862899780273438,132.3000030517578,-153.3000030517578,-31.500001907348633
574828,-0.11484345048666,9.65462589263916,-1.3350551128387451,0.36585599184036255,-0.9527499675750732,1.4329359531402588,125.10000610351562,-160.5,-26.100000381469727
574848,-0.1441524624824524,9.668981552124023,-1.2842129468917847,0.12195199728012085,-0.5411620140075684,1.14329993724823,122.70000457763672,-162.90000915527344,-29.700000762939453
574888,-0.013757288455963135,9.322656631469727,-1.4493004083633423,0.18292799592018127,0.426831990480423,1.3033620119094849,137.10000610351562,-155.70001220703125,-23.700000762939453
574908,0.09390844404697418,9.332226753234863,-1.3733363151550293,0.2972579896450043,0.7698220014572144,1.646351933479309,125.10000610351562,-165.3000030517578,-32.10000228881836
574932,0.01914057508111,9.366320610046387,-1.4576743841171265,0.38109999895095825,1.2728739976882935,1.7987920045852661,129.90000915527344,-177.3000030517578,-32.10000228881836
574952,0.05742172524333,9.41536808013916,-1.5982379913330078,0.5411620140075684,1.478667974472046,1.8445239067077637,117.9000015258789,-162.90000915527344,-27.900001525878906
574972,0.03588857874274254,9.291552543640137,-1.633528470993042,0.7012239694595337,1.5396440029144287,1.6844619512557983,115.50000762939453,-162.90000915527344,-27.900001525878906
574992,0.16688188910484314,9.354357719421387,-1.6742022037506104,1.0365920066833496,1.577754020690918,1.7911700010299683,101.10000610351562,-170.10000610351562,-27.30000114440918
575012,0.3176139295101166,9.468603134155273,-1.5479940176010132,0.9222619533538818,1.707327961921692,1.8902559280395508,108.30000305175781,-155.70001220703125,-27.30000114440918
575034,0.39955949783325195,9.548155784606934,-1.5743123292922974,0.5792719721794128,2.14178204536438,1.829279899597168,96.30000305175781,-153.3000030517578,-23.700000762939453
575054,0.46236452460289,9.506884574890137,-1.5701253414154053,0.4725639820098877,2.2180018424987793,1.7987920045852661,98.70000457763672,-170.10000610351562,-26.700000762939453
575074,0.3798207938671112,9.21140193939209,-1.6927446126937866,0.17530599236488342,2.2713558673858643,1.7454379796981812,98.70000457763672,-172.5,-29.100000381469727
575095,0.3989613652229309,9.08579158782959,-1.806391716003418,0.5868939757347107,2.1570260524749756,1.9588539600372314,103.50000762939453,-177.3000030517578,-26.100000381469727
575115,0.5383286476135254,9.42852783203125,-1.8028029203414917,1.1204339265823364,1.7759259939193726,2.2027578353881836,108.30000305175781,-167.70001220703125,-24.30000114440918
575135,0.7171733975410461,9.30889892578125,-1.7549514770507812,0.8155539631843567,1.6615959405899048,2.2484898567199707,101.10000610351562,-170.10000610351562,-21.900001525878906
575155,0.7082012891769409,9.2760009765625,-1.9248241186141968,0.8079319596290588,1.7149499654769897,2.332331895828247,103.50000762939453,-177.3000030517578,-27.900001525878906
575177,0.7829691767692566,9.095361709594727,-2.152118444442749,0.8917739987373352,1.4024479389190674,2.2561118602752686,89.10000610351562,-172.5,-33.30000305175781
575197,0.9576268792152405,9.16654109954834,-2.2047550678253174,1.2347639799118042,0.8612859845161438,2.5228819847106934,84.30000305175781,-167.70001220703125,-25.500001907348633
575217,1.1843230724334717,9.237720489501953,-2.214325189590454,1.3109840154647827,0.5182960033416748,2.6677000522613525,98.70000457763672,-162.90000915527344,-27.900001525878906
575237,1.3075405359268188,9.258056640625,-2.2663636207580566,1.2347639799118042,0.2896359860897064,2.644834041595459,86.70000457763672,-170.10000610351562,-20.700000762939453
575257,1.7088944911956787,9.153382301330566,-2.319598436355591,0.739333987236023,0.16768398880958557,2.4771499633789062,81.9000015258789,-167.70001220703125,-24.900001525878906
575277,1.8034011125564575,9.217981338500977,-2.44102144241333,0.7164679765701294,0.228659987449646,2.5533699989318848,69.9000015258789,-177.3000030517578,-24.30000114440918
575299,1.7872512340545654,9.28916072845459,-2.580986976623535,0.457319974899292,0.3277460038661957,2.4542839527130127,81.9000015258789,-172.5,-18.900001525878906
575319,1.7764846086502075,9.29215145111084,-2.7771778106689453,0.1448179930448532,0.2134159952402115,2.2637338638305664,79.5,-174.90000915527344,-27.30000114440918
575339,2.0378730297088623,9.090577125549316,-2.7131764888763428,-0.20579399168491364,-0.2591480016708374,2.233245849609375,77.10000610351562,-184.5,-22.5
575359,2.24483060836792,8.882423400878906,-2.2669618129730225,-0.8765299916267395,-0.4039659798145294,3.1402640342712402,77.10000610351562,-160.5,-17.700000762939453
575379,2.2047550678253174,8.981715202331543,-2.3094301223754883,-0.9527499675750732,-0.12195199728012085,3.506119966506958,65.10000610351562,-179.70001220703125,-23.700000762939453
575400,2.0827338695526123,9.171326637268066,-2.3979551792144775,-1.1585439443588257,-0.22103799879550934,3.810999870300293,74.70000457763672,-170.10000610351562,-26.100000381469727
575421,2.1539127826690674,9.524828910827637,-2.2430360317230225,-1.3872039318084717,-0.6936019659042358,3.2622158527374268,55.500003814697266,-167.70001220703125,-22.5
575484,2.411712408065796,9.215588569641113,-1.4893759489059448,-1.9207439422607422,-0.6478700041770935,0.685979962348938,65.10000610351562,-172.5,-17.100000381469727
575504,2.4691340923309326,9.226953506469727,-1.342831015586853,-1.9436099529266357,-0.15243999660015106,0.3125019967556,57.900001525878906,-184.5,-16.5
575524,2.3596739768981934,9.257458686828613,-1.23695969581604,-2.0960500240325928,0.26677000522613525,-0.015243999660015106,57.900001525878906,-177.3000030517578,-24.30000114440918
575544,2.101276159286499,8.962574005126953,-1.3009610176086426,-1.9664759635925293,0.8384199738502502,-0.4039659798145294,55.500003814697266,-179.70001220703125,-32.10000228881836
575564,2.0079660415649414,9.064258575439453,-1.2537076473236084,-1.2118979692459106,0.9222619533538818,-0.510673999786377,60.30000305175781,-170.10000610351562,-21.30000114440918
575584,1.9601144790649414,9.017603874206543,-1.1915007829666138,-0.8841519951820374,1.1204339265823364,-0.6478700041770935,60.30000305175781,-174.90000915527344,-29.700000762939453
575604,1.7812697887420654,9.174317359924316,-1.3380458354949951,-0.2896359860897064,1.3033620119094849,-0.7774440050125122,45.900001525878906,-172.5,-24.30000114440918
575624,1.5695271492004395,9.21319580078125,-1.452889323234558,0.114329993724823,1.1585439443588257,-1.1280559301376343,57.900001525878906,-186.90000915527344,-32.10000228881836
575644,1.4690390825271606,9.180896759033203,-1.5611531734466553,0.5182960033416748,0.9298839569091797,-1.4405579566955566,62.70000076293945,-174.90000915527344,-25.500001907348633
575666,1.4540855884552002,9.125268936157227,-1.5671346187591553,0.853663980960846,0.7012239694595337,-1.5929979085922241,72.30000305175781,-167.70001220703125,-27.30000114440918
575686,1.6801836490631104,9.23712158203125,-1.534834861755371,0.9832379817962646,0.6097599864006042,-1.417691946029663,57.900001525878906,-182.10000610351562,-28.500001907348633
575708,1.8410841226577759,9.502696990966797,-1.639509916305542,0.8993960022926331,0.7240899801254272,-1.0289700031280518,62.70000076293945,-179.70001220703125,-24.30000114440918
575728,1.7471755743026733,9.31308650970459,-1.6927446126937866,0.4725639820098877,0.7545779943466187,-0.7088459730148315,45.900001525878906,-182.10000610351562,-29.700000762939453
575748,1.7549514770507812,9.211999893188477,-1.7848585844039917,0.6021379828453064,0.6173819899559021,-0.2743920087814331,55.500003814697266,-170.10000610351562,-23.100000381469727
575789,2.0456490516662598,9.20721435546875,-1.8081861734390259,0.36585599184036255,0.02286599949002266,0.16768398880958557,57.900001525878906,-170.10000610351562,-27.900001525878906
575809,2.1802310943603516,9.174317359924316,-1.8530468940734863,0.4420759975910187,-0.2591480016708374,0.2896359860897064,62.70000076293945,-167.70001220703125,-29.100000381469727
575831,2.2167179584503174,9.30889892578125,-1.9637033939361572,0.4192099869251251,-0.457319974899292,0.33536797761917114,60.30000305175781,-177.3000030517578,-29.100000381469727
575851,2.319000244140625,9.334619522094727,-1.9912179708480835,0.2439039945602417,-0.967993974685669,0.1600620001554489,60.30000305175781,-189.3000030517578,-24.30000114440918
575871,2.569024085998535,9.099549293518066,-1.6837724447250366,-0.09908600151538849,-1.1737879514694214,0.1600620001554489,62.70000076293945,-184.5,-27.30000114440918
575891,2.6994192600250244,9.08698844909668,-1.6413042545318604,-0.48018598556518555,-0.9375059604644775,0.35061198472976685,53.10000228881836,-179.70001220703125,-27.30000114440918
575911,2.8567309379577637,8.999659538269043,-1.6389117240905762,-0.7926880121231079,-0.7240899801254272,0.5792719721794128,60.30000305175781,-177.3000030517578,-25.500001907348633
575931,2.8716843128204346,8.76817798614502,-1.5342366695404053,-0.8079319596290588,-0.4725639820098877,0.8689079880714417,62.70000076293945,-182.10000610351562,-20.100000381469727
575951,3.072660446166992,9.108521461486816,-1.448702335357666,-0.510673999786377,-0.3277460038661957,1.242385983467102,55.500003814697266,-177.3000030517578,-34.5
575971,3.1528115272521973,8.96436882019043,-1.452889323234558,-0.9756159782409668,-0.114329993724823,1.1814099550247192,60.30000305175781,-177.3000030517578,-33.30000305175781
575991,3.1701576709747314,8.841151237487793,-1.4684410095214844,-0.5792719721794128,-0.007621999830007553,1.067080020904541,67.5,-165.3000030517578,-24.30000114440918
576011,3.0630900859832764,8.802271842956543,-1.4953573942184448,-0.22103799879550934,-0.06859800219535828,0.6783579587936401,57.900001525878906,-182.10000610351562,-31.500001907348633
576031,3.048734664916992,8.42065715789795,-1.3912805318832397,-0.12195199728012085,-0.228659987449646,0.18292799592018127,48.30000305175781,-170.10000610351562,-24.30000114440918
576051,2.8178515434265137,7.753727436065674,-1.2566983699798584,-0.038109999150037766,-0.6250039935112,-0.5487840175628662,43.5,-182.10000610351562,-28.500001907348633
576091,1.6149860620498657,4.703197956085205,-0.5718246698379517,-0.007621999830007553,-1.4481799602508545,-3.0640439987182617,55.500003814697266,-167.70001220703125,-22.5
576111,0.8493630290031433,3.109147071838379,-0.2075556069612503,-0.19817200303077698,-1.5396440029144287,-3.041177988052368,50.70000076293945,-172.5,-24.30000114440918
576131,0.3002677857875824,2.1180243492126465,-0.07237529754638672,-0.9070180058479309,-0.7926880121231079,-0.5030519962310791,60.30000305175781,-177.3000030517578,-27.30000114440918
576155,-0.02811271883547306,2.6300346851348877,-0.36725977063179016,-1.1280559301376343,0.9070180058479309,3.5747179985046387,62.70000076293945,-179.70001220703125,-24.30000114440918
576198,1.1657806634902954,11.709844589233398,-2.7795703411102295,-1.653973937034607,6.013757705688477,14.794301986694336,36.30000305175781,-174.90000915527344,-27.900001525878906
576218,2.23286771774292,16.987857818603516,-3.4447054862976074,-1.7911700010299683,7.332363605499268,12.713495254516602,31.500001907348633,-186.90000915527344,-25.500001907348633
576238,3.439321994781494,19.599349975585938,-5.905465602874756,3.902463912963867,11.943674087524414,8.719568252563477,21.900001525878906,-174.90000915527344,-22.5
576262,6.694416046142578,19.588584899902344,-8.472695350646973,5.167716026306152,8.925361633300781,1.2652519941329956,14.700000762939453,-165.3000030517578,-17.700000762939453
576324,8.747840881347656,19.599349975585938,-2.592949867248535,-4.7027740478515625,-9.054935455322266,-4.336917877197266,-2.1000001430511475,-186.90000915527344,-17.700000762939453
576345,6.83797025680542,17.577627182006836,-2.9434616565704346,-2.4695279598236084,-0.3277460038661957,-7.301876068115234,7.500000476837158,-182.10000610351562,-27.30000114440918
576365,2.6731009483337402,10.5949068069458,-2.521770715713501,-5.320156097412109,-1.1814099550247192,-12.10373592376709,7.500000476837158,-179.70001220703125,-27.900001525878906
576385,-0.7297344207763672,4.4310431480407715,-0.6681256890296936,-3.1173980236053467,-3.193617820739746,-15.373573303222656,24.30000114440918,-184.5,-24.30000114440918
576405,-2.1054632663726807,-0.7608378529548645,-0.1985834687948227,-0.8765299916267395,-2.0579400062561035,-14.115943908691406,45.900001525878906,-172.5,-30.30000114440918
576425,-2.757439136505127,-3.920228958129883,0.12082488089799881,-1.7606819868087769,-2.4237959384918213,-9.474145889282227,53.10000228881836,-167.70001220703125,-29.100000381469727
576448,0.909177303314209,0.14355431497097015,-0.43185922503471375,4.00154972076416,-2.8811159133911133,4.146368026733398,57.900001525878906,-172.5,-27.900001525878906
576468,2.259186029434204,2.9309005737304688,0.48748651146888733,1.577754020690918,-2.3628199100494385,4.817103862762451,48.30000305175781,-174.90000915527344,-34.5
576488,1.4122155904769897,0.46714967489242554,-0.05323472619056702,-1.0442140102386475,0.1448179930448532,0.5945159792900085,45.900001525878906,-167.70001220703125,-27.30000114440918
576511,0.8607277274131775,-1.6090046167373657,0.33017492294311523,-0.739333987236023,-0.510673999786377,1.471045970916748,48.30000305175781,-174.90000915527344,-25.500001907348633
576531,0.9235327243804932,-1.018039345741272,0.43963509798049927,-0.39634400606155396,-0.44969800114631653,4.184477806091309,60.30000305175781,-184.5,-29.700000762939453
576574,0.5275620818138123,-0.8051004409790039,0.44681280851364136,-0.6707359552383423,-0.6707359552383423,2.9725799560546875,29.100000381469727,-179.70001220703125,-29.700000762939453
576594,0.5784042477607727,-0.6878644227981567,0.5138047933578491,-0.6326259970664978,-0.8841519951820374,2.7744078636169434,36.30000305175781,-177.3000030517578,-23.700000762939453
576614,0.6890606880187988,-0.5879745483398438,0.5335435271263123,-0.5868939757347107,-0.8917739987373352,2.7667858600616455,36.30000305175781,-182.10000610351562,-30.30000114440918
576634,0.8409889936447144,-0.29488447308540344,0.5933578014373779,-0.33536797761917114,-0.7850660085678101,2.9649579524993896,31.500001907348633,-182.10000610351562,-25.500001907348633
576654,0.9606176018714905,0.09869358688592911,0.5915634036064148,-0.114329993724823,-0.39634400606155396,3.3308138847351074,21.900001525878906,-167.70001220703125,-26.700000762939453
576676,1.508516550064087,3.1486246585845947,0.6902570128440857,2.339953899383545,1.6768399477005005,6.974129676818848,12.300000190734863,-177.3000030517578,-29.700000762939453
576696,3.6223537921905518,10.952595710754395,-1.8039991855621338,5.373509883880615,8.193650245666504,22.50776481628418,5.100000381469727,-184.5,-25.500001907348633
576716,13.23391342163086,19.599349975585938,-5.593235015869141,-4.519845962524414,14.474177360534668,35.609981536865234,-21.30000114440918,-184.5,-25.500001907348633
576736,16.8293514251709,19.551498413085938,-7.083806991577148,-3.193617820739746,6.829311847686768,5.541193962097168,-50.10000228881836,-182.10000610351562,-29.700000762939453
576756,12.259538650512695,19.599349975585938,-5.852231025695801,9.298839569091797,-1.478667974472046,-19.550430297851562,-18.900001525878906,-160.5,-30.900001525878906
576776,19.599349975585938,19.599349975585938,-11.727190971374512,0.3277460038661957,2.736297845840454,21.433063507080078,-33.30000305175781,-160.5,-28.500001907348633
576796,18.84808349609375,19.599349975585938,-5.359361171722412,-18.38426399230957,-14.67234992980957,3.7728898525238037,-47.70000076293945,-170.10000610351562,-29.700000762939453
576816,12.186564445495605,19.599349975585938,-2.4942562580108643,0.05335399881005287,-13.879661560058594,-17.522977828979492,-40.5,-167.70001220703125,-25.500001907348633
576836,6.479682922363281,13.380457878112793,-2.301055908203125,-2.5686140060424805,-6.707359790802002,-19.57329559326172,-30.900001525878906,-174.90000915527344,-26.100000381469727
576876,-1.0832369327545166,-1.7501662969589233,1.3847010135650635,0.6326259970664978,-5.297289848327637,-22.332460403442383,17.100000381469727,-174.90000915527344,-33.30000305175781
576896,-1.0533298254013062,-5.972457408905029,1.3380458354949951,1.196653962135315,0.007621999830007553,-11.707391738891602,38.70000076293945,-179.70001220703125,-29.700000762939453
576916,1.1621917486190796,-3.005070209503174,0.8762794733047485,0.9984819889068604,1.5929979085922241,2.240867853164673,38.70000076293945,-177.3000030517578,-27.30000114440918
576936,2.181427478790283,1.63532292842865,0.5532822608947754,3.5442299842834473,2.835383892059326,6.623517990112305,36.30000305175781,-179.70001220703125,-25.500001907348633
576956,2.9709761142730713,3.7449731826782227,-0.16209673881530762,2.39330792427063,4.839970111846924,4.420759677886963,33.900001525878906,-182.10000610351562,-32.10000228881836
576980,1.6987260580062866,1.7693068981170654,0.17286331951618195,-0.38109999895095825,3.2850818634033203,-0.6707359552383423,14.700000762939453,-182.10000610351562,-31.500001907348633
577000,0.7590434551239014,-0.4210926592350006,0.23327575623989105,-0.22103799879550934,3.1402640342712402,-2.599102020263672,24.30000114440918,-167.70001220703125,-26.700000762939453
577020,0.06579572707414627,-1.3805140256881714,0.5891708135604858,-0.6707359552383423,1.371959924697876,-2.6295900344848633,17.100000381469727,-182.10000610351562,-30.900001525878906
577043,0.06400129944086075,-0.2769401967525482,0.3869985044002533,-0.08384199440479279,1.5167779922485352,-2.187514066696167,48.30000305175781,-184.5,-30.900001525878906
577063,0.09689915925264359,-0.08254373073577881,0.5945541262626648,-0.19817200303077698,0.6936019659042358,-2.9802019596099854,31.500001907348633,-174.90000915527344,-30.900001525878906
577083,0.041870009154081345,-0.32180091738700867,0.7105938792228699,-0.5564059615135193,0.6402480006217957,-2.850627899169922,45.900001525878906,-179.70001220703125,-30.30000114440918
577103,-0.08314187079668045,-0.2781364917755127,0.5855819582939148,-0.457319974899292,0.7164679765701294,-2.2637338638305664,55.500003814697266,-182.10000610351562,-26.100000381469727
577123,-0.3014640510082245,-0.5676376819610596,0.509617805480957,-0.510673999786377,0.7469559907913208,-1.5701320171356201,36.30000305175781,-167.70001220703125,-25.500001907348633
577145,-0.6735090017318726,-0.8912330269813538,0.4515979290008545,-0.3582339882850647,0.8612859845161438,-0.7545779943466187,36.30000305175781,-172.5,-21.900001525878906
577165,-0.6412092447280884,-0.08314187079668045,0.23507018387317657,1.0518360137939453,1.3338500261306763,1.5701320171356201,48.30000305175781,-170.10000610351562,-27.900001525878906
577185,0.04964586719870567,3.8921163082122803,-0.4210926592350006,4.2988080978393555,3.3765459060668945,8.529017448425293,33.900001525878906,-189.3000030517578,-29.700000762939453
577205,2.1084539890289307,13.193239212036133,-3.227579355239868,5.160093784332275,11.204339981079102,26.882793426513672,26.700000762939453,-177.3000030517578,-21.900001525878906
577228,12.937832832336426,19.599349975585938,-6.85591459274292,-4.2911858558654785,15.21351146697998,33.97125244140625,-14.100000381469727,-174.90000915527344,-24.30000114440918
577248,14.16103458404541,19.58798599243164,-6.529926776885986,-1.7911700010299683,2.1189160346984863,0.739333987236023,-30.900001525878906,-177.3000030517578,-25.500001907348633
577268,11.929363250732422,19.597557067871094,-6.257173538208008,8.292736053466797,0.9375059604644775,-9.634207725524902,-6.900000095367432,-172.5,-26.700000762939453
577288,19.599349975585938,19.599349975585938,-10.940632820129395,-1.1128119230270386,5.632658004760742,22.058067321777344,-21.30000114440918,-165.3000030517578,-27.30000114440918
577311,14.42601203918457,19.599349975585938,-6.599311351776123,-0.33536797761917114,-9.375060081481934,-10.769886016845703,-35.70000076293945,-167.70001220703125,-32.10000228881836
577351,3.573306083679199,11.383258819580078,0.06280501186847687,-10.20585823059082,-18.37664222717285,-14.679971694946289,-11.700000762939453,-189.3000030517578,-27.900001525878906
577371,0.1812373250722885,5.133861064910889,1.8398877382278442,-4.314052104949951,-1.3186060190200806,-19.024511337280273,14.700000762939453,-177.3000030517578,-30.900001525878906
577413,-3.1486246585845947,-6.657929420471191,1.4361412525177002,-2.1036720275878906,-4.352161884307861,-13.544293403625488,45.900001525878906,-179.70001220703125,-26.700000762939453
577433,-0.4222889244556427,-3.4716217517852783,0.15671345591545105,2.1646480560302734,1.6615959405899048,2.1036720275878906,33.900001525878906,-174.90000915527344,-29.700000762939453
577453,2.1180243492126465,3.0128462314605713,-0.9624120593070984,3.5899620056152344,-0.48018598556518555,10.693665504455566,29.100000381469727,-172.5,-30.30000114440918
577473,3.088212251663208,4.765405178070068,0.8110818862915039,-0.228659987449646,-0.8079319596290588,3.8338658809661865,29.100000381469727,-177.3000030517578,-24.900001525878906
577494,0.7853617072105408,-0.11723602563142776,0.1441524624824524,0.16768398880958557,1.9588539600372314,-4.28356409072876,33.900001525878906,-170.10000610351562,-27.900001525878906
577514,-0.05682358145713806,-2.471526861190796,0.20576117932796478,1.5548880100250244,0.17530599236488342,-2.7210538387298584,36.30000305175781,-177.3000030517578,-26.100000381469727
577534,0.29189378023147583,-1.028207778930664,0.8691017627716064,-0.13719600439071655,0.7698220014572144,1.6768399477005005,29.100000381469727,-172.5,-20.100000381469727
577554,0.02751457691192627,-0.03828115016222,0.25122004747390747,-0.16768398880958557,1.8216580152511597,0.44969800114631653,33.900001525878906,-167.70001220703125,-26.700000762939453
577574,-0.1884150356054306,-0.6741071343421936,0.21533146500587463,-0.5487840175628662,1.577754020690918,-0.7698220014572144,29.100000381469727,-182.10000610351562,-30.900001525878906
577598,-0.20576117932796478,-0.6274519562721252,0.21832218766212463,-0.17530599236488342,1.3490939140319824,-0.4725639820098877,48.30000305175781,-165.3000030517578,-19.5
577618,-0.051440294831991196,-0.1752558946609497,0.11125459522008896,0.41158798336982727,1.0518360137939453,-0.05335399881005287,33.900001525878906,-182.10000610351562,-21.30000114440918
577638,0.02930900640785694,-0.3576894998550415,0.4928697943687439,0.36585599184036255,0.5945159792900085,0.35061198472976685,29.100000381469727,-179.70001220703125,-27.30000114440918
577658,0.25660333037376404,0.11245087534189224,0.5281602144241333,0.5030519962310791,0.8460419774055481,1.7378159761428833,33.900001525878906,-184.5,-28.500001907348633
577679,0.8744850158691406,4.4430060386657715,-0.09988987445831299,2.9649579524993896,3.0716660022735596,8.803409576416016,24.30000114440918,-177.3000030517578,-27.30000114440918
577699,3.42197585105896,12.210490226745605,-2.474517583847046,3.6433160305023193,8.833897590637207,22.812644958496094,9.90000057220459,-177.3000030517578,-28.500001907348633
577719,11.366511344909668,19.599349975585938,-4.858715534210205,-4.245453834533691,11.0061674118042,28.986465454101562,-4.5,-179.70001220703125,-31.500001907348633
577739,13.65201473236084,19.558677673339844,-5.218797206878662,-3.102154016494751,4.512223720550537,3.0259339809417725,-14.100000381469727,-177.3000030517578,-37.5
577783,18.673425674438477,19.599349975585938,-9.881321907043457,4.710395812988281,7.660109996795654,17.050413131713867,-38.10000228881836,-165.3000030517578,-27.30000114440918
577804,18.742809295654297,19.599349975585938,-6.998272895812988,-11.082387924194336,-2.6600780487060547,8.437553405761719,-35.70000076293945,-167.70001220703125,-23.100000381469727
577824,13.865551948547363,19.599349975585938,-5.116515159606934,1.7301939725875854,-9.054935455322266,-12.660141944885254,-35.70000076293945,-160.5,-20.700000762939453
577845,8.710756301879883,16.971111297607422,-3.3585727214813232,-2.4619059562683105,-9.199753761291504,-12.987887382507324,-23.700000762939453,-174.90000915527344,-27.30000114440918
577866,4.238440990447998,11.702069282531738,-1.0497409105300903,-6.318637847900391,-4.740883827209473,-11.920807838439941,-14.100000381469727,-179.70001220703125,-27.900001525878906
577886,1.104171872138977,3.088212251663208,-0.1501338928937912,-1.5167779922485352,-3.650938034057617,-19.603782653808594,12.300000190734863,-179.70001220703125,-24.900001525878906
577906,-0.16987259685993195,-0.10527316480875015,0.2883049249649048,-1.0975680351257324,-3.3765459060668945,-20.297386169433594,17.100000381469727,-182.10000610351562,-32.10000228881836
577926,-2.283709764480591,-5.291770935058594,0.8368020057678223,-1.2195199728012085,-1.3109840154647827,-14.779057502746582,48.30000305175781,-184.5,-24.900001525878906
577946,-0.709397554397583,-4.766003131866455,0.13218960165977478,0.5030519962310791,-0.23628199100494385,-0.8155539631843567,33.900001525878906,-174.90000915527344,-30.900001525878906
577966,1.7358108758926392,0.5736191272735596,0.05323472619056702,2.339953899383545,-1.7759259939193726,8.155539512634277,41.10000228881836,-174.90000915527344,-23.700000762939453
577989,2.6210625171661377,2.402740240097046,-0.2165277600288391,-0.114329993724823,0.5411620140075684,4.115880012512207,14.700000762939453,-182.10000610351562,-30.900001525878906
578009,0.8308205604553223,-0.5371323823928833,-0.05323472619056702,-0.5335400104522705,0.07621999830007553,1.2271419763565063,33.900001525878906,-179.70001220703125,-26.700000762939453
578069,0.9636083245277405,0.5760116577148438,1.1699676513671875,-1.6082419157028198,-0.6707359552383423,-0.19054999947547913,26.700000762939453,-170.10000610351562,-32.10000228881836
578089,0.91874760389328,0.19619089365005493,1.1322846412658691,-2.5686140060424805,0.5411620140075684,-1.7835479974746704,31.500001907348633,-194.10000610351562,-29.700000762939453
578130,-0.17166703939437866,-0.7680155634880066,0.7297344207763672,-1.8369019031524658,1.6692179441452026,-2.6677000522613525,36.30000305175781,-189.3000030517578,-31.500001907348633
578152,-0.8457741737365723,0.09749730676412582,0.32299721240997314,0.4420759975910187,2.446661949157715,-1.7835479974746704,31.500001907348633,-172.5,-27.30000114440918
578172,-0.23327575623989105,5.944344997406006,-0.8206521272659302,5.335400104522705,5.03814172744751,5.762231826782227,24.30000114440918,-170.10000610351562,-26.700000762939453
578192,5.422764301300049,17.752883911132812,-5.3850812911987305,8.422309875488281,15.853759765625,30.02305793762207,0.30000001192092896,-174.90000915527344,-32.70000076293945
578253,2.968583583831787,9.97941780090332,-0.6226668357849121,8.803409576416016,-7.431449890136719,-32.431610107421875,-2.1000001430511475,-170.10000610351562,-29.100000381469727
578273,3.2921788692474365,12.552030563354492,-5.634506702423096,13.300389289855957,10.32780933380127,4.939055919647217,21.900001525878906,-174.90000915527344,-22.5
578293,9.655223846435547,19.599349975585938,-8.11560344696045,-11.577817916870117,12.60678768157959,25.930044174194336,0.30000001192092896,-179.70001220703125,-22.5
578313,15.137802124023438,19.586191177368164,-8.061172485351562,0.426831990480423,-0.4039659798145294,-1.7987920045852661,-14.100000381469727,-174.90000915527344,-26.100000381469727
578333,6.103450775146484,12.236210823059082,-2.619866132736206,-0.20579399168491364,-22.00471305847168,-41.69234085083008,7.500000476837158,-162.90000915527344,-28.500001907348633
578353,-3.880751609802246,-0.8290261626243591,-1.6837724447250366,6.189064025878906,7.454315662384033,-13.818685531616211,57.900001525878906,-177.3000030517578,-21.900001525878906
578373,-0.3265860676765442,5.155394077301025,-4.806676864624023,-2.583858013153076,3.6280720233917236,9.641829490661621,50.70000076293945,-177.3000030517578,-26.100000381469727
578393,1.0413669347763062,7.947525501251221,-3.726430654525757,-4.4436259269714355,-3.0792880058288574,11.951295852661133,50.70000076293945,-174.90000915527344,-29.100000381469727
578413,2.2370548248291016,8.808253288269043,1.7824660539627075,-1.699705958366394,-6.074733734130859,1.9436099529266357,29.100000381469727,-177.3000030517578,-22.5
578433,1.809382438659668,4.680468559265137,-1.5988361835479736,2.4619059562683105,4.565577983856201,-5.640279769897461,53.10000228881836,-186.90000915527344,-26.700000762939453
578453,1.129892110824585,3.0918009281158447,-1.5886677503585815,0.800309956073761,0.28201398253440857,-1.5625100135803223,55.500003814697266,-162.90000915527344,-34.5
578473,2.0289008617401123,5.139244556427002,-0.9109717607498169,0.1448179930448532,0.33536797761917114,3.1326420307159424,43.5,-174.90000915527344,-24.30000114440918
578493,2.0157418251037598,5.275620937347412,-1.3858972787857056,0.35061198472976685,0.6250039935112,2.324709892272949,38.70000076293945,-177.3000030517578,-23.100000381469727
578513,2.1419498920440674,5.776266574859619,-0.9534398913383484,0.35061198472976685,0.38109999895095825,2.8201398849487305,41.10000228881836,-182.10000610351562,-20.700000762939453
578533,2.367449998855591,7.837467193603516,-1.3781213760375977,0.1448179930448532,1.0518360137939453,4.8018598556518555,31.500001907348633,-172.5,-25.500001907348633
578553,3.0026776790618896,10.791695594787598,-2.22987699508667,-1.5548880100250244,2.431417942047119,6.9360198974609375,36.30000305175781,-177.3000030517578,-24.30000114440918
578573,4.474109649658203,14.295019149780273,-3.183316946029663,-1.600619912147522,1.6615959405899048,6.882665634155273,24.30000114440918,-174.90000915527344,-17.700000762939453
578593,4.209132194519043,12.499393463134766,-1.939179539680481,-2.7210538387298584,-2.7058098316192627,-3.300325870513916,36.30000305175781,-162.90000915527344,-22.5
578613,2.2430360317230225,8.252578735351562,-1.21004319190979,0.8231759667396545,-1.295740008354187,-6.623517990112305,38.70000076293945,-182.10000610351562,-24.900001525878906
578633,1.612593412399292,8.446974754333496,-2.1628849506378174,-0.3125019967556,-0.6707359552383423,-0.5335400104522705,41.10000228881836,-182.10000610351562,-20.100000381469727
578653,1.9816476106643677,9.91960334777832,-1.5886677503585815,-1.1128119230270386,-1.6615959405899048,0.9756159782409668,33.900001525878906,-172.5,-27.30000114440918
578673,2.369842529296875,9.95549201965332,-1.7788771390914917,-0.09908600151538849,-0.9527499675750732,-0.46494197845458984,31.500001907348633,-179.70001220703125,-29.100000381469727
578693,2.337542772293091,8.500807762145996,-1.1286958456039429,-1.7987920045852661,-1.0442140102386475,-0.6402480006217957,45.900001525878906,-182.10000610351562,-27.30000114440918
578714,2.2370548248291016,8.217885971069336,-1.3314661979675293,-1.14329993724823,-0.5411620140075684,0.19817200303077698,24.30000114440918,-172.5,-22.5
578738,2.4458065032958984,8.186184883117676,-1.1944915056228638,-1.2576299905776978,-0.5868939757347107,0.9222619533538818,48.30000305175781,-186.90000915527344,-22.5
578758,2.4882748126983643,8.26513957977295,-1.20406174659729,-0.8460419774055481,-0.4192099869251251,1.2500079870224,33.900001525878906,-167.70001220703125,-30.30000114440918
578778,2.835197687149048,9.174915313720703,-1.2728482484817505,0.030487999320030212,-0.5259180068969727,1.6234859228134155,33.900001525878906,-182.10000610351562,-23.100000381469727
578801,2.971574306488037,9.4195556640625,-1.2830166816711426,-0.3048799932003021,-0.5259180068969727,1.2195199728012085,24.30000114440918,-186.90000915527344,-26.100000381469727
578821,2.9560225009918213,9.25506591796875,-1.1263031959533691,0.18292799592018127,-0.7012239694595337,0.8841519951820374,33.900001525878906,-174.90000915527344,-26.700000762939453
578842,3.0565106868743896,9.509875297546387,-1.1669769287109375,0.426831990480423,-0.6707359552383423,0.8841519951820374,31.500001907348633,-182.10000610351562,-28.500001907348633
578862,3.1348674297332764,9.865172386169434,-1.1813323497772217,0.1295740008354187,-0.5640279650688171,0.6097599864006042,31.500001907348633,-179.70001220703125,-31.500001907348633
578882,3.040360689163208,9.487743377685547,-1.125106930732727,-0.05335399881005287,-0.4878079891204834,-0.20579399168491364,21.900001525878906,-177.3000030517578,-24.900001525878906
578903,2.840580940246582,9.041528701782227,-1.0910128355026245,0.3125019967556,-0.44969800114631653,-0.6478700041770935,21.900001525878906,-191.70001220703125,-30.900001525878906
578923,2.9470503330230713,9.21439266204834,-1.037179946899414,0.7850660085678101,-0.4039659798145294,-0.7698220014572144,38.70000076293945,-177.3000030517578,-23.100000381469727
578943,2.9524338245391846,9.00922966003418,-0.9378882050514221,0.5259180068969727,-0.3582339882850647,-1.0289700031280518,19.5,-174.90000915527344,-27.30000114440918
579003,3.2174110412597656,8.140726089477539,-0.6944440007209778,0.39634400606155396,0.35061198472976685,-0.7088459730148315,26.700000762939453,-177.3000030517578,-30.30000114440918
579029,3.3693394660949707,7.923599720001221,-0.6489851474761963,0.4344539940357208,0.9603719711303711,-0.16768398880958557,24.30000114440918,-172.5,-23.700000762939453
579049,3.1408486366271973,7.063470363616943,-0.5425156950950623,0.08384199440479279,1.478667974472046,-0.5868939757347107,33.900001525878906,-165.3000030517578,-26.100000381469727
579092,3.0720622539520264,8.287869453430176,-2.20296049118042,2.3018438816070557,5.434485912322998,2.896359920501709,29.100000381469727,-182.10000610351562,-24.30000114440918
579112,3.69891619682312,11.981401443481445,-4.453174591064453,2.8201398849487305,8.46804141998291,5.510705947875977,26.700000762939453,-177.3000030517578,-23.100000381469727
579132,4.532727241516113,12.545450210571289,-5.648263931274414,2.3704419136047363,5.099117755889893,-0.5030519962310791,9.90000057220459,-172.5,-21.30000114440918
579152,3.1928870677948,8.811244010925293,-5.224180698394775,3.8338658809661865,-0.18292799592018127,-7.652487754821777,19.5,-174.90000915527344,-15.90000057220459
579172,2.598931312561035,7.387663841247559,-4.8808465003967285,4.00154972076416,-1.5472660064697266,-4.67990779876709,31.500001907348633,-177.3000030517578,-21.30000114440918
579192,3.3304600715637207,9.839451789855957,-4.799499034881592,1.7911700010299683,-0.6783579587936401,0.685979962348938,31.500001907348633,-174.90000915527344,-25.500001907348633
579212,3.8831441402435303,10.913716316223145,-4.710375785827637,0.5640279650688171,-0.9527499675750732,-0.7545779943466187,36.30000305175781,-177.3000030517578,-17.700000762939453
579276,2.9978926181793213,7.8231120109558105,-2.9972944259643555,-1.7987920045852661,-0.05335399881005287,-0.7850660085678101,33.900001525878906,-174.90000915527344,-19.5
579296,3.0098555088043213,7.937357425689697,-2.890825033187866,-2.14178204536438,0.6021379828453064,-0.510673999786377,53.10000228881836,-177.3000030517578,-24.900001525878906
579316,3.0176312923431396,7.431926250457764,-2.6802785396575928,-2.6295900344848633,0.8155539631843567,-0.6173819899559021,36.30000305175781,-165.3000030517578,-23.100000381469727
579336,2.9584150314331055,7.299736976623535,-2.42307710647583,-2.324709892272949,0.967993974685669,-0.2439039945602417,33.900001525878906,-162.90000915527344,-20.100000381469727
579356,3.2066445350646973,8.044425010681152,-2.685662031173706,-1.699705958366394,1.2271419763565063,0.2972579896450043,41.10000228881836,-167.70001220703125,-24.30000114440918
579380,3.3346471786499023,8.353066444396973,-2.601922035217285,-1.5320219993591309,0.6173819899559021,-0.25152599811553955,50.70000076293945,-174.90000915527344,-20.100000381469727
579400,3.514090061187744,8.51815414428711,-2.6934378147125244,-1.1051899194717407,0.6097599864006042,-0.6173819899559021,38.70000076293945,-184.5,-23.700000762939453
579420,3.743178606033325,9.09177303314209,-2.619866132736206,-1.3186060190200806,0.22103799879550934,-0.8841519951820374,55.500003814697266,-182.10000610351562,-23.100000381469727
579440,3.47281813621521,8.33272933959961,-2.7801685333251953,-1.753059983253479,0.6097599864006042,-1.981719970703125,53.10000228881836,-182.10000610351562,-18.30000114440918
579460,3.371133804321289,8.281888008117676,-2.954228162765503,-0.36585599184036255,-0.1295740008354187,-1.9131219387054443,43.5,-177.3000030517578,-22.5
579480,3.442312717437744,8.438002586364746,-2.739494800567627,-0.09908600151538849,-0.510673999786377,-1.8140360116958618,43.5,-170.10000610351562,-23.700000762939453
579502,3.3848910331726074,8.497817039489746,-2.726933717727661,0.02286599949002266,-0.4878079891204834,-1.8521459102630615,57.900001525878906,-172.5,-22.5
579522,3.341226577758789,8.418862342834473,-2.6246514320373535,-0.25152599811553955,-0.6326259970664978,-1.9512319564819336,41.10000228881836,-177.3000030517578,-27.900001525878906
579542,3.2479162216186523,8.190969467163086,-2.5056209564208984,-0.5030519962310791,-0.510673999786377,-2.0579400062561035,45.900001525878906,-167.70001220703125,-21.30000114440918
579562,3.3095250129699707,8.569594383239746,-2.4523861408233643,-0.22103799879550934,-0.22103799879550934,-1.9969639778137207,55.500003814697266,-177.3000030517578,-21.900001525878906
579582,3.8161520957946777,10.166037559509277,-2.873478889465332,0.2972579896450043,0.08384199440479279,-0.8841519951820374,55.500003814697266,-170.10000610351562,-30.900001525878906
579603,4.714562892913818,11.575860977172852,-2.6982228755950928,-1.1051899194717407,-0.6707359552383423,-0.4878079891204834,60.30000305175781,-172.5,-20.700000762939453
579623,3.6199612617492676,8.746644973754883,-1.696333408355713,-1.753059983253479,-0.5945159792900085,-4.344540119171143,67.5,-182.10000610351562,-26.100000381469727
579645,3.124100685119629,7.607780456542969,-1.5796955823898315,-0.49542999267578125,-0.4725639820098877,-2.743919849395752,57.900001525878906,-182.10000610351562,-23.100000381469727
579665,3.156400442123413,8.62881088256836,-1.114938497543335,-1.1280559301376343,-0.12195199728012085,-0.5868939757347107,53.10000228881836,-174.90000915527344,-29.100000381469727
579689,2.6336236000061035,9.69828987121582,-1.2710537910461426,-1.2652519941329956,-0.12195199728012085,-1.8597679138183594,57.900001525878906,-172.5,-30.900001525878906
579709,1.6753984689712524,8.859095573425293,-1.2435392141342163,-1.3262280225753784,-0.5182960033416748,-3.2850818634033203,81.9000015258789,-189.3000030517578,-24.30000114440918
579729,1.2525113821029663,9.61574649810791,-1.2543058395385742,-0.46494197845458984,-1.5701320171356201,-3.0106899738311768,60.30000305175781,-172.5,-26.100000381469727
579749,0.5825912356376648,9.73238468170166,-0.5658432245254517,-1.0747020244598389,-1.829279899597168,-4.28356409072876,79.5,-177.3000030517578,-26.100000381469727
579769,-0.5718246698379517,9.54995059967041,-1.4020471572875977,-0.739333987236023,-0.3125019967556,-5.030519962310791,79.5,-179.70001220703125,-23.700000762939453
579789,-1.3506067991256714,9.141419410705566,-1.6072101593017578,-0.5868939757347107,-1.5015339851379395,-5.129605770111084,79.5,-170.10000610351562,-27.30000114440918
579809,-1.7417923212051392,9.294543266296387,-1.6640337705612183,0.17530599236488342,-1.3338500261306763,-4.230209827423096,81.9000015258789,-162.90000915527344,-28.500001907348633
579829,-1.952338695526123,9.704869270324707,-1.8859448432922363,0.4344539940357208,-1.5701320171356201,-3.5747179985046387,96.30000305175781,-174.90000915527344,-23.100000381469727
579849,-2.3094301223754883,9.85081672668457,-1.8925243616104126,-0.015243999660015106,-1.6920839548110962,-3.460387945175171,89.10000610351562,-170.10000610351562,-23.700000762939453
579869,-2.549285411834717,9.63070011138916,-1.8620190620422363,0.015243999660015106,-1.4329359531402588,-3.620450019836426,86.70000457763672,-162.90000915527344,-28.500001907348633
579889,-2.554070472717285,10.13254165649414,-1.9762643575668335,0.038109999150037766,-1.3643379211425781,-3.2241058349609375,98.70000457763672,-160.5,-27.30000114440918
579909,-2.5092098712921143,10.101438522338867,-1.8973095417022705,-0.44969800114631653,-1.196653962135315,-3.353679895401001,98.70000457763672,-170.10000610351562,-26.100000381469727
579929,-2.2705507278442383,10.096055030822754,-1.8135695457458496,-0.4725639820098877,-1.2500079870224,-2.6753220558166504,108.30000305175781,-167.70001220703125,-30.30000114440918
579949,-2.098285436630249,9.801170349121094,-1.749568223953247,-0.800309956073761,-0.7240899801254272,-2.042695999145508,115.50000762939453,-162.90000915527344,-27.30000114440918
579973,-2.0905096530914307,9.131848335266113,-1.6628375053405762,-0.6173819899559021,-0.6478700041770935,-1.4405579566955566,101.10000610351562,-165.3000030517578,-18.30000114440918
579993,-1.6748002767562866,9.349573135375977,-1.4361412525177002,-0.060975998640060425,-0.7698220014572144,-0.571649968624115,117.9000015258789,-162.90000915527344,-24.30000114440918
580013,-1.3290736675262451,9.513463973999023,-1.3404383659362793,-0.060975998640060425,-0.39634400606155396,-0.7926880121231079,103.50000762939453,-172.5,-23.100000381469727
580033,-1.2531095743179321,9.20123291015625,-1.422982096672058,0,-0.20579399168491364,-1.6158639192581177,110.70000457763672,-167.70001220703125,-28.500001907348633
580053,-1.0407687425613403,8.828590393066406,-1.1950896978378296,0.4725639820098877,-0.5030519962310791,-2.1036720275878906,110.70000457763672,-170.10000610351562,-23.700000762939453
580074,-0.7464824318885803,9.274805068969727,-1.1897063255310059,0.8307979702949524,-0.2439039945602417,-1.8597679138183594,108.30000305175781,-162.90000915527344,-30.900001525878906
580094,-0.8511574268341064,9.058277130126953,-1.3649622201919556,0.49542999267578125,0.20579399168491364,-2.134160041809082,117.9000015258789,-172.5,-30.30000114440918
580114,-0.9875340461730957,8.826197624206543,-1.3392421007156372,0.7164679765701294,-0.007621999830007553,-2.0198299884796143,117.9000015258789,-167.70001220703125,-24.900001525878906
580178,-0.36307278275489807,9.299328804016113,-1.4857871532440186,0.6631140112876892,0.9298839569091797,-1.2347639799118042,105.9000015258789,-158.10000610351562,-26.100000381469727
580198,-0.38460594415664673,9.3238525390625,-1.6161823272705078,0.6554920077323914,1.3795819282531738,-1.1204339265823364,117.9000015258789,-155.70001220703125,-25.500001907348633
580218,-0.36307278275489807,9.397424697875977,-1.85244882106781,0.5792719721794128,1.8140360116958618,-0.9908599853515625,120.30000305175781,-174.90000915527344,-21.900001525878906
580238,-0.4515979290008545,9.369909286499023,-1.9325999021530151,0.5640279650688171,1.935987949371338,-0.7240899801254272,134.70001220703125,-170.10000610351562,-29.100000381469727
580258,-0.41690564155578613,9.476977348327637,-2.1898014545440674,0.7621999979019165,2.195136070251465,-0.2896359860897064,120.30000305175781,-167.70001220703125,-23.700000762939453
580278,-0.18781688809394836,9.5152587890625,-2.19996976852417,0.7850660085678101,1.9893419742584229,-0.38109999895095825,117.9000015258789,-158.10000610351562,-26.100000381469727
580298,-0.32000648975372314,9.3956298828125,-2.307037353515625,0.9756159782409668,2.332331895828247,-0.19817200303077698,132.3000030517578,-160.5,-23.100000381469727
580318,-0.41570937633514404,9.270617485046387,-2.42905855178833,0.8765299916267395,2.3628199100494385,0.2896359860897064,117.9000015258789,-153.3000030517578,-18.30000114440918
580338,-0.17106889188289642,9.35675048828125,-2.387786626815796,1.3186060190200806,2.2713558673858643,0.7317119836807251,120.30000305175781,-170.10000610351562,-24.900001525878906
580358,-0.521580696105957,9.333422660827637,-2.5762016773223877,1.0594580173492432,2.743919849395752,0.7164679765701294,125.10000610351562,-170.10000610351562,-26.100000381469727
580379,-0.6717145442962646,8.846534729003906,-2.980546474456787,1.4100699424743652,3.3155698776245117,0.9070180058479309,120.30000305175781,-160.5,-21.30000114440918
580399,-0.708799421787262,8.85371208190918,-3.3256750106811523,1.9893419742584229,2.294221878051758,1.8521459102630615,129.90000915527344,-160.5,-18.30000114440918
580419,-0.31581950187683105,9.240711212158203,-3.0331830978393555,1.6387299299240112,1.5396440029144287,2.5609920024871826,113.10000610351562,-155.70001220703125,-20.700000762939453
580441,0.04904772341251373,9.134839057922363,-3.159989356994629,1.4329359531402588,1.7911700010299683,2.1189160346984863,115.50000762939453,-153.3000030517578,-20.100000381469727
580461,0.21413518488407135,8.75621509552002,-3.0630900859832764,1.14329993724823,1.371959924697876,2.073184013366699,103.50000762939453,-167.70001220703125,-21.900001525878906
580481,0.6920514106750488,8.947022438049316,-2.9440596103668213,1.1280559301376343,1.2804960012435913,2.39330792427063,105.9000015258789,-165.3000030517578,-21.900001525878906
580504,1.0981905460357666,9.248486518859863,-3.063688278198242,0.8307979702949524,1.471045970916748,2.2713558673858643,113.10000610351562,-158.10000610351562,-20.700000762939453
580528,1.3171107769012451,9.147400856018066,-3.1408486366271973,0.739333987236023,1.7759259939193726,2.126538038253784,113.10000610351562,-182.10000610351562,-14.700000762939453
580570,1.7567459344863892,9.02119255065918,-3.4351351261138916,0.9222619533538818,1.4939119815826416,1.2195199728012085,93.9000015258789,-170.10000610351562,-17.700000762939453
580590,1.733418345451355,8.875245094299316,-3.4153964519500732,0.9375059604644775,1.6844619512557983,1.2042759656906128,93.9000015258789,-165.3000030517578,-18.30000114440918
580610,1.6389117240905762,9.26224422454834,-3.8317039012908936,1.021347999572754,2.088428020477295,1.4405579566955566,93.9000015258789,-165.3000030517578,-12.300000190734863
580650,2.164679527282715,8.75920581817627,-3.552969217300415,0.41158798336982727,0.015243999660015106,-0.8079319596290588,93.9000015258789,-170.10000610351562,-12.300000190734863
580670,2.7682056427001953,8.2681303024292,-3.2269814014434814,0.10670799762010574,0.5335400104522705,0.457319974899292,89.10000610351562,-155.70001220703125,-19.5
580690,2.205353021621704,8.461928367614746,-3.529043436050415,-0.39634400606155396,1.4405579566955566,1.0594580173492432,81.9000015258789,-165.3000030517578,-18.30000114440918
580710,2.595940589904785,8.602492332458496,-3.443509101867676,0.09146399796009064,0.3582339882850647,0.6250039935112,89.10000610351562,-150.90000915527344,-18.900001525878906
580771,4.142738342285156,8.96735954284668,-3.0684733390808105,-1.4405579566955566,-2.4771499633789062,1.1204339265823364,74.70000457763672,-160.5,-18.30000114440918
580791,3.344217300415039,8.48226547241211,-2.856132745742798,-1.3033620119094849,0.2439039945602417,0.2896359860897064,79.5,-158.10000610351562,-12.90000057220459
580811,3.070267915725708,8.835169792175293,-2.986527919769287,-0.800309956073761,0.05335399881005287,0.7850660085678101,81.9000015258789,-160.5,-17.100000381469727
580831,3.008060932159424,9.09177303314209,-3.479397773742676,-1.806414008140564,-0.5411620140075684,0.19817200303077698,84.30000305175781,-162.90000915527344,-20.100000381469727
580851,3.251505136489868,8.253774642944336,-2.7699999809265137,-0.8993960022926331,-1.1128119230270386,-1.021347999572754,86.70000457763672,-153.3000030517578,-15.90000057220459
580871,3.3908724784851074,8.630006790161133,-2.390179395675659,-1.2576299905776978,-0.4192099869251251,0.13719600439071655,86.70000457763672,-167.70001220703125,-17.100000381469727
580892,2.9380781650543213,8.606081008911133,-2.7287282943725586,0.41158798336982727,1.2500079870224,0.04573199898004532,93.9000015258789,-165.3000030517578,-20.100000381469727
580913,2.7089896202087402,8.569594383239746,-2.7849535942077637,0.6097599864006042,1.8369019031524658,-0.007621999830007553,91.5,-155.70001220703125,-17.700000762939453
580933,2.9913129806518555,8.637184143066406,-2.906376600265503,1.1814099550247192,2.5609920024871826,0.2972579896450043,77.10000610351562,-155.70001220703125,-18.30000114440918
580953,3.3424229621887207,9.078614234924316,-3.1372599601745605,1.2347639799118042,2.179892063140869,1.0899460315704346,91.5,-162.90000915527344,-18.30000114440918
580975,3.067875385284424,9.252673149108887,-3.1426432132720947,0.6097599864006042,1.5320219993591309,0.739333987236023,89.10000610351562,-162.90000915527344,-16.5
580996,2.9039840698242188,8.95838737487793,-3.060697555541992,0.46494197845458984,0.3125019967556,0.3201240003108978,77.10000610351562,-167.70001220703125,-15.300000190734863
581016,2.649773359298706,8.692811965942383,-2.5773980617523193,-0.5411620140075684,0.12195199728012085,0.12195199728012085,77.10000610351562,-155.70001220703125,-14.700000762939453
581036,2.280121088027954,9.468005180358887,-2.923722743988037,0.07621999830007553,1.196653962135315,0.44969800114631653,93.9000015258789,-167.70001220703125,-14.100000381469727
581058,2.2454288005828857,9.46621036529541,-3.115128517150879,-1.189031958580017,1.3948259353637695,-0.8765299916267395,91.5,-150.90000915527344,-13.500000953674316
581078,1.8775707483291626,8.985901832580566,-2.766411304473877,-2.0579400062561035,-0.114329993724823,-1.0594580173492432,79.5,-162.90000915527344,-17.700000762939453
581098,1.220809817314148,9.361536026000977,-2.3566832542419434,-2.5228819847106934,0.3582339882850647,-0.8765299916267395,81.9000015258789,-158.10000610351562,-11.100000381469727
581119,0.9815526008605957,9.427929878234863,-2.3835997581481934,-2.134160041809082,1.1356779336929321,-1.2804960012435913,81.9000015258789,-160.5,-19.5
581139,0.11544159054756165,9.230542182922363,-2.646782636642456,-1.806414008140564,1.0747020244598389,-1.1051899194717407,89.10000610351562,-160.5,-20.700000762939453
581159,0.0041870009154081345,9.83885383605957,-2.8776657581329346,-2.1722700595855713,-0.48018598556518555,-0.2439039945602417,79.5,-174.90000915527344,-15.90000057220459
581180,-1.015048623085022,9.494921684265137,-2.345916748046875,-2.484771966934204,-4.329296112060547,-1.1051899194717407,113.10000610351562,-162.90000915527344,-18.30000114440918
581200,-1.3918787240982056,9.43630313873291,-2.3112244606018066,-1.7378159761428833,-4.878079891204834,-0.8460419774055481,96.30000305175781,-153.3000030517578,-17.100000381469727
581220,-2.074958086013794,9.646849632263184,-2.8208422660827637,-0.23628199100494385,-8.00309944152832,-2.2561118602752686,93.9000015258789,-160.5,-18.30000114440918
581240,-1.724446177482605,9.857396125793457,-3.070866107940674,1.1128119230270386,-14.382713317871094,-6.036623954772949,98.70000457763672,-158.10000610351562,-18.900001525878906
581260,-0.36725977063179016,11.288752555847168,-2.474517583847046,-11.204339981079102,8.064075469970703,11.432999610900879,103.50000762939453,-172.5,-29.100000381469727
581280,-2.942265272140503,6.523945331573486,3.589456081390381,-7.896391868591309,-2.7134318351745605,-3.414655923843384,108.30000305175781,-177.3000030517578,-19.5
581300,-3.0780436992645264,9.04691219329834,-5.285789489746094,0.6631140112876892,2.888737916946411,5.327777862548828,91.5,-172.5,-25.500001907348633
581321,-1.1203217506408691,11.180488586425781,-2.2855043411254883,-1.1280559301376343,-4.961921691894531,4.4436259269714355,96.30000305175781,-172.5,-20.100000381469727
581341,-1.8871411085128784,9.66359806060791,-0.9994968771934509,-0.8841519951820374,-3.407033920288086,0.342989981174469,91.5,-174.90000915527344,-23.700000762939453
581362,-1.531844139099121,9.031360626220703,-2.5678277015686035,1.2042759656906128,-0.26677000522613525,0.853663980960846,86.70000457763672,-172.5,-19.5
581382,-1.2046599388122559,8.838160514831543,-1.7974196672439575,-0.5335400104522705,-3.551851987838745,1.9740979671478271,91.5,-167.70001220703125,-23.700000762939453
581422,-0.36905422806739807,9.21319580078125,-1.6789872646331787,-0.35061198472976685,-0.9298839569091797,2.8811159133911133,91.5,-150.90000915527344,-25.500001907348633
581442,0.060412440448999405,9.29693603515625,-1.3123257160186768,-0.6554920077323914,-0.7469559907913208,2.8658719062805176,74.70000457763672,-179.70001220703125,-23.100000381469727
581462,0.3989613652229309,9.3358154296875,-1.2704557180404663,-0.853663980960846,0.342989981174469,2.690565824508667,79.5,-172.5,-19.5
581482,0.6262556910514832,9.52901554107666,-1.4361412525177002,-0.8993960022926331,0.967993974685669,2.28659987449646,72.30000305175781,-170.10000610351562,-18.900001525878906
581502,0.5209825038909912,9.312487602233887,-1.526460886001587,-0.5564059615135193,1.471045970916748,1.5548880100250244,65.10000610351562,-172.5,-18.900001525878906
581522,0.9540380239486694,9.45723819732666,-1.6610430479049683,-0.08384199440479279,1.1204339265823364,1.5091559886932373,74.70000457763672,-170.10000610351562,-25.500001907348633
581542,0.9618139266967773,8.936854362487793,-1.3045498132705688,-0.3582339882850647,1.0975680351257324,0.8460419774055481,72.30000305175781,-179.70001220703125,-19.5
581562,1.0736666917800903,8.628211975097656,-1.6765947341918945,0.228659987449646,1.7149499654769897,0.9908599853515625,65.10000610351562,-165.3000030517578,-20.100000381469727
581586,1.2925869226455688,8.577370643615723,-1.8016066551208496,0.15243999660015106,1.295740008354187,1.2347639799118042,72.30000305175781,-162.90000915527344,-28.500001907348633
581607,1.4816001653671265,8.526528358459473,-1.9804513454437256,0.571649968624115,1.4481799602508545,1.021347999572754,65.10000610351562,-153.3000030517578,-28.500001907348633
581627,2.0103585720062256,8.86388111114502,-2.307635545730591,0.9222619533538818,1.013725996017456,1.1737879514694214,74.70000457763672,-179.70001220703125,-25.500001907348633
581647,2.4613583087921143,9.092370986938477,-2.2346620559692383,0.6097599864006042,0.8765299916267395,0.8689079880714417,72.30000305175781,-184.5,-24.30000114440918
581669,3.4381258487701416,10.33471393585205,-3.097184419631958,1.3109840154647827,2.14178204536438,0.967993974685669,65.10000610351562,-174.90000915527344,-24.900001525878906
581689,3.753347158432007,10.450156211853027,-3.505715847015381,1.14329993724823,1.1356779336929321,-0.4039659798145294,69.9000015258789,-170.10000610351562,-18.30000114440918
581710,3.555361747741699,10.033249855041504,-3.5511748790740967,1.882633924484253,-0.09908600151538849,-1.4024479389190674,60.30000305175781,-174.90000915527344,-18.900001525878906
581730,3.460257053375244,9.531408309936523,-3.4351351261138916,1.6158639192581177,-1.2576299905776978,-2.0198299884796143,67.5,-170.10000610351562,-20.100000381469727
581754,3.076847553253174,8.21728801727295,-3.0056684017181396,1.6082419157028198,-1.5167779922485352,-3.1173980236053467,67.5,-172.5,-25.500001907348633
581774,3.034379243850708,7.984012603759766,-2.842973470687866,1.5091559886932373,-1.7225719690322876,-2.088428020477295,57.900001525878906,-172.5,-17.100000381469727
581794,2.956620693206787,7.968460559844971,-2.614482879638672,0.3048799932003021,-1.14329993724823,-2.134160041809082,74.70000457763672,-174.90000915527344,-16.5
581814,2.7251393795013428,7.6801557540893555,-2.7622241973876953,0.5868939757347107,-0.38109999895095825,-2.896359920501709,67.5,-162.90000915527344,-18.900001525878906
581834,3.0242109298706055,7.866178035736084,-2.8573288917541504,0.3582339882850647,-0.6478700041770935,-2.3094658851623535,79.5,-165.3000030517578,-24.30000114440918
581854,3.2323646545410156,8.1365385055542,-2.6892507076263428,-0.030487999320030212,-0.6326259970664978,-1.8597679138183594,77.10000610351562,-170.10000610351562,-19.5
581874,2.9877240657806396,7.61196756362915,-2.7197561264038086,-0.060975998640060425,-0.3887220025062561,-2.1570260524749756,67.5,-165.3000030517578,-18.30000114440918
581894,3.0858194828033447,7.862589359283447,-3.051725387573242,0.8384199738502502,0,-1.1051899194717407,65.10000610351562,-174.90000915527344,-21.30000114440918
581918,3.1581947803497314,8.96436882019043,-3.189896583557129,0.41158798336982727,-0.685979962348938,-0.6402480006217957,74.70000457763672,-172.5,-20.700000762939453
581938,3.114530563354492,8.868067741394043,-3.5122954845428467,0.6097599864006042,-0.22103799879550934,-0.5945159792900085,72.30000305175781,-177.3000030517578,-26.100000381469727
581958,3.0744547843933105,8.858497619628906,-3.547585964202881,0.7774440050125122,-0.7469559907913208,-0.8460419774055481,77.10000610351562,-165.3000030517578,-18.900001525878906
581979,2.7071950435638428,9.04691219329834,-3.4153964519500732,0.5640279650688171,-1.1356779336929321,-0.48018598556518555,101.10000610351562,-162.90000915527344,-22.5
581999,2.363262891769409,8.814234733581543,-3.380704164505005,0.13719600439071655,-1.2195199728012085,-0.9756159782409668,81.9000015258789,-174.90000915527344,-18.30000114440918
582019,1.420589566230774,8.415273666381836,-3.1019694805145264,0.2134159952402115,-1.4939119815826416,-1.3948259353637695,81.9000015258789,-162.90000915527344,-19.5
582041,0.9953098893165588,10.00513744354248,-3.41001296043396,0.7240899801254272,-1.1814099550247192,-0.5487840175628662,89.10000610351562,-165.3000030517578,-19.5
582062,0.9971043467521667,11.298322677612305,-3.46384596824646,-0.35061198472976685,-1.6311079263687134,-1.2347639799118042,79.5,-174.90000915527344,-23.100000381469727
582082,0.8559426069259644,10.268918991088867,-2.6958303451538086,-1.3567159175872803,-2.4161739349365234,-3.4298999309539795,77.10000610351562,-170.10000610351562,-18.900001525878906
582104,0.15372274816036224,8.79808521270752,-1.9170482158660889,-1.3186060190200806,-1.2271419763565063,-3.85673189163208,98.70000457763672,-174.90000915527344,-29.700000762939453
582124,0.25660333037376404,10.26114273071289,-2.2226991653442383,-1.5701320171356201,0.18292799592018127,-1.600619912147522,77.10000610351562,-162.90000915527344,-18.30000114440918
582144,-0.3206046223640442,9.60079288482666,-2.012152910232544,-2.2637338638305664,1.478667974472046,-2.797273874282837,89.10000610351562,-172.5,-18.30000114440918
582164,-0.8936256170272827,8.839356422424316,-2.0647895336151123,-1.2652519941329956,1.471045970916748,-2.850627899169922,98.70000457763672,-170.10000610351562,-23.100000381469727
582184,-1.143051266670227,8.879432678222656,-2.0342843532562256,-0.8079319596290588,1.4329359531402588,-1.6311079263687134,89.10000610351562,-167.70001220703125,-26.700000762939453
582204,-1.0347872972488403,8.682642936706543,-2.0187325477600098,-0.7926880121231079,1.2804960012435913,-1.2500079870224,101.10000610351562,-165.3000030517578,-12.90000057220459
582224,-0.9271215796470642,8.417067527770996,-1.8841503858566284,0.09908600151538849,0.6707359552383423,-0.457319974899292,110.70000457763672,-174.90000915527344,-18.30000114440918
582244,-0.7841654419898987,8.565407752990723,-1.7764846086502075,-0.13719600439071655,0.38109999895095825,0.3887220025062561,98.70000457763672,-172.5,-25.500001907348633
582264,-0.6669294238090515,8.275906562805176,-1.758540391921997,-0.05335399881005287,0.48018598556518555,0.16768398880958557,105.9000015258789,-158.10000610351562,-17.100000381469727
582284,-0.1782466024160385,8.621034622192383,-1.8865429162979126,-0.1600620001554489,0.5030519962310791,0.6478700041770935,105.9000015258789,-170.10000610351562,-24.900001525878906
582304,0.2266961932182312,8.680849075317383,-2.1945865154266357,-0.17530599236488342,0.33536797761917114,0.2896359860897064,93.9000015258789,-167.70001220703125,-16.5
582328,0.5706284046173096,9.034351348876953,-2.3501036167144775,0.5259180068969727,0.2439039945602417,0.3277460038661957,98.70000457763672,-158.10000610351562,-14.700000762939453
582348,0.7076031565666199,9.292749404907227,-2.345318555831909,0.426831990480423,0.08384199440479279,-0.16768398880958557,96.30000305175781,-179.70001220703125,-21.900001525878906
582368,0.6729108691215515,9.25028133392334,-2.3291687965393066,0.2896359860897064,0.33536797761917114,-0.9222619533538818,98.70000457763672,-162.90000915527344,-23.100000381469727
582388,0.28770676255226135,9.777244567871094,-3.0182294845581055,0.7088459730148315,1.2804960012435913,-1.1051899194717407,91.5,-167.70001220703125,-18.900001525878906
582408,0.034094151109457016,9.399816513061523,-3.4441072940826416,0.6783579587936401,0.914639949798584,-2.0655620098114014,101.10000610351562,-167.70001220703125,-26.100000381469727
582428,0.2721550464630127,9.797581672668457,-3.4979400634765625,1.1814099550247192,-0.4878079891204834,-1.600619912147522,96.30000305175781,-158.10000610351562,-20.100000381469727
582449,0.11424531042575836,9.890892028808594,-3.3436191082000732,0.7774440050125122,-0.4039659798145294,-2.042695999145508,96.30000305175781,-162.90000915527344,-17.100000381469727
582469,-0.10646945238113403,9.15457820892334,-3.606802225112915,0.8384199738502502,-0.06859800219535828,-2.4161739349365234,101.10000610351562,-155.70001220703125,-26.100000381469727
582490,-0.3295767903327942,8.64077377319336,-3.6115872859954834,1.196653962135315,-0.28201398253440857,-2.187514066696167,113.10000610351562,-167.70001220703125,-20.100000381469727
582511,-0.32598790526390076,8.661109924316406,-3.6385037899017334,1.1661659479141235,-0.510673999786377,-1.0747020244598389,105.9000015258789,-158.10000610351562,-24.30000114440918
582531,-0.026318291202187538,9.252673149108887,-3.5541656017303467,0.8307979702949524,-0.4192099869251251,0.08384199440479279,113.10000610351562,-160.5,-13.500000953674316
582551,0.6657330989837646,10.16543960571289,-3.7132716178894043,0.4878079891204834,0.19054999947547913,1.3643379211425781,98.70000457763672,-172.5,-24.900001525878906
582572,0.8403908610343933,9.84483528137207,-3.749160051345825,-0.8460419774055481,-0.426831990480423,0.36585599184036255,101.10000610351562,-160.5,-14.700000762939453
582592,0.617881715297699,7.952908992767334,-2.843571662902832,-0.4420759975910187,-0.9222619533538818,0.6554920077323914,108.30000305175781,-148.5,-16.5
582612,1.105966329574585,8.84773063659668,-2.7819628715515137,-0.6478700041770935,-0.7774440050125122,1.806414008140564,110.70000457763672,-170.10000610351562,-24.30000114440918
582632,1.205856204032898,9.85560131072998,-2.536724328994751,-1.699705958366394,-0.41158798336982727,1.013725996017456,115.50000762939453,-162.90000915527344,-17.100000381469727
582652,0.8074930310249329,8.62761402130127,-2.649773359298706,-1.4634239673614502,0.6707359552383423,-0.8384199738502502,103.50000762939453,-165.3000030517578,-17.100000381469727
582675,0.6083114147186279,8.900965690612793,-2.5762016773223877,-0.6478700041770935,0.23628199100494385,-0.17530599236488342,110.70000457763672,-162.90000915527344,-18.900001525878906
582695,0.31701576709747314,8.825599670410156,-2.4153013229370117,-0.8993960022926331,0.38109999895095825,-0.7088459730148315,103.50000762939453,-167.70001220703125,-26.100000381469727
582715,0.20815375447273254,8.56779956817627,-2.5116024017333984,-0.7698220014572144,0.7469559907913208,-0.6173819899559021,113.10000610351562,-160.5,-14.700000762939453
582735,0.22549989819526672,8.945826530456543,-2.6545584201812744,-0.44969800114631653,1.0061039924621582,-0.09908600151538849,101.10000610351562,-162.90000915527344,-15.300000190734863
582756,0.18602246046066284,9.011622428894043,-2.8064868450164795,-0.35061198472976685,1.3567159175872803,-0.25152599811553955,98.70000457763672,-160.5,-20.700000762939453
582776,0.26557546854019165,8.91950798034668,-3.0158369541168213,0.19054999947547913,1.0975680351257324,-0.13719600439071655,110.70000457763672,-160.5,-28.500001907348633
582796,0.3283804953098297,8.831581115722656,-2.8543381690979004,0.22103799879550934,0.510673999786377,0.2134159952402115,113.10000610351562,-158.10000610351562,-21.900001525878906
582816,0.24822933971881866,8.930872917175293,-2.804692506790161,0.4344539940357208,0.9070180058479309,0.46494197845458984,101.10000610351562,-167.70001220703125,-21.30000114440918
582836,0.3852040767669678,9.305310249328613,-3.020023822784424,0.7850660085678101,1.3033620119094849,0.6173819899559021,101.10000610351562,-160.5,-24.900001525878906
582876,0.7548564076423645,9.447070121765137,-3.201261281967163,0.25152599811553955,0.10670799762010574,0.510673999786377,105.9000015258789,-165.3000030517578,-15.90000057220459
582896,0.256005197763443,9.227551460266113,-2.9889204502105713,-0.19817200303077698,-0.2896359860897064,0.3125019967556,103.50000762939453,-167.70001220703125,-21.30000114440918
582938,0.43484994769096375,9.337610244750977,-3.040958881378174,-0.4420759975910187,-0.10670799762010574,-0.4039659798145294,103.50000762939453,-174.90000915527344,-15.90000057220459
582958,0.5473008155822754,8.905152320861816,-3.020023822784424,-0.571649968624115,-0.1600620001554489,-0.7545779943466187,96.30000305175781,-165.3000030517578,-18.30000114440918
582979,0.32718420028686523,8.778346061706543,-2.819645881652832,-0.6478700041770935,-0.5335400104522705,-0.3887220025062561,103.50000762939453,-150.90000915527344,-15.300000190734863
583002,0.4797106683254242,9.412976264953613,-2.8214404582977295,-1.0518360137939453,0.19054999947547913,-0.49542999267578125,108.30000305175781,-162.90000915527344,-11.700000762939453
583043,0.4868883788585663,8.795692443847656,-2.6132867336273193,-0.8384199738502502,0.22103799879550934,-0.48018598556518555,103.50000762939453,-165.3000030517578,-20.100000381469727
583065,0.5335435271263123,9.16953182220459,-2.7030081748962402,-0.6250039935112,0.9298839569091797,0.09908600151538849,101.10000610351562,-167.70001220703125,-17.100000381469727
583105,0.5496934056282043,9.258654594421387,-2.851945638656616,-0.2743920087814331,0.3887220025062561,-0.3582339882850647,98.70000457763672,-170.10000610351562,-23.100000381469727
583125,0.6292464137077332,9.04392147064209,-2.7849535942077637,-0.35061198472976685,0.342989981174469,-0.6783579587936401,101.10000610351562,-162.90000915527344,-23.100000381469727
583145,0.5389268398284912,8.73228931427002,-2.777776002883911,-0.23628199100494385,0.38109999895095825,-0.5564059615135193,98.70000457763672,-155.70001220703125,-17.100000381469727
583168,0.4384388029575348,9.06186580657959,-2.8214404582977295,-0.2972579896450043,0.4192099869251251,-0.3277460038661957,91.5,-165.3000030517578,-14.700000762939453
583189,0.061010584235191345,9.08100700378418,-3.0505292415618896,-0.6326259970664978,0.23628199100494385,-0.9070180058479309,110.70000457763672,-160.5,-21.900001525878906
583209,0.03768300637602806,8.871058464050293,-3.0834269523620605,-0.5182960033416748,-0.007621999830007553,-1.2804960012435913,101.10000610351562,-174.90000915527344,-14.700000762939453
583230,0.5544785261154175,9.16654109954834,-2.902787923812866,-0.8841519951820374,-1.0823240280151367,-0.8384199738502502,113.10000610351562,-165.3000030517578,-20.100000381469727
583291,0.43066293001174927,8.94941520690918,-2.8920211791992188,-0.7088459730148315,0.6250039935112,0.18292799592018127,113.10000610351562,-162.90000915527344,-21.900001525878906
583311,0.43784064054489136,9.341198921203613,-2.8746750354766846,-0.6326259970664978,0.04573199898004532,-0.426831990480423,108.30000305175781,-158.10000610351562,-20.100000381469727
583331,0.5437119603157043,9.09775447845459,-2.6778860092163086,-0.5182960033416748,-0.015243999660015106,-1.3643379211425781,105.9000015258789,-170.10000610351562,-20.100000381469727
583351,0.7476786971092224,8.871058464050293,-2.659343719482422,-0.07621999830007553,-0.1448179930448532,-0.853663980960846,103.50000762939453,-162.90000915527344,-23.700000762939453
583411,0.5790023803710938,9.32684326171875,-2.2938783168792725,-0.6402480006217957,0.5259180068969727,-0.457319974899292,117.9000015258789,-172.5,-19.5
583431,0.2488274723291397,9.06485652923584,-2.0558173656463623,-0.1448179930448532,0.4420759975910187,-0.9908599853515625,110.70000457763672,-167.70001220703125,-24.30000114440918
583452,0.2147333323955536,9.408788681030273,-1.749568223953247,0.4192099869251251,0.22103799879550934,-0.5792719721794128,110.70000457763672,-162.90000915527344,-27.30000114440918
583472,0.04725329577922821,9.682738304138184,-1.5103110074996948,0.33536797761917114,-0.09146399796009064,-0.5945159792900085,105.9000015258789,-170.10000610351562,-25.500001907348633
583492,0.052038438618183136,9.473986625671387,-1.0772554874420166,0.07621999830007553,-0.6631140112876892,-0.4039659798145294,108.30000305175781,-160.5,-21.30000114440918
583512,-0.21951846778392792,8.992481231689453,-0.362474650144577,-0.5868939757347107,-1.371959924697876,0.02286599949002266,117.9000015258789,-160.5,-22.5
583532,-0.3235953450202942,8.729896545410156,-0.29189378023147583,0.09146399796009064,-1.196653962135315,0.6021379828453064,110.70000457763672,-165.3000030517578,-21.900001525878906
583552,-0.15850788354873657,8.86687183380127,-0.0735715851187706,0.8612859845161438,-1.9740979671478271,1.3186060190200806,103.50000762939453,-158.10000610351562,-15.300000190734863
583572,-0.23207947611808777,8.728700637817383,0.12202116847038269,0.9984819889068604,-3.650938034057617,1.1585439443588257,115.50000762939453,-160.5,-16.5
583592,-0.596946656703949,7.813541412353516,0.11424531042575836,1.2500079870224,-5.282045841217041,0.8993960022926331,103.50000762939453,-167.70001220703125,-18.30000114440918
583612,-0.6232649683952332,7.133452892303467,0.18602246046066284,1.2500079870224,-8.117429733276367,1.0899460315704346,101.10000610351562,-158.10000610351562,-20.100000381469727
583632,-0.008374001830816269,6.824213027954102,0.34094148874282837,1.7835479974746704,-11.128119468688965,1.1128119230270386,98.70000457763672,-158.10000610351562,-22.5
583652,0.020935004577040672,5.601608753204346,0.5245713591575623,1.6387299299240112,-13.521428108215332,0.2134159952402115,115.50000762939453,-167.70001220703125,-21.30000114440918
583672,0.5161973834037781,4.195374965667725,0.5760116577148438,2.187514066696167,-15.808027267456055,-0.19054999947547913,113.10000610351562,-162.90000915527344,-21.900001525878906
583692,1.3183071613311768,3.2861974239349365,0.9319067597389221,2.888737916946411,-16.654069900512695,-0.3887220025062561,105.9000015258789,-150.90000915527344,-20.700000762939453
583712,1.7633254528045654,3.073258638381958,0.179442897439003,3.9253299236297607,-15.548879623413086,-0.3582339882850647,110.70000457763672,-170.10000610351562,-22.5
583732,2.205353021621704,3.4153964519500732,-0.5927596688270569,3.765267848968506,-14.474177360534668,-1.2881180047988892,122.70000457763672,-170.10000610351562,-21.30000114440918
583752,2.2197086811065674,3.3705356121063232,-0.9594213366508484,3.407033920288086,-13.170815467834473,-1.8978779315948486,115.50000762939453,-158.10000610351562,-22.5
583772,1.7836623191833496,3.2628698348999023,-1.7734938859939575,2.9725799560546875,-10.472627639770508,-3.5899620056152344,120.30000305175781,-160.5,-24.30000114440918
583814,1.5761067867279053,3.0511271953582764,-3.5422027111053467,1.6311079263687134,-4.733262062072754,-6.920775890350342,120.30000305175781,-165.3000030517578,-15.300000190734863
583834,1.2596890926361084,2.3590757846832275,-5.338426113128662,3.4298999309539795,0.49542999267578125,-7.240900039672852,122.70000457763672,-162.90000915527344,-23.100000381469727
583894,-0.37144678831100464,6.985113620758057,-7.723222255706787,1.0289700031280518,2.492393970489502,-10.807995796203613,132.3000030517578,-141.3000030517578,-21.900001525878906
583914,-1.3380458354949951,6.639985084533691,-9.110913276672363,2.888737916946411,6.5320539474487305,-11.798855781555176,163.5,-150.90000915527344,-18.900001525878906
583934,-0.9444677233695984,7.182500839233398,-10.393930435180664,0.8993960022926331,5.510705947875977,-11.608305931091309,156.3000030517578,-124.50000762939453,-23.700000762939453
583954,-1.2441374063491821,6.929486274719238,-9.73417854309082,-1.4100699424743652,1.2118979692459106,-11.96653938293457,161.10000610351562,-138.90000915527344,-19.5
583974,-1.8051954507827759,8.705970764160156,-8.838160514831543,-0.7469559907913208,1.5853760242462158,-9.763781547546387,175.5,-129.3000030517578,-18.900001525878906
583994,-3.570315361022949,9.137231826782227,-8.737074851989746,-1.5701320171356201,12.256175994873047,-12.515323638916016,197.10000610351562,-126.9000015258789,-17.700000762939453
584014,-4.169654846191406,7.972647666931152,-9.531408309936523,0.4878079891204834,17.28669548034668,-13.03361988067627,209.10000610351562,-110.10000610351562,-11.700000762939453
584035,-4.55246639251709,7.827897071838379,-13.370887756347656,3.1859958171844482,21.981847763061523,-7.865903854370117,206.70001220703125,-105.30000305175781,-11.100000381469727
584055,-2.0761542320251465,11.258247375488281,-13.69388484954834,0.16768398880958557,10.617445945739746,-4.436003684997559,216.3000030517578,-105.30000305175781,-15.300000190734863
584077,-5.136253833770752,12.229033470153809,-11.292939186096191,-2.903981924057007,7.294253826141357,-6.082355976104736,209.10000610351562,-93.30000305175781,-15.90000057220459
584098,-6.072945594787598,12.746426582336426,-11.432306289672852,-1.5320219993591309,16.326324462890625,-7.1875457763671875,206.70001220703125,-100.50000762939453,-8.100000381469727
584138,-8.013320922851562,9.855003356933594,-12.711734771728516,-2.492393970489502,17.78974723815918,-9.115911483764648,225.90000915527344,-95.70000457763672,-2.700000047683716
584158,-8.068350791931152,12.249369621276855,-13.0706205368042,-3.399411916732788,14.641861915588379,-5.579303741455078,209.10000610351562,-66.9000015258789,-6.900000095367432
584178,-7.388261795043945,12.839138984680176,-11.904241561889648,-5.373509883880615,8.094563484191895,-7.118947982788086,206.70001220703125,-74.10000610351562,-6.900000095367432
584198,-9.54097843170166,11.458026885986328,-9.21319580078125,-6.669250011444092,4.17685604095459,-8.208893775939941,228.3000030517578,-81.30000305175781,-3.3000001907348633
584240,-7.672379970550537,14.746018409729004,-10.878426551818848,-4.618931770324707,14.611373901367188,-1.2042759656906128,221.10000610351562,-69.30000305175781,0.30000001192092896
584260,-9.604979515075684,13.076003074645996,-8.673072814941406,-9.847623825073242,2.8277618885040283,-4.900945663452148,223.50001525878906,-76.5,0.9000000357627869
584280,-9.646251678466797,12.736856460571289,-7.006646633148193,-7.3399858474731445,6.554919719696045,1.1737879514694214,211.50001525878906,-86.10000610351562,-3.3000001907348633
584300,-8.1664457321167,13.321840286254883,-5.733798503875732,-10.472627639770508,-1.14329993724823,1.646351933479309,218.70001220703125,-83.70000457763672,-2.1000001430511475
584320,-9.31009578704834,12.226640701293945,-3.7090845108032227,-11.829343795776367,-4.733262062072754,0.739333987236023,228.3000030517578,-83.70000457763672,0.30000001192092896
584340,-12.155461311340332,10.984297752380371,-0.9378882050514221,-8.925361633300781,1.8369019031524658,3.048799991607666,218.70001220703125,-98.10000610351562,-5.700000286102295
584380,-7.06406831741333,13.50188159942627,-3.1193156242370605,-9.78664779663086,2.042695999145508,7.7515740394592285,192.3000030517578,-110.10000610351562,-17.100000381469727
584400,-6.938458442687988,12.751212120056152,-0.6495832800865173,-9.847623825073242,-2.6753220558166504,8.750056266784668,180.3000030517578,-110.10000610351562,-15.300000190734863
