time,sensor_accX[g],sensor_accY[g],sensor_accZ[g],sensor_gyroX[°/s],sensor_gyroY[°/s],sensor_gyroZ[°/s],sensor_magX[µT],sensor_magY[µT],sensor_magZ[µT]
718887,-2.3064393997192383,8.26513957977295,-4.112831115722656,-0.12195199728012085,0.2972579896450043,-0.1295740008354187,221.10000610351562,-95.70000457763672,-5.100000381469727
718907,-2.2759339809417725,8.346487045288086,-4.16486930847168,-0.02286599949002266,0.18292799592018127,-0.1448179930448532,213.90000915527344,-93.30000305175781,-3.9000000953674316
718927,-2.2878968715667725,8.316579818725586,-4.141541957855225,-0.06859800219535828,0.1448179930448532,-0.15243999660015106,213.90000915527344,-114.9000015258789,0.9000000357627869
718951,-2.3022522926330566,8.34887981414795,-4.244422435760498,-0.038109999150037766,0.06859800219535828,-0.060975998640060425,221.10000610351562,-98.10000610351562,-2.700000047683716
718971,-2.2843079566955566,8.283681869506836,-4.256385326385498,-0.08384199440479279,-0.08384199440479279,-0.09908600151538849,228.3000030517578,-110.10000610351562,-10.5
719014,-2.1323797702789307,8.339309692382812,-4.228272438049316,-0.114329993724823,-0.12195199728012085,0.07621999830007553,228.3000030517578,-86.10000610351562,-0.30000001192092896
719034,-2.0707709789276123,8.40151596069336,-4.175037860870361,-0.22103799879550934,-0.1600620001554489,0.05335399881005287,206.70001220703125,-102.9000015258789,-2.1000001430511475
719054,-2.033087968826294,8.201736450195312,-4.222291469573975,-0.26677000522613525,-0.015243999660015106,-0.030487999320030212,221.10000610351562,-114.9000015258789,-0.9000000357627869
719074,-1.8721874952316284,8.391945838928223,-4.117018222808838,-0.228659987449646,-0.15243999660015106,0.07621999830007553,221.10000610351562,-122.10000610351562,-4.5
719138,-1.9290111064910889,8.146109580993652,-3.9483418464660645,-0.44969800114631653,0.19054999947547913,-0.33536797761917114,225.90000915527344,-95.70000457763672,-1.5
719160,-1.9804513454437256,8.219680786132812,-4.050025939941406,-0.35061198472976685,0.2896359860897064,-0.38109999895095825,221.10000610351562,-107.70000457763672,-3.3000001907348633
719180,-2.0946967601776123,8.143716812133789,-3.9896135330200195,-0.48018598556518555,0.2439039945602417,-0.5640279650688171,221.10000610351562,-102.9000015258789,-2.700000047683716
719201,-2.1419498920440674,8.485854148864746,-4.20673942565918,-0.342989981174469,0.19054999947547913,-0.7012239694595337,213.90000915527344,-110.10000610351562,-8.700000762939453
719221,-2.271148920059204,8.12158489227295,-4.190589427947998,-0.5564059615135193,-0.08384199440479279,-1.1509219408035278,213.90000915527344,-110.10000610351562,-7.500000476837158
719241,-2.3028504848480225,8.022293090820312,-4.21571159362793,-0.4039659798145294,-0.3048799932003021,-1.0518360137939453,225.90000915527344,-100.50000762939453,-2.700000047683716
719263,-2.348907470703125,7.938553333282471,-4.171449184417725,-0.39634400606155396,-0.4344539940357208,-0.967993974685669,225.90000915527344,-122.10000610351562,-5.700000286102295
719283,-2.348309278488159,8.254971504211426,-4.231263160705566,-0.22103799879550934,-0.3582339882850647,-0.7469559907913208,225.90000915527344,-107.70000457763672,-1.5
719304,-2.5145931243896484,8.161062240600586,-4.18281364440918,-0.5487840175628662,-0.3887220025062561,-1.0899460315704346,223.50001525878906,-102.9000015258789,-3.3000001907348633
719324,-2.664726972579956,7.997171401977539,-4.224085807800293,-0.5868939757347107,-0.114329993724823,-1.0061039924621582,228.3000030517578,-107.70000457763672,-6.900000095367432
719348,-2.884843587875366,7.994180679321289,-4.234852313995361,-0.8307979702949524,0.1448179930448532,-0.739333987236023,221.10000610351562,-102.9000015258789,-6.300000190734863
719368,-3.057706832885742,8.122183799743652,-4.30543327331543,-0.8612859845161438,0.49542999267578125,-0.6250039935112,233.10000610351562,-105.30000305175781,-8.100000381469727
719391,-3.2706458568573,8.399123191833496,-4.439417362213135,-0.8307979702949524,0.914639949798584,-0.6554920077323914,233.10000610351562,-112.50000762939453,2.1000001430511475
719411,-3.5093047618865967,8.251980781555176,-4.4579596519470215,-1.2195199728012085,0.9908599853515625,-1.2118979692459106,228.3000030517578,-88.5,-4.5
719431,-3.555361747741699,8.1843900680542,-4.3891730308532715,-1.2500079870224,1.0747020244598389,-1.1814099550247192,223.50001525878906,-110.10000610351562,-6.300000190734863
719451,-3.746767520904541,8.108426094055176,-4.41489315032959,-1.2804960012435913,1.6234859228134155,-1.0747020244598389,233.10000610351562,-100.50000762939453,-2.1000001430511475
719471,-3.749160051345825,8.164651870727539,-4.666113376617432,-1.0442140102386475,1.9664759635925293,-0.5335400104522705,228.3000030517578,-105.30000305175781,-4.5
719491,-3.6492702960968018,8.507387161254883,-4.770190238952637,-1.0518360137939453,1.600619912147522,0.038109999150037766,225.90000915527344,-102.9000015258789,-6.900000095367432
719511,-3.777272939682007,7.875748634338379,-4.719347953796387,-0.8079319596290588,1.7759259939193726,0.5030519962310791,218.70001220703125,-102.9000015258789,-6.900000095367432
719531,-3.6133816242218018,7.853617191314697,-4.768395900726318,-0.571649968624115,1.6615959405899048,0.9298839569091797,218.70001220703125,-102.9000015258789,-6.300000190734863
719551,-3.413601875305176,7.991189956665039,-4.6051025390625,-0.39634400606155396,1.5320219993591309,1.6844619512557983,228.3000030517578,-95.70000457763672,-2.700000047683716
719571,-3.1605875492095947,8.141324043273926,-4.571606636047363,-0.41158798336982727,1.646351933479309,2.1036720275878906,228.3000030517578,-93.30000305175781,0.30000001192092896
719593,-3.034379243850708,8.090481758117676,-4.4400153160095215,-0.6554920077323914,1.7683039903640747,2.195136070251465,221.10000610351562,-107.70000457763672,0.9000000357627869
719613,-2.842973470687866,8.227457046508789,-4.445398330688477,-0.6936019659042358,1.9969639778137207,2.294221878051758,230.70001220703125,-112.50000762939453,6.300000190734863
719636,-2.5648369789123535,8.051602363586426,-4.216907978057861,-1.1814099550247192,2.042695999145508,2.195136070251465,206.70001220703125,-102.9000015258789,2.700000047683716
719656,-2.3124208450317383,8.34170150756836,-4.135560512542725,-1.1356779336929321,2.1570260524749756,2.545747995376587,216.3000030517578,-102.9000015258789,-8.100000381469727
719676,-2.3925719261169434,8.462526321411133,-4.054811000823975,-1.4558019638061523,2.5686140060424805,2.2561118602752686,213.90000915527344,-119.70000457763672,-2.700000047683716
719696,-2.685662031173706,8.580361366271973,-4.465137481689453,-1.3795819282531738,2.9725799560546875,2.1036720275878906,206.70001220703125,-107.70000457763672,-2.700000047683716
719716,-2.9697799682617188,8.96137809753418,-4.839574813842773,-1.1051899194717407,3.0335559844970703,1.9054999351501465,199.50001525878906,-98.10000610351562,-3.9000000953674316
719739,-3.1097452640533447,8.909339904785156,-5.13206672668457,-1.1509219408035278,2.179892063140869,1.2271419763565063,201.90000915527344,-107.70000457763672,-8.100000381469727
719759,-3.1587929725646973,8.511574745178223,-4.882640838623047,-1.417691946029663,0.9832379817962646,1.1204339265823364,197.10000610351562,-112.50000762939453,-0.30000001192092896
719779,-3.026005268096924,8.539687156677246,-4.8509392738342285,-1.4939119815826416,1.2271419763565063,2.073184013366699,189.90000915527344,-107.70000457763672,2.700000047683716
719802,-3.011051654815674,8.406301498413086,-4.922118663787842,-2.134160041809082,1.2271419763565063,3.0183119773864746,185.10000610351562,-122.10000610351562,2.1000001430511475
719822,-2.8902268409729004,8.34887981414795,-4.681066989898682,-2.4695279598236084,1.14329993724823,4.062525749206543,189.90000915527344,-124.50000762939453,5.100000381469727
719844,-2.6479790210723877,8.19934368133545,-4.529138565063477,-3.0259339809417725,1.2804960012435913,4.618931770324707,189.90000915527344,-131.70001220703125,-2.1000001430511475
719864,-2.375823974609375,7.998965740203857,-4.432239532470703,-2.896359920501709,1.1737879514694214,4.832347869873047,187.5,-138.90000915527344,-6.900000095367432
719884,-2.086920738220215,8.17541790008545,-4.19477653503418,-3.0335559844970703,0.8079319596290588,5.152472019195557,180.3000030517578,-138.90000915527344,-0.30000001192092896
719905,-2.017536163330078,7.8679728507995605,-3.978847026824951,-3.445143938064575,1.0899460315704346,4.839970111846924,165.90000915527344,-131.70001220703125,-0.9000000357627869
719925,-2.0336861610412598,7.7453532218933105,-4.3652472496032715,-2.835383892059326,1.3033620119094849,4.93143367767334,173.10000610351562,-138.90000915527344,-3.9000000953674316
719945,-1.749568223953247,7.859598636627197,-4.236048698425293,-2.8201398849487305,0.4344539940357208,5.007653713226318,161.10000610351562,-134.10000610351562,-6.900000095367432
719965,-1.5928547382354736,8.1365385055542,-4.253993034362793,-2.835383892059326,0.22103799879550934,4.984787940979004,146.70001220703125,-146.10000610351562,-3.9000000953674316
719985,-1.3553919792175293,7.957694053649902,-4.3712286949157715,-2.8734939098358154,-0.44969800114631653,4.527467727661133,158.70001220703125,-141.3000030517578,-9.300000190734863
720005,-1.0317965745925903,7.679557800292969,-4.30244255065918,-2.583858013153076,-1.371959924697876,4.367405891418457,146.70001220703125,-143.70001220703125,-8.700000762939453
720025,-0.6005355715751648,7.502507209777832,-3.929201126098633,-2.7058098316192627,-2.294221878051758,4.634175777435303,149.10000610351562,-134.10000610351562,-15.90000057220459
720049,-0.16748003661632538,8.018106460571289,-3.9926042556762695,-2.4237959384918213,-2.126538038253784,5.175337791442871,146.70001220703125,-153.3000030517578,-9.90000057220459
720090,0.7644267082214355,8.891993522644043,-3.4770050048828125,-3.041177988052368,-3.3765459060668945,4.740883827209473,139.5,-153.3000030517578,-10.5
720110,0.9534398913383484,8.74126148223877,-3.078641891479492,-3.2774598598480225,-2.9192259311676025,3.9863059520721436,127.50000762939453,-150.90000915527344,-11.100000381469727
720130,1.0664888620376587,8.64077377319336,-2.769402027130127,-3.5366079807281494,-2.2713558673858643,3.361301898956299,137.10000610351562,-153.3000030517578,-12.90000057220459
720150,1.2273893356323242,8.997864723205566,-2.637810468673706,-3.5747179985046387,-1.6615959405899048,2.6600780487060547,127.50000762939453,-160.5,-11.100000381469727
720170,1.2255949974060059,9.161755561828613,-2.393768072128296,-3.5442299842834473,-1.5015339851379395,2.0655620098114014,129.90000915527344,-158.10000610351562,-7.500000476837158
720190,1.137069821357727,9.16953182220459,-2.2705507278442383,-3.5747179985046387,-1.5701320171356201,1.7301939725875854,120.30000305175781,-158.10000610351562,-12.300000190734863
720210,0.9450659155845642,9.121082305908203,-2.015143632888794,-3.5823400020599365,-1.6387299299240112,1.1280559301376343,125.10000610351562,-160.5,-14.100000381469727
720233,0.8702980279922485,9.23532772064209,-2.2932801246643066,-2.9268479347229004,-1.806414008140564,1.0823240280151367,134.70001220703125,-162.90000915527344,-16.5
720253,1.20705246925354,9.688121795654297,-2.1957828998565674,-2.599102020263672,-3.1707520484924316,1.6615959405899048,127.50000762939453,-165.3000030517578,-13.500000953674316
720275,1.1615936756134033,9.33282470703125,-1.7932326793670654,-2.4771499633789062,-3.704291820526123,1.5701320171356201,117.9000015258789,-162.90000915527344,-18.30000114440918
720295,1.3422328233718872,9.70845890045166,-1.6514726877212524,-1.9969639778137207,-4.268320083618164,2.3551979064941406,127.50000762939453,-167.70001220703125,-21.30000114440918
720315,1.6855669021606445,10.685226440429688,-1.61139714717865,-2.179892063140869,-4.1387457847595215,2.896359920501709,122.70000457763672,-165.3000030517578,-16.5
720335,2.265167474746704,11.860576629638672,-2.080341339111328,-1.7225719690322876,-4.131124019622803,3.254593849182129,108.30000305175781,-150.90000915527344,-20.100000381469727
720355,2.3895812034606934,11.432306289672852,-0.9139624834060669,-2.6219680309295654,-5.4573516845703125,1.3872039318084717,127.50000762939453,-184.5,-24.30000114440918
720375,2.0612006187438965,10.05777359008789,-0.40075579285621643,-2.949713945388794,-3.9863059520721436,0.6250039935112,110.70000457763672,-155.70001220703125,-9.90000057220459
720395,1.7794753313064575,9.5391845703125,-0.07237529754638672,-2.987823963165283,-2.599102020263672,0.853663980960846,105.9000015258789,-179.70001220703125,-20.100000381469727
720416,1.618574857711792,8.974536895751953,0.0065795728005468845,-3.109776020050049,-2.195136070251465,0.7012239694595337,125.10000610351562,-170.10000610351562,-22.5
720436,1.4493004083633423,8.176614761352539,-0.04904772341251373,-2.3170878887176514,-1.7149499654769897,1.417691946029663,115.50000762939453,-162.90000915527344,-18.30000114440918
720457,1.8488599061965942,8.230446815490723,0.09091772884130478,-1.2271419763565063,-1.7301939725875854,2.8811159133911133,103.50000762939453,-160.5,-23.100000381469727
720497,2.1114447116851807,8.601295471191406,0.3074454963207245,-0.5259180068969727,-1.3567159175872803,3.818621873855591,101.10000610351562,-179.70001220703125,-20.100000381469727
720519,2.0970892906188965,9.080408096313477,0.04844957962632179,-0.4420759975910187,-0.7621999979019165,3.559473991394043,113.10000610351562,-177.3000030517578,-24.30000114440918
720539,1.9068797826766968,8.64077377319336,-0.03708486258983612,-0.7088459730148315,-1.0289700031280518,2.888737916946411,81.9000015258789,-172.5,-21.900001525878906
720559,1.729231357574463,8.52413558959961,-0.3086417615413666,-0.22103799879550934,-0.9756159782409668,2.743919849395752,98.70000457763672,-174.90000915527344,-15.90000057220459
720581,1.7932326793670654,9.358545303344727,-0.7476786971092224,0.5792719721794128,-1.196653962135315,2.8201398849487305,93.9000015258789,-177.3000030517578,-25.500001907348633
720602,1.830317497253418,9.816722869873047,-1.0407687425613403,0.5868939757347107,-1.5853760242462158,2.3170878887176514,79.5,-182.10000610351562,-23.700000762939453
720622,1.9116649627685547,9.773655891418457,-1.0144504308700562,0.7088459730148315,-2.4009299278259277,1.6692179441452026,77.10000610351562,-174.90000915527344,-24.900001525878906
720642,1.830317497253418,9.334619522094727,-0.9893285036087036,0.6936019659042358,-2.652456045150757,1.2271419763565063,89.10000610351562,-179.70001220703125,-15.90000057220459
720682,1.8105788230895996,9.105530738830566,-1.0545260906219482,0.8765299916267395,-2.896359920501709,0.8841519951820374,81.9000015258789,-177.3000030517578,-27.900001525878906
720754,1.7914382219314575,8.736475944519043,-0.9139624834060669,0.49542999267578125,-2.6219680309295654,1.3414719104766846,86.70000457763672,-174.90000915527344,-20.100000381469727
720775,1.7788771390914917,9.194055557250977,-1.1233124732971191,0.3734779953956604,-2.3551979064941406,1.371959924697876,81.9000015258789,-170.10000610351562,-22.5
720817,1.6909501552581787,8.814234733581543,-1.0419650077819824,-0.3582339882850647,-3.460387945175171,0.6402480006217957,74.70000457763672,-179.70001220703125,-14.100000381469727
720859,2.2585878372192383,9.1922607421875,-1.0084691047668457,-0.1448179930448532,-3.7881338596343994,0.6631140112876892,62.70000076293945,-174.90000915527344,-20.100000381469727
720879,2.6880545616149902,9.75810432434082,-1.2854092121124268,0.17530599236488342,-3.7957558631896973,0.7164679765701294,60.30000305175781,-179.70001220703125,-17.100000381469727
720899,2.9069747924804688,9.429723739624023,-1.2046599388122559,-0.15243999660015106,-4.00154972076416,0.07621999830007553,77.10000610351562,-170.10000610351562,-26.100000381469727
720919,2.929704189300537,8.96436882019043,-1.3793176412582397,0.05335399881005287,-3.6814258098602295,0.060975998640060425,69.9000015258789,-179.70001220703125,-18.900001525878906
720941,2.8040943145751953,8.128763198852539,-1.3763269186019897,0.18292799592018127,-3.3308138847351074,0.15243999660015106,77.10000610351562,-162.90000915527344,-20.100000381469727
720961,2.2340641021728516,7.840457916259766,-1.7477737665176392,0.5335400104522705,-2.1189160346984863,0.9070180058479309,72.30000305175781,-172.5,-24.900001525878906
720981,1.9379832744598389,8.757411003112793,-2.27174711227417,0.739333987236023,-1.295740008354187,1.3872039318084717,69.9000015258789,-167.70001220703125,-21.900001525878906
721005,1.81656014919281,9.141419410705566,-2.795720338821411,-0.038109999150037766,-0.6707359552383423,0.6173819899559021,69.9000015258789,-172.5,-20.700000762939453
721045,1.9864327907562256,11.185273170471191,-5.004662036895752,1.8369019031524658,3.955817937850952,2.7134318351745605,67.5,-172.5,-21.30000114440918
721065,1.9816476106643677,11.652422904968262,-5.590244293212891,-0.16768398880958557,-0.4725639820098877,0.2134159952402115,81.9000015258789,-174.90000915527344,-18.900001525878906
721105,0.48509395122528076,8.98231315612793,-5.831295967102051,3.5442299842834473,-0.3277460038661957,-1.8597679138183594,74.70000457763672,-170.10000610351562,-23.700000762939453
721128,0.8912330269813538,10.678646087646484,-5.2594709396362305,0.6936019659042358,-4.527467727661133,-1.1128119230270386,74.70000457763672,-177.3000030517578,-15.90000057220459
721148,0.7351177334785461,9.367517471313477,-4.411304473876953,0.6478700041770935,-4.1921000480651855,-3.109776020050049,65.10000610351562,-165.3000030517578,-26.700000762939453
721168,0.4605700969696045,8.490639686584473,-3.953126907348633,-0.09146399796009064,-2.942091941833496,-2.1036720275878906,72.30000305175781,-177.3000030517578,-14.700000762939453
721188,0.5341416597366333,8.022293090820312,-3.6971216201782227,-1.600619912147522,-0.7240899801254272,-0.685979962348938,69.9000015258789,-165.3000030517578,-20.100000381469727
721212,0.6651349663734436,7.970853328704834,-3.7449731826782227,-1.577754020690918,0.3277460038661957,0.5564059615135193,62.70000076293945,-167.70001220703125,-25.500001907348633
721232,0.8326150178909302,7.893692970275879,-3.65704607963562,-2.1112940311431885,0.7774440050125122,1.1051899194717407,72.30000305175781,-167.70001220703125,-21.30000114440918
721292,1.3500087261199951,8.074332237243652,-3.8915181159973145,-0.9527499675750732,0.4420759975910187,2.1494040489196777,62.70000076293945,-165.3000030517578,-18.900001525878906
721355,1.652669072151184,8.788515090942383,-3.892714500427246,-0.9298839569091797,-0.1600620001554489,1.7911700010299683,57.900001525878906,-177.3000030517578,-16.5
721375,1.6742022037506104,8.67546558380127,-3.874770164489746,-1.0594580173492432,-0.35061198472976685,1.1814099550247192,60.30000305175781,-167.70001220703125,-23.700000762939453
721395,1.6933428049087524,8.44936752319336,-3.8041892051696777,-1.2042759656906128,-0.4344539940357208,0.6554920077323914,53.10000228881836,-177.3000030517578,-23.700000762939453
721415,1.7609329223632812,8.147903442382812,-3.70788836479187,-1.2271419763565063,-0.49542999267578125,0.342989981174469,57.900001525878906,-162.90000915527344,-26.100000381469727
721438,1.8500561714172363,8.068350791931152,-3.555361747741699,-1.0975680351257324,-0.46494197845458984,0.3125019967556,65.10000610351562,-170.10000610351562,-22.5
721458,2.065985918045044,8.107828140258789,-3.4979400634765625,-1.067080020904541,-0.3201240003108978,0.18292799592018127,62.70000076293945,-172.5,-24.30000114440918
721478,2.178436756134033,8.012722969055176,-3.368741273880005,-1.0442140102386475,-0.342989981174469,0.07621999830007553,55.500003814697266,-165.3000030517578,-22.5
721518,2.2735414505004883,8.074930191040039,-3.1785316467285156,-0.8689079880714417,-0.08384199440479279,0.1295740008354187,55.500003814697266,-172.5,-30.30000114440918
721542,2.6904470920562744,8.991883277893066,-3.4476959705352783,-0.9984819889068604,-0.060975998640060425,0.457319974899292,53.10000228881836,-177.3000030517578,-23.700000762939453
721562,2.5385186672210693,7.994180679321289,-3.0445477962493896,-1.9054999351501465,-0.510673999786377,-0.4344539940357208,55.500003814697266,-182.10000610351562,-27.900001525878906
721582,2.480498790740967,8.017508506774902,-2.8363940715789795,-1.0747020244598389,-0.19817200303077698,0.28201398253440857,60.30000305175781,-177.3000030517578,-27.30000114440918
721644,2.6689138412475586,9.098352432250977,-1.9989937543869019,-1.8902559280395508,-0.3048799932003021,-0.5564059615135193,57.900001525878906,-184.5,-25.500001907348633
721664,2.589959144592285,9.62471866607666,-1.9948067665100098,-1.6615959405899048,-0.3048799932003021,-0.19054999947547913,55.500003814697266,-186.90000915527344,-24.900001525878906
721684,2.2065494060516357,9.817320823669434,-1.552779197692871,-1.6844619512557983,-0.41158798336982727,-0.5640279650688171,53.10000228881836,-184.5,-31.500001907348633
721704,2.0163400173187256,9.92259407043457,-1.5820881128311157,-1.2195199728012085,-0.13719600439071655,-0.7774440050125122,55.500003814697266,-179.70001220703125,-35.10000228881836
721724,2.011554718017578,10.40050983428955,-1.2555021047592163,-0.9832379817962646,-0.8079319596290588,-0.7621999979019165,48.30000305175781,-184.5,-24.900001525878906
721764,2.5409114360809326,12.037627220153809,-0.7518657445907593,-1.4405579566955566,-0.2134159952402115,-0.46494197845458984,43.5,-162.90000915527344,-27.30000114440918
721784,2.4404232501983643,11.855792045593262,-0.2912956178188324,-2.4161739349365234,0.39634400606155396,-1.6158639192581177,74.70000457763672,-179.70001220703125,-29.700000762939453
721804,1.5964435338974,9.602587699890137,-0.40075579285621643,-3.041177988052368,0.8231759667396545,-2.888737916946411,65.10000610351562,-172.5,-35.10000228881836
721827,0.8350076079368591,8.414076805114746,-0.26557546854019165,-2.187514066696167,0.5792719721794128,-1.9588539600372314,67.5,-172.5,-32.70000076293945
721888,1.7645217180252075,8.932068824768066,-0.46116822957992554,-0.3125019967556,-0.2591480016708374,1.5167779922485352,65.10000610351562,-184.5,-34.5
721908,1.8620190620422363,8.67845630645752,-0.30565106868743896,-0.342989981174469,-0.3125019967556,1.5625100135803223,50.70000076293945,-174.90000915527344,-20.700000762939453
721948,2.053424835205078,9.153980255126953,-0.3971669375896454,-0.5564059615135193,0.22103799879550934,1.753059983253479,48.30000305175781,-160.5,-27.900001525878906
722008,1.7794753313064575,9.764683723449707,-0.6501814126968384,-0.2896359860897064,0.4878079891204834,0.36585599184036255,45.900001525878906,-170.10000610351562,-27.30000114440918
722028,1.4977500438690186,9.642065048217773,-0.7554545998573303,-0.07621999830007553,0.35061198472976685,-0.33536797761917114,53.10000228881836,-179.70001220703125,-24.900001525878906
722052,1.4223840236663818,9.26104736328125,-0.6471906900405884,0.2591480016708374,0.007621999830007553,-0.8155539631843567,48.30000305175781,-167.70001220703125,-33.900001525878906
722113,1.621565580368042,9.150391578674316,-0.6262556910514832,0.33536797761917114,0.510673999786377,0.2134159952402115,41.10000228881836,-179.70001220703125,-27.30000114440918
722156,1.815363883972168,9.11569881439209,-0.5981429815292358,0.2972579896450043,0.9756159782409668,1.0289700031280518,65.10000610351562,-179.70001220703125,-29.700000762939453
722275,2.590557098388672,9.484752655029297,-1.1143403053283691,0.9451279640197754,0.7164679765701294,0.05335399881005287,60.30000305175781,-172.5,-27.900001525878906
722315,2.7042043209075928,9.085193634033203,-1.3488123416900635,0.6631140112876892,0.9908599853515625,-0.08384199440479279,45.900001525878906,-170.10000610351562,-30.30000114440918
722355,2.8094775676727295,9.054688453674316,-1.636519193649292,0.6326259970664978,0.967993974685669,0.015243999660015106,48.30000305175781,-165.3000030517578,-24.900001525878906
722432,2.3806090354919434,8.473891258239746,-1.8805614709854126,0.7545779943466187,1.5853760242462158,-0.2134159952402115,53.10000228881836,-172.5,-21.30000114440918
722452,2.4691340923309326,8.588136672973633,-1.9188426733016968,0.7545779943466187,1.8140360116958618,-0.13719600439071655,45.900001525878906,-182.10000610351562,-25.500001907348633
722495,3.0301923751831055,10.24020767211914,-2.7119803428649902,1.021347999572754,2.637212038040161,0.4420759975910187,43.5,-167.70001220703125,-26.700000762939453
722515,3.576894998550415,10.623019218444824,-2.893815755844116,0.3887220025062561,2.080806016921997,0.39634400606155396,48.30000305175781,-167.70001220703125,-29.100000381469727
722537,2.4966487884521484,8.254971504211426,-2.1509220600128174,-0.685979962348938,1.9131219387054443,-1.6615959405899048,62.70000076293945,-177.3000030517578,-22.5
722560,2.4631526470184326,8.97633171081543,-3.547585964202881,1.699705958366394,3.460387945175171,1.0442140102386475,45.900001525878906,-177.3000030517578,-21.900001525878906
722580,2.8932175636291504,10.230637550354004,-3.7276270389556885,0.7088459730148315,2.195136070251465,0.6097599864006042,55.500003814697266,-177.3000030517578,-23.700000762939453
722600,2.42606782913208,8.950013160705566,-3.6253445148468018,1.1661659479141235,1.7149499654769897,-1.371959924697876,48.30000305175781,-174.90000915527344,-22.5
722620,2.533733606338501,8.382375717163086,-4.029090881347656,1.9740979671478271,1.1814099550247192,-0.9451279640197754,50.70000076293945,-186.90000915527344,-22.5
722640,2.500835657119751,8.36682415008545,-3.63312029838562,1.6615959405899048,-0.12195199728012085,-0.16768398880958557,48.30000305175781,-172.5,-25.500001907348633
722660,2.6820731163024902,8.64854907989502,-3.5069122314453125,1.6920839548110962,-0.060975998640060425,0.1600620001554489,33.900001525878906,-182.10000610351562,-23.700000762939453
722680,2.799309015274048,8.588136672973633,-3.2269814014434814,0.8612859845161438,-0.06859800219535828,0.16768398880958557,53.10000228881836,-172.5,-16.5
722700,2.869889974594116,8.658119201660156,-3.100174903869629,0.18292799592018127,0.5945159792900085,0.22103799879550934,38.70000076293945,-191.70001220703125,-31.500001907348633
722722,2.861515998840332,8.618043899536133,-3.2180092334747314,-0.41158798336982727,0.9298839569091797,0.19817200303077698,48.30000305175781,-179.70001220703125,-23.700000762939453
722742,2.915348768234253,8.51217269897461,-3.067277193069458,-0.7164679765701294,1.021347999572754,0.3887220025062561,48.30000305175781,-182.10000610351562,-21.30000114440918
722785,2.974565029144287,8.31299114227295,-3.0923991203308105,-1.2804960012435913,1.0518360137939453,0.41158798336982727,48.30000305175781,-174.90000915527344,-27.900001525878906
722805,2.990116596221924,8.37160873413086,-3.1049602031707764,-0.5945159792900085,0.7621999979019165,0.6021379828453064,50.70000076293945,-182.10000610351562,-21.900001525878906
722829,3.1258952617645264,8.33093547821045,-2.9249191284179688,-0.7240899801254272,0.6631140112876892,0.5487840175628662,41.10000228881836,-186.90000915527344,-21.30000114440918
722849,3.108549118041992,8.378188133239746,-3.0158369541168213,-0.49542999267578125,0.6402480006217957,0.5259180068969727,33.900001525878906,-174.90000915527344,-27.900001525878906
722915,3.1342692375183105,8.081509590148926,-2.8746750354766846,-0.5792719721794128,0.038109999150037766,0.457319974899292,48.30000305175781,-179.70001220703125,-17.100000381469727
722935,3.1157267093658447,8.128763198852539,-2.872880697250366,-0.7469559907913208,-0.038109999150037766,0.457319974899292,24.30000114440918,-174.90000915527344,-20.100000381469727
722955,3.326272964477539,8.51217269897461,-2.9195358753204346,-0.7240899801254272,-0.12195199728012085,0.5030519962310791,41.10000228881836,-184.5,-24.30000114440918
722975,3.5099029541015625,8.909937858581543,-2.920732021331787,-0.9070180058479309,-0.46494197845458984,0.41158798336982727,31.500001907348633,-170.10000610351562,-23.100000381469727
723035,3.517678737640381,8.379384994506836,-2.5863702297210693,-1.524399995803833,-0.5487840175628662,0.342989981174469,41.10000228881836,-174.90000915527344,-24.30000114440918
723056,3.5607450008392334,8.430825233459473,-2.49485445022583,-1.6234859228134155,-0.510673999786377,0.685979962348938,41.10000228881836,-167.70001220703125,-20.100000381469727
723076,3.776674747467041,8.948219299316406,-2.4757137298583984,-1.5548880100250244,-0.6097599864006042,0.8612859845161438,33.900001525878906,-177.3000030517578,-26.100000381469727
723099,4.202552318572998,9.808348655700684,-2.45896577835083,-1.829279899597168,-0.8765299916267395,1.295740008354187,41.10000228881836,-174.90000915527344,-23.100000381469727
723119,3.8771626949310303,8.997864723205566,-2.0671820640563965,-2.4542839527130127,-0.914639949798584,0.2743920087814331,14.700000762939453,-174.90000915527344,-29.100000381469727
723159,2.8627121448516846,8.776552200317383,-1.5001425743103027,-0.8079319596290588,-0.7621999979019165,0.9756159782409668,26.700000762939453,-179.70001220703125,-26.100000381469727
723183,2.790336847305298,10.611654281616211,-1.6263507604599,-1.371959924697876,-1.5472660064697266,0.9222619533538818,45.900001525878906,-174.90000915527344,-26.700000762939453
723203,2.8208422660827637,10.729488372802734,-0.5927596688270569,-2.7058098316192627,-1.875011920928955,-1.1737879514694214,33.900001525878906,-189.3000030517578,-27.900001525878906
723227,2.1240057945251465,9.322656631469727,-0.5072252154350281,-2.027451992034912,-0.5868939757347107,-2.080806016921997,38.70000076293945,-186.90000915527344,-21.900001525878906
723247,2.1120429039001465,9.70427131652832,-0.25361260771751404,-2.134160041809082,-0.3125019967556,-1.7454379796981812,41.10000228881836,-177.3000030517578,-26.700000762939453
723267,1.6736040115356445,9.242505073547363,-0.43963509798049927,-1.7987920045852661,0.33536797761917114,-1.8902559280395508,38.70000076293945,-182.10000610351562,-31.500001907348633
723290,1.6837724447250366,8.912928581237793,-0.28351977467536926,-1.2042759656906128,-0.02286599949002266,-1.2118979692459106,36.30000305175781,-174.90000915527344,-30.30000114440918
723310,1.906281590461731,8.917115211486816,-0.26976248621940613,-0.5564059615135193,0.19817200303077698,-0.39634400606155396,38.70000076293945,-182.10000610351562,-32.10000228881836
723332,1.9756662845611572,9.099549293518066,-0.30684733390808105,-0.1448179930448532,0.3582339882850647,0.36585599184036255,29.100000381469727,-170.10000610351562,-26.700000762939453
723397,2.3680479526519775,9.307703018188477,-0.5927596688270569,0.4039659798145294,0.2134159952402115,0.967993974685669,26.700000762939453,-177.3000030517578,-24.30000114440918
723417,2.5319392681121826,9.45424747467041,-0.5867782831192017,0.02286599949002266,0.2896359860897064,0.7088459730148315,24.30000114440918,-177.3000030517578,-32.10000228881836
723437,2.563640832901001,9.144410133361816,-0.5383286476135254,-0.4344539940357208,0.457319974899292,0.3277460038661957,19.5,-179.70001220703125,-23.700000762939453
723477,2.854936361312866,9.4315185546875,-0.6980328559875488,-0.342989981174469,0.9070180058479309,-0.038109999150037766,41.10000228881836,-177.3000030517578,-29.100000381469727
723571,2.682671308517456,8.751429557800293,-0.9366918802261353,0.4420759975910187,1.1204339265823364,-0.2134159952402115,36.30000305175781,-174.90000915527344,-26.100000381469727
723591,2.789738893508911,8.995471954345703,-1.0395724773406982,0.5487840175628662,0.9832379817962646,-0.18292799592018127,26.700000762939453,-177.3000030517578,-27.30000114440918
723633,3.1785316467285156,9.738964080810547,-1.5629476308822632,0.8155539631843567,0.510673999786377,0.19054999947547913,36.30000305175781,-179.70001220703125,-26.100000381469727
723653,2.929704189300537,8.897377014160156,-1.61737859249115,-0.04573199898004532,0.5335400104522705,-0.44969800114631653,26.700000762939453,-160.5,-29.100000381469727
723673,2.780766725540161,8.513967514038086,-1.815363883972168,0.5030519962310791,0.5792719721794128,-0.28201398253440857,21.900001525878906,-184.5,-26.700000762939453
723695,2.930302381515503,8.923694610595703,-2.0199289321899414,0.5259180068969727,0.07621999830007553,0.16768398880958557,36.30000305175781,-177.3000030517578,-28.500001907348633
723715,3.0511271953582764,9.188672065734863,-2.0546212196350098,0.2972579896450043,0.19817200303077698,0.39634400606155396,38.70000076293945,-170.10000610351562,-29.700000762939453
723735,3.1611855030059814,9.36273193359375,-2.134174108505249,0.114329993724823,0.18292799592018127,0.6097599864006042,33.900001525878906,-179.70001220703125,-24.30000114440918
723755,3.0840251445770264,9.138428688049316,-1.9768625497817993,-0.3125019967556,0.36585599184036255,0.5259180068969727,43.5,-184.5,-29.100000381469727
723775,2.858525276184082,8.85969352722168,-2.003180742263794,-0.5030519962310791,0.5792719721794128,0.5792719721794128,31.500001907348633,-182.10000610351562,-27.30000114440918
723795,2.869889974594116,8.698793411254883,-1.9086742401123047,-0.44969800114631653,0.510673999786377,0.5640279650688171,24.30000114440918,-174.90000915527344,-30.30000114440918
723815,2.9518356323242188,8.94044303894043,-1.8901318311691284,-0.1600620001554489,0.510673999786377,0.8155539631843567,29.100000381469727,-170.10000610351562,-27.30000114440918
723835,2.890825033187866,8.77715015411377,-1.7854567766189575,-0.3201240003108978,0.5411620140075684,0.7012239694595337,14.700000762939453,-179.70001220703125,-27.900001525878906
723875,2.9015915393829346,8.80107593536377,-1.7980177402496338,-0.038109999150037766,0.5411620140075684,0.39634400606155396,36.30000305175781,-186.90000915527344,-26.100000381469727
723898,2.9069747924804688,8.618043899536133,-1.7734938859939575,-0.007621999830007553,0.44969800114631653,0.22103799879550934,21.900001525878906,-167.70001220703125,-27.30000114440918
723918,3.0086591243743896,8.769373893737793,-1.8410841226577759,0.26677000522613525,0.426831990480423,0.25152599811553955,29.100000381469727,-179.70001220703125,-27.900001525878906
723938,3.049332857131958,8.87165641784668,-1.909272313117981,0.2439039945602417,0.457319974899292,0.114329993724823,33.900001525878906,-184.5,-24.30000114440918
723958,3.1456339359283447,9.149792671203613,-1.936188817024231,0.3277460038661957,0.41158798336982727,-0.007621999830007553,33.900001525878906,-167.70001220703125,-24.30000114440918
723980,3.1097452640533447,9.13663387298584,-1.9427683353424072,0.33536797761917114,0.3277460038661957,-0.3887220025062561,21.900001525878906,-179.70001220703125,-29.100000381469727
724000,3.0295941829681396,9.07681941986084,-2.0169382095336914,0.12195199728012085,0.3201240003108978,-0.571649968624115,36.30000305175781,-184.5,-18.900001525878906
724042,2.858525276184082,9.034351348876953,-1.9637033939361572,0.5564059615135193,0.05335399881005287,-0.23628199100494385,38.70000076293945,-179.70001220703125,-31.500001907348633
724062,2.748466968536377,9.123475074768066,-1.9954049587249756,0.060975998640060425,0.20579399168491364,-0.510673999786377,31.500001907348633,-165.3000030517578,-29.700000762939453
724082,2.6306328773498535,9.10493278503418,-1.9762643575668335,0.04573199898004532,0.13719600439071655,-0.7240899801254272,19.5,-167.70001220703125,-23.100000381469727
724102,2.5684258937835693,8.87883472442627,-1.916450023651123,-0.15243999660015106,0.060975998640060425,-0.9527499675750732,29.100000381469727,-184.5,-27.900001525878906
724125,2.5917534828186035,8.79509449005127,-1.9110667705535889,-0.15243999660015106,0.060975998640060425,-0.8307979702949524,36.30000305175781,-172.5,-27.900001525878906
724146,2.628838300704956,8.84892749786377,-1.8871411085128784,0,0.030487999320030212,-0.6097599864006042,36.30000305175781,-184.5,-33.30000305175781
724166,2.604912757873535,8.882423400878906,-1.921235203742981,-0.030487999320030212,0.007621999830007553,-0.4039659798145294,33.900001525878906,-179.70001220703125,-23.100000381469727
724186,2.634819746017456,8.908740997314453,-1.9613107442855835,0.09908600151538849,-0.06859800219535828,-0.228659987449646,31.500001907348633,-172.5,-27.30000114440918
724226,2.580986976623535,8.930274963378906,-1.9786570072174072,0.1600620001554489,-0.35061198472976685,-0.22103799879550934,41.10000228881836,-179.70001220703125,-27.900001525878906
724246,2.6461844444274902,8.941040992736816,-1.9888253211975098,0.13719600439071655,-0.4344539940357208,-0.26677000522613525,36.30000305175781,-174.90000915527344,-28.500001907348633
724266,2.6061089038848877,8.874049186706543,-2.0247139930725098,0.05335399881005287,-0.4420759975910187,-0.28201398253440857,38.70000076293945,-182.10000610351562,-27.30000114440918
724286,2.643791913986206,8.822608947753906,-2.0289008617401123,0.10670799762010574,-0.4878079891204834,-0.228659987449646,29.100000381469727,-177.3000030517578,-26.100000381469727
724306,2.7143728733062744,8.86567497253418,-2.0199289321899414,0.09908600151538849,-0.4725639820098877,-0.12195199728012085,31.500001907348633,-179.70001220703125,-26.100000381469727
724326,2.7371022701263428,8.872254371643066,-2.044452667236328,0.015243999660015106,-0.4192099869251251,-0.015243999660015106,36.30000305175781,-184.5,-22.5
724346,2.799309015274048,8.894386291503906,-2.0223214626312256,-0.06859800219535828,-0.35061198472976685,0.08384199440479279,29.100000381469727,-170.10000610351562,-29.100000381469727
724366,2.845964193344116,9.02119255065918,-2.0097603797912598,-0.114329993724823,-0.23628199100494385,0.114329993724823,41.10000228881836,-174.90000915527344,-24.30000114440918
724389,2.8986008167266846,8.906947135925293,-1.9248241186141968,-0.228659987449646,-0.10670799762010574,0.17530599236488342,36.30000305175781,-162.90000915527344,-20.100000381469727
724409,2.9069747924804688,9.135437965393066,-2.006171464920044,-0.3201240003108978,0.06859800219535828,0.09908600151538849,41.10000228881836,-170.10000610351562,-21.900001525878906
724429,2.8597216606140137,8.872254371643066,-2.0402655601501465,-0.8307979702949524,-0.04573199898004532,-0.07621999830007553,33.900001525878906,-172.5,-26.700000762939453
724449,2.8567309379577637,9.070240020751953,-2.038471221923828,-0.13719600439071655,-0.09146399796009064,-0.05335399881005287,31.500001907348633,-165.3000030517578,-24.900001525878906
724470,2.863908529281616,9.043323516845703,-1.9158519506454468,-0.4039659798145294,-0.04573199898004532,-0.3201240003108978,19.5,-182.10000610351562,-21.900001525878906
724490,2.796318292617798,9.003846168518066,-1.8668042421340942,-0.426831990480423,0.07621999830007553,-0.41158798336982727,33.900001525878906,-189.3000030517578,-24.900001525878906
724510,2.6982228755950928,8.99606990814209,-1.919440746307373,-0.38109999895095825,0.17530599236488342,-0.5945159792900085,43.5,-182.10000610351562,-27.30000114440918
724530,2.6695120334625244,8.835169792175293,-1.8566358089447021,-0.44969800114631653,0.19054999947547913,-0.6097599864006042,29.100000381469727,-172.5,-28.500001907348633
724551,2.623455047607422,8.810646057128906,-1.8129713535308838,-0.22103799879550934,0.2134159952402115,-0.5030519962310791,26.700000762939453,-184.5,-25.500001907348633
724571,2.6814749240875244,8.890796661376953,-1.8039991855621338,-0.10670799762010574,0.2896359860897064,-0.3277460038661957,38.70000076293945,-179.70001220703125,-20.100000381469727
724591,2.6754934787750244,8.912330627441406,-1.8380934000015259,-0.1448179930448532,0.3887220025062561,-0.22103799879550934,41.10000228881836,-179.70001220703125,-29.700000762939453
724611,2.6551566123962402,8.924293518066406,-1.8703930377960205,-0.114329993724823,0.38109999895095825,-0.114329993724823,29.100000381469727,-179.70001220703125,-32.10000228881836
724631,2.6479790210723877,8.976929664611816,-1.9200389385223389,-0.060975998640060425,0.3734779953956604,-0.10670799762010574,31.500001907348633,-182.10000610351562,-27.30000114440918
724651,2.6808767318725586,8.99906063079834,-1.8985058069229126,-0.030487999320030212,0.3201240003108978,-0.1448179930448532,29.100000381469727,-182.10000610351562,-22.5
724673,2.7167654037475586,8.99128532409668,-1.8889354467391968,-0.09146399796009064,0.33536797761917114,-0.2134159952402115,26.700000762939453,-177.3000030517578,-26.700000762939453
724693,2.7371022701263428,8.993678092956543,-1.8787670135498047,-0.13719600439071655,0.38109999895095825,-0.25152599811553955,26.700000762939453,-184.5,-24.30000114440918
724714,2.7353076934814453,8.944031715393066,-1.8925243616104126,-0.18292799592018127,0.4039659798145294,-0.26677000522613525,38.70000076293945,-165.3000030517578,-25.500001907348633
724734,2.7490651607513428,8.957191467285156,-1.8775707483291626,-0.13719600439071655,0.39634400606155396,-0.2972579896450043,36.30000305175781,-179.70001220703125,-26.700000762939453
724797,2.739494800567627,8.786720275878906,-1.8398877382278442,-0.342989981174469,0.5259180068969727,-0.4192099869251251,36.30000305175781,-184.5,-22.5
724827,2.8184497356414795,9.10373592376709,-1.8703930377960205,-0.1295740008354187,0.4725639820098877,-0.41158798336982727,33.900001525878906,-182.10000610351562,-24.900001525878906
724849,2.745476245880127,8.79389762878418,-1.9068797826766968,-0.5945159792900085,0.2896359860897064,-0.46494197845458984,33.900001525878906,-182.10000610351562,-26.700000762939453
724889,2.781364917755127,9.01222038269043,-1.8721874952316284,-0.18292799592018127,0.1448179930448532,-0.44969800114631653,43.5,-189.3000030517578,-29.700000762939453
724909,2.7580373287200928,9.021790504455566,-1.8542431592941284,-0.18292799592018127,0.18292799592018127,-0.41158798336982727,38.70000076293945,-174.90000915527344,-23.700000762939453
724951,2.753850221633911,8.87165641784668,-1.8512524366378784,-0.2896359860897064,0.07621999830007553,-0.5945159792900085,31.500001907348633,-177.3000030517578,-26.100000381469727
724971,2.8208422660827637,8.935059547424316,-1.8177565336227417,-0.09908600151538849,0.09146399796009064,-0.5259180068969727,36.30000305175781,-174.90000915527344,-25.500001907348633
724991,2.8543381690979004,8.99427604675293,-1.8004103899002075,-0.16768398880958557,0.18292799592018127,-0.46494197845458984,33.900001525878906,-179.70001220703125,-26.700000762939453
725011,2.811271905899048,8.88182544708252,-1.8105788230895996,-0.26677000522613525,0.25152599811553955,-0.4192099869251251,43.5,-167.70001220703125,-30.30000114440918
725031,2.863908529281616,8.973938941955566,-1.8626172542572021,-0.1448179930448532,0.2439039945602417,-0.2743920087814331,38.70000076293945,-179.70001220703125,-23.700000762939453
725052,2.8812546730041504,8.987696647644043,-1.9056835174560547,-0.16768398880958557,0.17530599236488342,-0.25152599811553955,36.30000305175781,-177.3000030517578,-20.100000381469727
725072,2.8860397338867188,8.944031715393066,-1.9038890600204468,-0.19054999947547913,0.10670799762010574,-0.22103799879550934,41.10000228881836,-182.10000610351562,-29.100000381469727
725092,2.9045822620391846,9.019397735595703,-1.9756662845611572,-0.15243999660015106,0.038109999150037766,-0.2591480016708374,36.30000305175781,-177.3000030517578,-29.100000381469727
725112,2.9853315353393555,9.12168025970459,-1.949347972869873,-0.17530599236488342,-0.09908600151538849,-0.36585599184036255,31.500001907348633,-182.10000610351562,-22.5
725132,3.008060932159424,9.025379180908203,-1.9056835174560547,-0.3201240003108978,-0.16768398880958557,-0.510673999786377,31.500001907348633,-177.3000030517578,-19.5
725152,3.0385663509368896,9.01700496673584,-1.8219435214996338,-0.28201398253440857,-0.1295740008354187,-0.571649968624115,31.500001907348633,-184.5,-27.30000114440918
725172,2.9165451526641846,8.887207984924316,-1.82553231716156,-0.28201398253440857,-0.04573199898004532,-0.7621999979019165,48.30000305175781,-184.5,-26.700000762939453
725192,2.8603196144104004,8.890796661376953,-1.8739819526672363,-0.007621999830007553,-0.04573199898004532,-0.8612859845161438,38.70000076293945,-177.3000030517578,-21.900001525878906
725212,2.6575491428375244,9.088184356689453,-2.0976874828338623,0.25152599811553955,0.007621999830007553,-0.9832379817962646,31.500001907348633,-172.5,-24.30000114440918
725232,2.5325372219085693,9.061267852783203,-2.1024725437164307,0.41158798336982727,-0.228659987449646,-1.1661659479141235,41.10000228881836,-167.70001220703125,-17.700000762939453
725252,2.564239025115967,8.79509449005127,-1.9960031509399414,0.3582339882850647,-0.426831990480423,-1.4024479389190674,45.900001525878906,-179.70001220703125,-26.100000381469727
725272,2.572014808654785,8.29504680633545,-1.8506543636322021,-0.1600620001554489,-0.44969800114631653,-1.3338500261306763,48.30000305175781,-172.5,-23.700000762939453
725292,2.301055908203125,7.557536602020264,-1.5109091997146606,0.030487999320030212,-0.3201240003108978,-1.5015339851379395,33.900001525878906,-184.5,-24.900001525878906
725314,2.7012135982513428,8.70537281036377,-1.6999223232269287,0.15243999660015106,0.5335400104522705,-0.5411620140075684,41.10000228881836,-170.10000610351562,-27.900001525878906
725334,2.2520081996917725,7.963675498962402,-1.7106889486312866,-0.3887220025062561,0.8460419774055481,-1.699705958366394,41.10000228881836,-182.10000610351562,-30.30000114440918
725354,2.0139474868774414,7.026385307312012,-1.5826863050460815,-0.1600620001554489,0.33536797761917114,-2.583858013153076,50.70000076293945,-174.90000915527344,-25.500001907348633
725374,1.5719196796417236,5.181114196777344,-1.1286958456039429,0.23628199100494385,-0.26677000522613525,-4.230209827423096,55.500003814697266,-177.3000030517578,-22.5
725394,0.7943338751792908,3.129483938217163,-0.5861800909042358,0.3887220025062561,-0.5335400104522705,-4.17685604095459,65.10000610351562,-167.70001220703125,-21.30000114440918
725414,0.2912956178188324,2.5409114360809326,-0.3768300712108612,0.2972579896450043,0.3734779953956604,-0.6478700041770935,55.500003814697266,-167.70001220703125,-24.900001525878906
725437,0.4755236506462097,4.538110733032227,-0.8080911636352539,-0.19054999947547913,1.4481799602508545,3.353679895401001,53.10000228881836,-182.10000610351562,-23.700000762939453
725477,1.1920989751815796,9.327441215515137,-2.2424380779266357,-1.9664759635925293,4.237832069396973,10.182991981506348,48.30000305175781,-184.5,-24.30000114440918
725497,2.116229772567749,14.889573097229004,-3.296964168548584,-2.240867853164673,6.128087997436523,13.658623695373535,29.100000381469727,-174.90000915527344,-25.500001907348633
725517,3.570913553237915,19.599349975585938,-4.948436737060547,-1.935987949371338,6.5244317054748535,10.990923881530762,2.700000047683716,-179.70001220703125,-28.500001907348633
725538,4.045240879058838,19.566452026367188,-6.236836910247803,-0.6326259970664978,5.792719841003418,2.0122079849243164,12.300000190734863,-167.70001220703125,-25.500001907348633
725559,8.227457046508789,19.599349975585938,-7.35895299911499,2.583858013153076,1.2500079870224,3.147886037826538,9.90000057220459,-177.3000030517578,-29.700000762939453
725579,12.939626693725586,19.599349975585938,-7.701688766479492,-4.687530040740967,-6.455833911895752,13.666245460510254,2.700000047683716,-170.10000610351562,-20.700000762939453
725599,9.1922607421875,19.599349975585938,-2.26576566696167,-9.28359603881836,-10.983302116394043,-3.3384358882904053,-11.700000762939453,-177.3000030517578,-30.900001525878906
725621,5.558542728424072,16.08167266845703,-4.17384147644043,0.739333987236023,-0.015243999660015106,-8.551883697509766,12.300000190734863,-167.70001220703125,-24.900001525878906
725645,3.0505292415618896,11.480755805969238,-2.6719045639038086,-4.733262062072754,-5.838451862335205,-11.410133361816406,14.700000762939453,-179.70001220703125,-25.500001907348633
725665,1.0951998233795166,5.2804059982299805,1.0557223558425903,-1.981719970703125,-7.705842018127441,-16.059553146362305,33.900001525878906,-184.5,-26.100000381469727
725705,-1.8147658109664917,-3.5039215087890625,0.7733988761901855,-1.478667974472046,-2.042695999145508,-10.122015953063965,55.500003814697266,-177.3000030517578,-27.900001525878906
725731,-0.25540703535079956,-1.955329418182373,0.30086591839790344,3.4375219345092773,1.2652519941329956,2.9802019596099854,79.5,-177.3000030517578,-30.30000114440918
725751,1.9936105012893677,2.8417773246765137,-0.10467501729726791,2.850627899169922,0.3277460038661957,8.201272010803223,60.30000305175781,-174.90000915527344,-27.900001525878906
725791,0.23507018387317657,-0.8427834510803223,-0.23447205126285553,0.1448179930448532,3.094532012939453,-0.3277460038661957,53.10000228881836,-177.3000030517578,-24.30000114440918
725811,0.12202116847038269,-1.930207371711731,-0.13039517402648926,0.8765299916267395,0.7774440050125122,2.2027578353881836,55.500003814697266,-174.90000915527344,-27.30000114440918
725831,0.6705182790756226,-0.2972770631313324,0.20935003459453583,0.4420759975910187,0.38109999895095825,4.275941848754883,43.5,-177.3000030517578,-24.30000114440918
725851,0.35828763246536255,-0.31881019473075867,0.10168430209159851,-0.36585599184036255,0.28201398253440857,2.6067240238189697,38.70000076293945,-177.3000030517578,-22.5
725871,0.43963509798049927,-0.6848737001419067,0.1812373250722885,-0.8841519951820374,-0.342989981174469,2.1112940311431885,36.30000305175781,-179.70001220703125,-27.900001525878906
725891,0.5891708135604858,-0.4282703697681427,0.3971669375896454,-0.967993974685669,-0.4344539940357208,2.088428020477295,38.70000076293945,-172.5,-30.900001525878906
725914,0.8613258600234985,0.20097604393959045,0.4504016637802124,-0.9908599853515625,-0.26677000522613525,2.3094658851623535,36.30000305175781,-172.5,-28.500001907348633
725934,1.526460886001587,2.2191104888916016,0.09151587635278702,0.060975998640060425,0.4420759975910187,4.2988080978393555,38.70000076293945,-179.70001220703125,-28.500001907348633
725954,2.2005679607391357,6.138143062591553,-0.6585553884506226,1.7911700010299683,3.3765459060668945,10.175370216369629,29.100000381469727,-174.90000915527344,-22.5
725974,6.754230499267578,14.84052562713623,-3.326871156692505,1.0594580173492432,7.957367897033691,24.138874053955078,0.30000001192092896,-189.3000030517578,-24.30000114440918
725994,10.557223320007324,19.599349975585938,-4.18580436706543,-5.693634033203125,4.17685604095459,17.865966796875,-9.300000190734863,-170.10000610351562,-28.500001907348633
726017,10.217477798461914,19.59097671508789,-4.129579067230225,1.425313949584961,2.995445966720581,-1.882633924484253,-6.900000095367432,-179.70001220703125,-28.500001907348633
726037,15.569661140441895,19.598752975463867,-7.233941078186035,5.198204040527344,8.170783996582031,13.24703598022461,-21.30000114440918,-167.70001220703125,-24.30000114440918
726057,18.817577362060547,19.599349975585938,-8.345291137695312,-1.9893419742584229,8.902495384216309,18.826339721679688,-33.30000305175781,-174.90000915527344,-26.100000381469727
726077,16.61760711669922,19.599349975585938,-6.506000995635986,-1.2042759656906128,-1.2652519941329956,-3.147886037826538,-38.10000228881836,-165.3000030517578,-27.30000114440918
726097,12.098039627075195,19.599349975585938,-6.695014476776123,5.14484977722168,-5.8689398765563965,-11.570196151733398,-30.900001525878906,-174.90000915527344,-22.5
726120,6.209920406341553,14.271093368530273,-2.765813112258911,-4.451247692108154,-11.295804023742676,-12.652520179748535,-18.900001525878906,-177.3000030517578,-27.900001525878906
726140,3.5451934337615967,7.814737796783447,0.5191881060600281,-1.9740979671478271,-8.666213989257812,-19.337013244628906,5.100000381469727,-174.90000915527344,-26.100000381469727
726160,0.7745951414108276,0.6782941222190857,0.45817750692367554,-0.5868939757347107,-2.8048958778381348,-23.52911376953125,14.700000762939453,-189.3000030517578,-21.900001525878906
726180,-1.9260203838348389,-5.06328010559082,0.5191881060600281,-1.7835479974746704,-2.179892063140869,-16.737911224365234,41.10000228881836,-174.90000915527344,-27.30000114440918
726200,-2.6731009483337402,-5.485569000244141,1.2243986129760742,-1.6158639192581177,0.09908600151538849,-4.184477806091309,45.900001525878906,-172.5,-21.900001525878906
726222,0.022729432210326195,0.4707385301589966,-0.8768776059150696,2.9192259311676025,1.2042759656906128,5.594547748565674,43.5,-167.70001220703125,-21.30000114440918
726242,1.84347665309906,4.572803020477295,-0.3648672103881836,1.013725996017456,-0.9603719711303711,5.533571720123291,38.70000076293945,-179.70001220703125,-23.700000762939453
726264,1.123910665512085,2.2460267543792725,0.06579572707414627,-0.4344539940357208,-0.04573199898004532,-2.591480016708374,53.10000228881836,-177.3000030517578,-30.30000114440918
726284,0.14833945035934448,-1.0168430805206299,-0.1543208807706833,0.2439039945602417,0.038109999150037766,-3.414655923843384,43.5,-172.5,-26.700000762939453
726304,-0.16867631673812866,-1.7208573818206787,0.4330555200576782,-0.22103799879550934,-1.8521459102630615,0.48018598556518555,48.30000305175781,-177.3000030517578,-26.100000381469727
726325,0.00239257188513875,-1.004281997680664,0.6238631010055542,-0.5182960033416748,-0.5259180068969727,2.0503180027008057,43.5,-189.3000030517578,-24.900001525878906
726345,-0.19738717377185822,-0.8762794733047485,0.5114122629165649,-1.013725996017456,-0.17530599236488342,2.126538038253784,53.10000228881836,-177.3000030517578,-26.700000762939453
726368,-0.05502915382385254,-0.2960807681083679,0.4163075089454651,-1.646351933479309,0.6631140112876892,2.385685920715332,43.5,-177.3000030517578,-30.900001525878906
726388,-0.1178341656923294,0.1339840292930603,0.16987259685993195,-1.699705958366394,0.8612859845161438,2.080806016921997,29.100000381469727,-172.5,-27.900001525878906
726408,-0.08852516114711761,0.5891708135604858,0.00239257188513875,-1.1814099550247192,0.9451279640197754,1.8521459102630615,29.100000381469727,-179.70001220703125,-23.100000381469727
726428,0.5544785261154175,2.7317190170288086,-0.6561628580093384,0.9451279640197754,1.4939119815826416,3.8872199058532715,29.100000381469727,-174.90000915527344,-26.100000381469727
726448,1.296773910522461,6.364839553833008,-1.6562578678131104,2.690565824508667,3.559473991394043,8.772921562194824,31.500001907348633,-186.90000915527344,-21.30000114440918
726471,4.054213047027588,13.262025833129883,-2.877067804336548,1.9436099529266357,5.320156097412109,18.780607223510742,12.300000190734863,-184.5,-21.900001525878906
726491,8.061172485351562,19.599349975585938,-4.431641101837158,-2.6677000522613525,5.708878040313721,16.69217872619629,-2.1000001430511475,-165.3000030517578,-23.700000762939453
726512,10.195944786071777,19.55807876586914,-4.8479485511779785,1.0518360137939453,5.320156097412109,3.864353895187378,-6.900000095367432,-179.70001220703125,-29.100000381469727
726532,12.8193998336792,19.599349975585938,-5.544187068939209,4.794238090515137,4.519845962524414,2.2561118602752686,-6.900000095367432,-170.10000610351562,-27.900001525878906
726574,16.8772029876709,19.599349975585938,-6.84993314743042,-3.056421995162964,2.850627899169922,2.278977870941162,-30.900001525878906,-150.90000915527344,-32.70000076293945
726594,14.204699516296387,19.599349975585938,-7.033563137054443,3.711913824081421,-3.5975840091705322,-8.85676383972168,-28.500001907348633,-165.3000030517578,-27.30000114440918
726615,9.62770938873291,18.535253524780273,-4.76361083984375,-2.0503180027008057,-7.705842018127441,-9.588476181030273,-30.900001525878906,-162.90000915527344,-26.100000381469727
726637,4.737292289733887,10.561410903930664,-1.3410365581512451,-0.8612859845161438,-5.838451862335205,-13.628135681152344,-11.700000762939453,-177.3000030517578,-21.30000114440918
726677,-0.6866681575775146,-1.2243986129760742,0.4970568120479584,-1.1356779336929321,-1.0975680351257324,-17.568710327148438,41.10000228881836,-182.10000610351562,-19.5
726697,-1.9439646005630493,-3.8173484802246094,0.7369121313095093,-1.8369019031524658,-0.114329993724823,-9.184510231018066,26.700000762939453,-177.3000030517578,-25.500001907348633
726718,0.03708486258983612,-0.7345195412635803,0.4019520878791809,0.7240899801254272,-0.2134159952402115,0.25152599811553955,41.10000228881836,-184.5,-26.100000381469727
726738,0.8529518842697144,1.615584135055542,0.805698573589325,1.0442140102386475,-0.4192099869251251,0.8079319596290588,43.5,-174.90000915527344,-24.900001525878906
726761,0.715977132320404,0.9917210340499878,0.34512850642204285,0.5411620140075684,1.196653962135315,-0.7012239694595337,45.900001525878906,-162.90000915527344,-26.100000381469727
726781,0.4928697943687439,0.4844958186149597,0.7428935766220093,-0.02286599949002266,0.5411620140075684,-0.09146399796009064,45.900001525878906,-170.10000610351562,-24.30000114440918
726802,0.11005830764770508,-0.22011661529541016,0.7333232760429382,-0.6173819899559021,0.7850660085678101,-0.342989981174469,38.70000076293945,-165.3000030517578,-27.30000114440918
726822,-0.3253897726535797,-0.9971043467521667,0.7692118883132935,-0.7469559907913208,0.7621999979019165,-0.6554920077323914,48.30000305175781,-172.5,-25.500001907348633
726842,-0.3546987771987915,-1.0742647647857666,0.8104837536811829,-0.5411620140075684,0.9222619533538818,-0.1600620001554489,38.70000076293945,-184.5,-17.700000762939453
726862,-0.09929173439741135,-0.48329952359199524,0.6794903874397278,-0.4344539940357208,1.2728739976882935,0.06859800219535828,29.100000381469727,-182.10000610351562,-24.30000114440918
726882,-0.0029907147400081158,-0.29069748520851135,0.5221788287162781,-0.6021379828453064,1.478667974472046,-0.114329993724823,33.900001525878906,-177.3000030517578,-24.900001525878906
726902,-0.10347873717546463,-0.45578494668006897,0.5616562366485596,-0.5411620140075684,1.5091559886932373,-0.2743920087814331,45.900001525878906,-182.10000610351562,-20.100000381469727
726922,-0.04665515199303627,-0.27155691385269165,0.40853163599967957,-0.18292799592018127,1.4329359531402588,0.060975998640060425,36.30000305175781,-170.10000610351562,-17.700000762939453
726945,0.32180091738700867,2.0582098960876465,-0.40972793102264404,2.843005895614624,2.8048958778381348,2.5609920024871826,31.500001907348633,-167.70001220703125,-24.900001525878906
726965,1.4798057079315186,7.274016857147217,-2.077350616455078,7.728707790374756,7.9268798828125,13.269901275634766,19.5,-165.3000030517578,-17.100000381469727
726985,9.913022994995117,19.206968307495117,-5.824716091156006,3.4832539558410645,14.71045970916748,34.626747131347656,0.30000001192092896,-162.90000915527344,-21.900001525878906
727005,16.328704833984375,19.50723648071289,-7.678361415863037,-5.160093784332275,12.096114158630371,23.59771156311035,-26.100000381469727,-177.3000030517578,-22.5
727045,16.425006866455078,19.598752975463867,-10.250974655151367,13.590025901794434,11.554951667785645,5.678390026092529,-23.700000762939453,-172.5,-18.900001525878906
727065,18.15962028503418,19.599349975585938,-11.456830024719238,-7.4390716552734375,3.3155698776245117,15.144913673400879,-35.70000076293945,-165.3000030517578,-26.100000381469727
727085,15.037912368774414,19.599349975585938,-8.502004623413086,-0.06859800219535828,-8.948227882385254,-6.196685791015625,-45.30000305175781,-165.3000030517578,-23.100000381469727
727107,10.170823097229004,17.899429321289062,-6.386970520019531,-0.44969800114631653,-17.60681915283203,-13.254657745361328,-38.10000228881836,-165.3000030517578,-18.900001525878906
727127,4.40891170501709,10.646347045898438,-1.83450448513031,-8.742433547973633,-16.997058868408203,-14.390336036682129,-18.900001525878906,-165.3000030517578,-17.100000381469727
727147,1.511507272720337,5.17393684387207,0.7674174308776855,-2.9116039276123047,-6.661627769470215,-17.065658569335938,-4.5,-162.90000915527344,-20.100000381469727
727167,0.023925717920064926,0.12381559610366821,-0.9988987445831299,0.228659987449646,-2.5152599811553955,-17.35529327392578,21.900001525878906,-179.70001220703125,-24.30000114440918
727190,-1.2620816230773926,-2.5474908351898193,0.8110818862915039,-2.698187828063965,-4.496979713439941,-8.788166046142578,26.700000762939453,-179.70001220703125,-21.900001525878906
727211,0.500047504901886,-0.021533146500587463,0.8266335725784302,-1.4100699424743652,-0.7698220014572144,-0.38109999895095825,19.5,-179.70001220703125,-17.100000381469727
727232,0.6747052669525146,1.3476160764694214,0.6938458681106567,-1.067080020904541,-0.6326259970664978,-1.1661659479141235,36.30000305175781,-177.3000030517578,-26.700000762939453
727252,0.7961282730102539,0.19320018589496613,0.48928093910217285,-1.3795819282531738,0.5259180068969727,-2.0198299884796143,41.10000228881836,-179.70001220703125,-15.300000190734863
727272,0.7267436981201172,0.37563377618789673,0.60950767993927,-0.739333987236023,0.4192099869251251,-0.8155539631843567,36.30000305175781,-184.5,-19.5
727292,0.6113021373748779,-0.6950421333312988,1.1065645217895508,-1.2118979692459106,0.1600620001554489,-1.7454379796981812,38.70000076293945,-177.3000030517578,-28.500001907348633
727312,0.8792701959609985,-0.818857729434967,1.2166228294372559,-1.0594580173492432,0.23628199100494385,-1.021347999572754,26.700000762939453,-174.90000915527344,-25.500001907348633
727332,1.3135219812393188,-0.6190779805183411,1.299764633178711,-1.829279899597168,0.8384199738502502,0.2896359860897064,43.5,-177.3000030517578,-19.5
727352,0.7590434551239014,-1.5886677503585815,1.3212977647781372,-2.0655620098114014,2.0579400062561035,0.2896359860897064,38.70000076293945,-179.70001220703125,-24.30000114440918
727375,0.43664437532424927,-1.2979702949523926,0.8451760411262512,-1.013725996017456,3.003067970275879,1.2271419763565063,48.30000305175781,-189.3000030517578,-32.10000228881836
727437,0.08673073351383209,0.8702980279922485,-0.5580673813819885,1.9969639778137207,2.995445966720581,1.6615959405899048,36.30000305175781,-182.10000610351562,-21.900001525878906
727471,2.057013750076294,11.551337242126465,-4.4220709800720215,6.067111968994141,10.022930145263672,16.77602195739746,19.5,-167.70001220703125,-19.5
727493,9.340002059936523,19.599349975585938,-6.652545928955078,-0.228659987449646,9.222620010375977,23.155635833740234,7.500000476837158,-170.10000610351562,-24.30000114440918
727535,12.328324317932129,19.599349975585938,-6.889410972595215,4.451247692108154,7.111325740814209,-8.993959426879883,-14.100000381469727,-174.90000915527344,-22.5
727555,17.035112380981445,19.599349975585938,-11.569879531860352,4.222588062286377,12.423859596252441,11.486353874206543,-23.700000762939453,-167.70001220703125,-17.700000762939453
727575,16.640336990356445,19.599349975585938,-10.393930435180664,-7.294253826141357,0.4344539940357208,0.800309956073761,-30.900001525878906,-165.3000030517578,-27.30000114440918
727595,12.406681060791016,19.599349975585938,-7.20164155960083,-7.774439811706543,-12.728739738464355,-9.093046188354492,-28.500001907348633,-170.10000610351562,-25.500001907348633
727615,8.502004623413086,19.178855895996094,-3.2838048934936523,-8.963471412658691,-14.7866792678833,-10.846105575561523,-23.700000762939453,-177.3000030517578,-24.30000114440918
727635,4.782153129577637,12.152470588684082,-0.3576894998550415,-6.798823833465576,-8.940606117248535,-15.632721900939941,5.100000381469727,-167.70001220703125,-27.30000114440918
727655,2.414703130722046,4.389771461486816,-0.04904772341251373,-3.0335559844970703,-4.961921691894531,-21.730321884155273,7.500000476837158,-174.90000915527344,-24.30000114440918
727675,-0.7393047213554382,-2.9009933471679688,0.703416109085083,-0.41158798336982727,-5.320156097412109,-19.64189338684082,36.30000305175781,-167.70001220703125,-26.700000762939453
727735,1.8566358089447021,2.7113821506500244,0.22490175068378448,3.6890478134155273,-1.0975680351257324,5.14484977722168,38.70000076293945,-174.90000915527344,-20.700000762939453
727790,0.052038438618183136,-1.20406174659729,-0.179442897439003,2.0045859813690186,0.457319974899292,-1.5015339851379395,45.900001525878906,-177.3000030517578,-21.900001525878906
727892,0.31402507424354553,0.31701576709747314,0.31103435158729553,-0.1295740008354187,-0.8307979702949524,2.1189160346984863,29.100000381469727,-184.5,-22.5
727912,0.46595337986946106,0.19798532128334045,0.6782941222190857,-0.6478700041770935,-1.3948259353637695,1.8521459102630615,31.500001907348633,-177.3000030517578,-24.900001525878906
727954,1.830317497253418,2.7071950435638428,0.22430361807346344,0.9070180058479309,-0.9527499675750732,5.030519962310791,36.30000305175781,-179.70001220703125,-23.100000381469727
727975,2.7729907035827637,6.533515453338623,0.12381559610366821,1.8445239067077637,1.3872039318084717,10.381163597106934,29.100000381469727,-177.3000030517578,-22.5
727996,6.52035665512085,14.062939643859863,-2.2849061489105225,0.457319974899292,8.993959426879883,22.965085983276367,12.300000190734863,-186.90000915527344,-26.700000762939453
728020,15.300497055053711,19.520994186401367,-7.10294771194458,-3.3765459060668945,11.516841888427734,15.320219993591309,-21.30000114440918,-179.70001220703125,-24.30000114440918
728040,12.059160232543945,19.599349975585938,-5.641086578369141,7.812549591064453,4.527467727661133,-13.102217674255371,-16.5,-165.3000030517578,-23.700000762939453
728060,17.34494972229004,19.598752975463867,-11.018989562988281,11.707391738891602,9.39792537689209,15.144913673400879,-47.70000076293945,-170.10000610351562,-23.100000381469727
728080,19.15373420715332,19.599349975585938,-9.485949516296387,-12.416237831115723,0.2972579896450043,12.99551010131836,-50.10000228881836,-170.10000610351562,-21.30000114440918
728100,15.898640632629395,19.599349975585938,-6.456355094909668,-1.2576299905776978,-10.122015953063965,-7.004617691040039,-54.900001525878906,-155.70001220703125,-29.100000381469727
728122,10.840743064880371,18.901317596435547,-5.09916877746582,-2.1189160346984863,-10.914703369140625,-11.92842960357666,-38.10000228881836,-167.70001220703125,-22.5
728142,6.533515453338623,13.131630897521973,-1.731623888015747,-8.407065391540527,-10.03817367553711,-12.461969375610352,-26.100000381469727,-170.10000610351562,-23.100000381469727
728165,3.9573140144348145,7.3673272132873535,0.6310408115386963,-4.474113941192627,-5.670767784118652,-18.201335906982422,-16.5,-167.70001220703125,-23.700000762939453
728185,1.2136321067810059,0.711790144443512,0.7297344207763672,-2.987823963165283,-2.7134318351745605,-22.538253784179688,7.500000476837158,-179.70001220703125,-23.100000381469727
728205,-1.8680005073547363,-4.642187595367432,1.320699691772461,-2.1112940311431885,-1.6692179441452026,-16.86748504638672,33.900001525878906,-174.90000915527344,-20.700000762939453
728266,1.2931851148605347,2.926713466644287,0.6226668357849121,1.7835479974746704,0.33536797761917114,0.6326259970664978,36.30000305175781,-174.90000915527344,-23.100000381469727
728431,-0.03588857874274254,1.2812222242355347,-0.2506219148635864,1.1128119230270386,0.6631140112876892,0.35061198472976685,41.10000228881836,-186.90000915527344,-20.700000762939453
728451,0.5018419623374939,4.663122653961182,-1.2596890926361084,3.3231918811798096,3.2622158527374268,5.198204040527344,38.70000076293945,-172.5,-27.900001525878906
728493,12.906728744506836,19.599349975585938,-7.6472578048706055,-2.431417942047119,10.693665504455566,32.484962463378906,-16.5,-174.90000915527344,-23.700000762939453
728514,10.265928268432617,19.547311782836914,-2.846562385559082,-10.564091682434082,-8.589993476867676,-8.46804141998291,-18.900001525878906,-167.70001220703125,-18.900001525878906
728534,4.802489757537842,12.752408027648926,-1.539620041847229,7.553401947021484,-0.8917739987373352,-21.532150268554688,5.100000381469727,-172.5,-18.900001525878906
728554,7.780045509338379,18.256519317626953,-6.819427967071533,6.250040054321289,10.983302116394043,8.025965690612793,19.5,-172.5,-26.100000381469727
728574,9.08579158782959,19.57901382446289,-7.29913854598999,-8.978715896606445,5.14484977722168,9.634207725524902,-2.1000001430511475,-172.5,-24.30000114440918
728594,6.254781246185303,19.206371307373047,-5.886923313140869,3.96343994140625,-6.013757705688477,-17.446758270263672,7.500000476837158,-174.90000915527344,-21.30000114440918
728614,3.4979400634765625,11.267817497253418,-4.609289646148682,6.143332004547119,-14.443689346313477,-21.67696762084961,26.700000762939453,-167.70001220703125,-23.700000762939453
728634,0.46236452460289,6.951019287109375,0.5263658165931702,-4.458869934082031,-10.388785362243652,-12.843070030212402,50.70000076293945,-165.3000030517578,-24.900001525878906
728657,0.29667890071868896,5.141636848449707,-2.7735888957977295,-0.5182960033416748,0.8841519951820374,-5.243936061859131,57.900001525878906,-186.90000915527344,-21.900001525878906
728677,0.18901318311691284,3.7994041442871094,-0.7829691767692566,-1.7683039903640747,-3.460387945175171,-2.987823963165283,60.30000305175781,-167.70001220703125,-27.900001525878906
728719,0.9079810380935669,4.0584001541137695,-1.4552818536758423,-1.9893419742584229,1.196653962135315,3.048799991607666,48.30000305175781,-170.10000610351562,-27.900001525878906
728741,1.433748722076416,4.704992771148682,-1.0078709125518799,-1.6234859228134155,1.0442140102386475,3.5747179985046387,65.10000610351562,-174.90000915527344,-22.5
728761,1.8632153272628784,5.342014789581299,-1.4768149852752686,-1.4405579566955566,1.5167779922485352,3.8491098880767822,55.500003814697266,-177.3000030517578,-22.5
728781,1.9738718271255493,5.782248020172119,-1.6191730499267578,-0.853663980960846,1.1128119230270386,3.60520601272583,38.70000076293945,-174.90000915527344,-25.500001907348633
728801,2.3441224098205566,6.811652183532715,-1.5892658233642578,0.038109999150037766,0.8612859845161438,3.9786839485168457,43.5,-172.5,-26.700000762939453
728821,2.867497444152832,8.34469223022461,-1.552779197692871,-0.23628199100494385,0.7774440050125122,4.100636005401611,43.5,-172.5,-23.700000762939453
728841,3.227579355239868,10.110410690307617,-1.7118852138519287,-0.5259180068969727,1.92836594581604,4.131124019622803,29.100000381469727,-179.70001220703125,-26.700000762939453
728864,7.28717565536499,17.97718620300293,-4.564428806304932,-0.9375059604644775,5.564059734344482,12.012271881103516,26.700000762939453,-189.3000030517578,-21.30000114440918
728884,6.950421333312988,15.506258010864258,-2.7909350395202637,-5.647902011871338,-2.850627899169922,-4.344540119171143,17.100000381469727,-172.5,-23.700000762939453
728904,2.1419498920440674,6.72851037979126,-0.3666616380214691,1.3262280225753784,-3.7347798347473145,-16.379676818847656,19.5,-170.10000610351562,-27.900001525878906
728924,-0.403148353099823,3.4919586181640625,-1.7800735235214233,3.4832539558410645,1.2271419763565063,-7.835415840148926,33.900001525878906,-177.3000030517578,-24.900001525878906
728944,1.8327100276947021,8.63180160522461,-2.324981689453125,-1.8216580152511597,-0.3201240003108978,5.731743812561035,38.70000076293945,-179.70001220703125,-22.5
728964,3.251505136489868,11.854595184326172,-0.8708961606025696,-1.8902559280395508,-0.6707359552383423,2.5762360095977783,36.30000305175781,-184.5,-23.700000762939453
728986,2.7221486568450928,8.664100646972656,-1.5868732929229736,0.3048799932003021,1.425313949584961,-4.78661584854126,45.900001525878906,-179.70001220703125,-21.30000114440918
729006,2.2185122966766357,6.543684005737305,-1.5533772706985474,0.457319974899292,0.9527499675750732,-3.056421995162964,26.700000762939453,-172.5,-27.30000114440918
729026,2.286700487136841,8.200540542602539,-1.6562578678131104,0.5640279650688171,1.2500079870224,1.3109840154647827,43.5,-179.70001220703125,-25.500001907348633
729046,2.426666021347046,9.113306045532227,-2.0635931491851807,0.6326259970664978,1.478667974472046,0.9908599853515625,31.500001907348633,-179.70001220703125,-26.100000381469727
729066,2.6635305881500244,8.97214412689209,-1.8895336389541626,0.5030519962310791,1.2804960012435913,0.25152599811553955,55.500003814697266,-184.5,-22.5
729086,3.060697555541992,9.581652641296387,-2.1658756732940674,0.6173819899559021,1.5548880100250244,0.5792719721794128,41.10000228881836,-174.90000915527344,-26.100000381469727
729149,2.5528740882873535,9.429125785827637,-2.4673397541046143,0.2743920087814331,0.7317119836807251,0.39634400606155396,31.500001907348633,-182.10000610351562,-28.500001907348633
729171,2.2579896450042725,9.35076904296875,-2.3704404830932617,0.09908600151538849,-0.06859800219535828,-0.3048799932003021,41.10000228881836,-182.10000610351562,-24.900001525878906
729192,2.23585844039917,8.828590393066406,-2.0546212196350098,-0.2591480016708374,-0.9298839569091797,-1.4558019638061523,41.10000228881836,-177.3000030517578,-21.900001525878906
729212,2.518181800842285,8.994874000549316,-1.8099806308746338,-0.41158798336982727,-1.0442140102386475,-1.524399995803833,48.30000305175781,-172.5,-25.500001907348633
729232,2.6814749240875244,8.883021354675293,-1.5659383535385132,-1.0975680351257324,-0.7469559907913208,-1.4558019638061523,45.900001525878906,-182.10000610351562,-29.700000762939453
729252,2.6940360069274902,8.77595329284668,-1.5653401613235474,-1.5320219993591309,-0.1600620001554489,-1.1204339265823364,48.30000305175781,-182.10000610351562,-24.30000114440918
729272,2.7652149200439453,8.82201099395752,-1.523470163345337,-1.3567159175872803,0.23628199100494385,-0.7012239694595337,36.30000305175781,-179.70001220703125,-26.700000762939453
729295,2.7233450412750244,8.838160514831543,-1.6550616025924683,-1.189031958580017,0.5411620140075684,-0.2972579896450043,29.100000381469727,-182.10000610351562,-24.30000114440918
729315,2.6892507076263428,8.897974967956543,-1.6897538900375366,-0.6783579587936401,0.5259180068969727,0.038109999150037766,38.70000076293945,-170.10000610351562,-29.100000381469727
729335,2.6844656467437744,8.896778106689453,-1.6580523252487183,-0.41158798336982727,0.48018598556518555,0.22103799879550934,50.70000076293945,-184.5,-32.10000228881836
729355,2.6689138412475586,9.02298641204834,-1.7417923212051392,-0.1600620001554489,0.2896359860897064,0.3201240003108978,38.70000076293945,-182.10000610351562,-24.30000114440918
729375,2.5678277015686035,8.951210021972656,-1.7645217180252075,-0.06859800219535828,-0.02286599949002266,0.16768398880958557,41.10000228881836,-179.70001220703125,-27.30000114440918
729395,2.6461844444274902,9.15756893157959,-1.6909501552581787,0.13719600439071655,-0.39634400606155396,0.10670799762010574,48.30000305175781,-189.3000030517578,-24.900001525878906
729415,2.668315887451172,9.25925350189209,-1.746577501296997,-0.33536797761917114,-0.7545779943466187,-0.3734779953956604,48.30000305175781,-177.3000030517578,-26.100000381469727
729435,2.6240532398223877,8.713747024536133,-1.6203693151474,-0.38109999895095825,-0.9298839569091797,-0.6707359552383423,45.900001525878906,-184.5,-27.30000114440918
729455,2.6216607093811035,9.074426651000977,-1.6658282279968262,0.2743920087814331,-0.8689079880714417,-0.5487840175628662,50.70000076293945,-174.90000915527344,-19.5
729475,2.5911552906036377,9.153382301330566,-1.7370071411132812,0.04573199898004532,-0.6783579587936401,-0.6021379828453064,36.30000305175781,-182.10000610351562,-18.900001525878906
729496,2.4188902378082275,8.982911109924316,-1.7926344871520996,0.06859800219535828,-0.739333987236023,-0.7240899801254272,38.70000076293945,-182.10000610351562,-18.900001525878906
729516,2.4093198776245117,9.01222038269043,-1.7633254528045654,0.1295740008354187,-0.7850660085678101,-0.685979962348938,41.10000228881836,-174.90000915527344,-29.100000381469727
729536,2.20296049118042,9.17850399017334,-1.9074779748916626,0.060975998640060425,-0.6554920077323914,-0.6707359552383423,45.900001525878906,-184.5,-16.5
729559,2.143744468688965,9.206018447875977,-2.104266881942749,0.09146399796009064,-0.8765299916267395,-0.8307979702949524,45.900001525878906,-186.90000915527344,-24.900001525878906
729579,2.199371814727783,8.94343376159668,-1.9086742401123047,0.1448179930448532,-1.1814099550247192,-0.8689079880714417,36.30000305175781,-179.70001220703125,-25.500001907348633
729623,2.2466249465942383,8.905152320861816,-2.0432562828063965,0.007621999830007553,-1.196653962135315,-0.22103799879550934,33.900001525878906,-179.70001220703125,-26.100000381469727
729684,2.348907470703125,9.272412300109863,-2.145538806915283,-0.1295740008354187,-0.9756159782409668,0.1448179930448532,45.900001525878906,-179.70001220703125,-20.700000762939453
729770,2.4308531284332275,9.143811225891113,-1.9798532724380493,-0.6402480006217957,0.05335399881005287,-0.114329993724823,38.70000076293945,-186.90000915527344,-20.700000762939453
729810,2.3596739768981934,8.923694610595703,-1.716670274734497,-0.8689079880714417,0.510673999786377,-0.3125019967556,50.70000076293945,-172.5,-24.30000114440918
729830,2.5026302337646484,9.240711212158203,-1.722651720046997,-0.6554920077323914,0.7545779943466187,-0.08384199440479279,45.900001525878906,-179.70001220703125,-26.100000381469727
729870,2.074958086013794,9.085193634033203,-2.2908875942230225,1.5701320171356201,0.7317119836807251,-0.228659987449646,45.900001525878906,-189.3000030517578,-26.100000381469727
729890,2.3835997581481934,9.114502906799316,-1.5940510034561157,-0.6936019659042358,0.8384199738502502,-0.22103799879550934,33.900001525878906,-174.90000915527344,-27.900001525878906
729930,2.2579896450042725,8.99906063079834,-1.6969316005706787,0.2896359860897064,0.9375059604644775,-0.6631140112876892,53.10000228881836,-170.10000610351562,-23.100000381469727
729950,2.179034948348999,9.10074520111084,-1.9116649627685547,0.10670799762010574,1.425313949584961,-0.510673999786377,53.10000228881836,-179.70001220703125,-20.700000762939453
729992,1.9601144790649414,8.875245094299316,-1.948151707649231,0.3125019967556,1.9131219387054443,0.228659987449646,41.10000228881836,-177.3000030517578,-26.700000762939453
730034,2.179034948348999,9.074426651000977,-2.139557361602783,0.8384199738502502,2.6067240238189697,2.1189160346984863,38.70000076293945,-155.70001220703125,-22.5
730133,2.6300346851348877,8.933265686035156,-1.8853466510772705,0.6402480006217957,0.114329993724823,0.38109999895095825,36.30000305175781,-158.10000610351562,-25.500001907348633
730248,2.444610357284546,9.040332794189453,-2.3237855434417725,-0.5259180068969727,0.04573199898004532,-0.7774440050125122,38.70000076293945,-167.70001220703125,-23.700000762939453
730308,1.946357250213623,8.759803771972656,-1.6610430479049683,-3.1326420307159424,-2.2561118602752686,-3.1402640342712402,48.30000305175781,-172.5,-21.900001525878906
730489,2.1383612155914307,8.969752311706543,-1.5330404043197632,-0.28201398253440857,0.015243999660015106,-0.26677000522613525,41.10000228881836,-174.90000915527344,-26.700000762939453
730534,2.22688627243042,9.019397735595703,-1.321895956993103,0.19817200303077698,0.19817200303077698,0.228659987449646,50.70000076293945,-179.70001220703125,-31.500001907348633
730554,2.036078691482544,9.263440132141113,-1.83151376247406,7.39333963394165,2.126538038253784,-0.015243999660015106,41.10000228881836,-179.70001220703125,-22.5
730594,3.4835846424102783,9.89448070526123,-1.2531095743179321,-0.7164679765701294,3.3384358882904053,3.041177988052368,48.30000305175781,-174.90000915527344,-21.30000114440918
730614,1.7950270175933838,8.985901832580566,-2.694634199142456,1.4481799602508545,1.1737879514694214,-0.5335400104522705,38.70000076293945,-165.3000030517578,-27.30000114440918
730634,2.8148608207702637,9.27121639251709,-1.62336003780365,0.06859800219535828,1.5929979085922241,0.967993974685669,48.30000305175781,-177.3000030517578,-23.100000381469727
730654,2.133575916290283,8.833374977111816,-2.354290723800659,-0.038109999150037766,1.2804960012435913,-0.4878079891204834,43.5,-189.3000030517578,-25.500001907348633
730698,2.292083978652954,8.902759552001953,-1.9188426733016968,0.4725639820098877,0.5411620140075684,0.3277460038661957,36.30000305175781,-167.70001220703125,-26.700000762939453
730718,2.504424571990967,9.326245307922363,-2.1210150718688965,0.5868939757347107,1.0899460315704346,0.228659987449646,33.900001525878906,-182.10000610351562,-27.900001525878906
730738,2.4039366245269775,8.840553283691406,-2.25081205368042,0.5945159792900085,0.7774440050125122,-0.3048799932003021,48.30000305175781,-182.10000610351562,-21.900001525878906
730780,2.333355665206909,8.982911109924316,-2.345916748046875,0.05335399881005287,-0.9603719711303711,-1.295740008354187,50.70000076293945,-174.90000915527344,-25.500001907348633
730822,2.375225782394409,8.971546173095703,-2.0306954383850098,-1.1280559301376343,-2.187514066696167,-1.0747020244598389,60.30000305175781,-174.90000915527344,-20.100000381469727
730891,2.387786626815796,8.991883277893066,-1.9559274911880493,-0.685979962348938,-0.5335400104522705,-0.3734779953956604,57.900001525878906,-179.70001220703125,-21.30000114440918
730911,2.4224791526794434,9.265832901000977,-1.6736040115356445,-0.15243999660015106,-0.2896359860897064,-0.6326259970664978,45.900001525878906,-174.90000915527344,-18.900001525878906
730951,2.1240057945251465,9.215588569641113,-1.8327100276947021,-0.9070180058479309,-1.14329993724823,-1.0289700031280518,53.10000228881836,-174.90000915527344,-20.700000762939453
730974,2.289691209793091,9.290356636047363,-1.317708969116211,-0.7012239694595337,0.02286599949002266,-0.7774440050125122,43.5,-170.10000610351562,-22.5
731014,1.6514726877212524,8.91352653503418,-1.6646318435668945,0.46494197845458984,2.385685920715332,-1.189031958580017,48.30000305175781,-179.70001220703125,-22.5
731076,1.61737859249115,9.221570014953613,-1.5091147422790527,-0.7164679765701294,-2.949713945388794,-0.6783579587936401,60.30000305175781,-162.90000915527344,-17.700000762939453
731096,1.5019370317459106,9.03016471862793,-1.7980177402496338,0.02286599949002266,-2.1112940311431885,-0.739333987236023,53.10000228881836,-170.10000610351562,-19.5
731116,1.6676225662231445,9.08878231048584,-2.2215030193328857,-0.06859800219535828,-3.5823400020599365,-0.3048799932003021,45.900001525878906,-174.90000915527344,-17.700000762939453
731136,1.6544634103775024,9.201831817626953,-1.7603347301483154,-1.4329359531402588,-5.137228012084961,0.5411620140075684,69.9000015258789,-174.90000915527344,-27.900001525878906
731159,2.042060136795044,9.525426864624023,-1.6090046167373657,-2.6295900344848633,-4.74850606918335,1.7149499654769897,65.10000610351562,-186.90000915527344,-19.5
731179,1.0975923538208008,8.96735954284668,-1.6933428049087524,-3.155508041381836,-5.525949954986572,1.707327961921692,60.30000305175781,-179.70001220703125,-16.5
731199,4.198365688323975,10.745039939880371,-3.3161046504974365,-18.80347442626953,8.635725975036621,7.423827648162842,45.900001525878906,-189.3000030517578,-26.100000381469727
731261,2.0097603797912598,9.408788681030273,-1.1920989751815796,-0.3048799932003021,-0.510673999786377,0.07621999830007553,43.5,-184.5,-27.900001525878906
731303,2.4063291549682617,9.08100700378418,-1.4044396877288818,1.1814099550247192,-0.800309956073761,-0.04573199898004532,53.10000228881836,-177.3000030517578,-27.900001525878906
731323,2.4787044525146484,8.75920581817627,-1.2806241512298584,0.44969800114631653,-0.04573199898004532,0,57.900001525878906,-174.90000915527344,-27.30000114440918
731343,2.4882748126983643,8.60189437866211,-1.505525827407837,0.9527499675750732,0.33536797761917114,0.3125019967556,43.5,-179.70001220703125,-30.30000114440918
731363,2.274139642715454,8.071341514587402,-1.5623494386672974,0.28201398253440857,0.8917739987373352,0,48.30000305175781,-186.90000915527344,-23.700000762939453
731383,2.0133492946624756,7.511479377746582,-1.7519607543945312,0.7850660085678101,1.0442140102386475,0.015243999660015106,48.30000305175781,-186.90000915527344,-27.30000114440918
731403,2.6748952865600586,8.560622215270996,-1.9834420680999756,1.371959924697876,1.0289700031280518,1.3262280225753784,50.70000076293945,-189.3000030517578,-26.700000762939453
731423,3.1103434562683105,9.960874557495117,-2.6952321529388428,1.2347639799118042,2.3628199100494385,1.6692179441452026,41.10000228881836,-174.90000915527344,-27.900001525878906
731443,3.0415570735931396,9.703673362731934,-3.3573765754699707,0.9298839569091797,1.9054999351501465,-0.17530599236488342,43.5,-170.10000610351562,-26.100000381469727
731463,2.49485445022583,8.406899452209473,-3.23176646232605,1.9054999351501465,0.510673999786377,-1.5853760242462158,38.70000076293945,-172.5,-23.100000381469727
731483,2.706596851348877,8.736475944519043,-3.3286657333374023,2.637212038040161,-0.2896359860897064,-0.5487840175628662,43.5,-170.10000610351562,-26.700000762939453
731503,2.9159469604492188,9.496715545654297,-3.3346471786499023,2.5076379776000977,-0.4878079891204834,-0.6326259970664978,38.70000076293945,-179.70001220703125,-33.30000305175781
731523,3.145035743713379,9.4554443359375,-3.386087417602539,2.294221878051758,-0.5868939757347107,-1.1814099550247192,57.900001525878906,-184.5,-24.30000114440918
731543,3.1785316467285156,9.176111221313477,-3.168363332748413,1.4024479389190674,-0.800309956073761,-1.3109840154647827,48.30000305175781,-174.90000915527344,-20.700000762939453
731563,3.043949604034424,8.576173782348633,-3.055314302444458,0.4192099869251251,-0.38109999895095825,-1.417691946029663,45.900001525878906,-170.10000610351562,-16.5
731583,2.9679853916168213,8.284279823303223,-2.9949018955230713,0.16768398880958557,-0.114329993724823,-1.021347999572754,53.10000228881836,-184.5,-25.500001907348633
731603,3.096586227416992,8.576173782348633,-2.7885425090789795,-0.4878079891204834,-0.04573199898004532,-0.41158798336982727,43.5,-179.70001220703125,-25.500001907348633
731625,2.9560225009918213,8.287869453430176,-2.9225265979766846,-1.3567159175872803,0.20579399168491364,-0.3048799932003021,53.10000228881836,-179.70001220703125,-21.30000114440918
731646,2.965592861175537,8.143118858337402,-2.7705981731414795,-0.8079319596290588,-0.09908600151538849,0.10670799762010574,50.70000076293945,-167.70001220703125,-21.30000114440918
731666,2.969181776046753,8.15747356414795,-2.676689863204956,-0.967993974685669,-0.02286599949002266,0.41158798336982727,53.10000228881836,-172.5,-18.30000114440918
731686,2.8513474464416504,8.1425199508667,-2.7143728733062744,-0.8384199738502502,0.05335399881005287,0.4420759975910187,45.900001525878906,-182.10000610351562,-27.900001525878906
731728,3.150418996810913,8.263344764709473,-2.7442798614501953,-0.36585599184036255,-0.3277460038661957,0.35061198472976685,48.30000305175781,-170.10000610351562,-23.700000762939453
731748,2.9434616565704346,7.902066707611084,-2.790336847305298,-0.09146399796009064,-0.39634400606155396,0.22103799879550934,36.30000305175781,-174.90000915527344,-24.900001525878906
731768,2.912358045578003,7.992984294891357,-2.927311658859253,0.571649968624115,-0.7240899801254272,0.426831990480423,74.70000457763672,-170.10000610351562,-19.5
731788,3.093595504760742,8.487648963928223,-2.956620693206787,0.739333987236023,-0.9832379817962646,0.4344539940357208,41.10000228881836,-182.10000610351562,-18.900001525878906
731810,3.1163249015808105,8.548659324645996,-2.9608078002929688,0.4039659798145294,-1.242385983467102,-0.20579399168491364,50.70000076293945,-174.90000915527344,-20.700000762939453
731830,3.1665689945220947,8.66948413848877,-2.971574306488037,0.26677000522613525,-1.3643379211425781,-0.2972579896450043,53.10000228881836,-167.70001220703125,-29.700000762939453
731852,3.4153964519500732,9.603185653686523,-2.924320936203003,0.5259180068969727,-0.914639949798584,0.457319974899292,43.5,-170.10000610351562,-28.500001907348633
731872,4.845556259155273,12.446757316589355,-3.850844383239746,0.48018598556518555,0.3125019967556,3.6356940269470215,50.70000076293945,-177.3000030517578,-20.700000762939453
731892,4.24262809753418,10.879024505615234,-2.6928396224975586,-2.9344699382781982,-3.056421995162964,-2.7744078636169434,48.30000305175781,-167.70001220703125,-21.900001525878906
731913,2.998490810394287,7.36493444442749,-1.8907299041748047,-0.3887220025062561,-2.7210538387298584,-4.57319974899292,48.30000305175781,-182.10000610351562,-21.30000114440918
731933,2.3477110862731934,6.4635329246521,-1.6837724447250366,-1.295740008354187,-1.295740008354187,-0.5868939757347107,50.70000076293945,-162.90000915527344,-22.5
731953,2.7263357639312744,8.638381004333496,-1.912263035774231,-1.875011920928955,-0.9527499675750732,3.163130044937134,48.30000305175781,-177.3000030517578,-17.100000381469727
731974,2.244232416152954,9.393835067749023,-1.9116649627685547,-1.417691946029663,-0.5868939757347107,1.5929979085922241,41.10000228881836,-179.70001220703125,-22.5
731994,1.6748002767562866,8.933863639831543,-2.158698081970215,-1.2576299905776978,-0.6402480006217957,-0.19817200303077698,50.70000076293945,-172.5,-21.30000114440918
732014,1.0898164510726929,9.186878204345703,-2.166473865509033,-0.6326259970664978,-1.417691946029663,-0.9451279640197754,57.900001525878906,-177.3000030517578,-17.100000381469727
732034,1.0066746473312378,10.348471641540527,-2.1808292865753174,-0.3048799932003021,-1.5701320171356201,-0.7317119836807251,57.900001525878906,-174.90000915527344,-29.100000381469727
732056,0.8266335725784302,10.916707038879395,-2.1706607341766357,-1.4558019638061523,-1.2271419763565063,-1.4100699424743652,50.70000076293945,-167.70001220703125,-24.900001525878906
732076,-0.11903045326471329,8.98111629486084,-2.1066596508026123,-1.4862899780273438,-0.3277460038661957,-3.551851987838745,48.30000305175781,-189.3000030517578,-26.700000762939453
732096,-0.8080911636352539,8.62582015991211,-2.2609803676605225,0,-0.6478700041770935,-1.6768399477005005,53.10000228881836,-170.10000610351562,-28.500001907348633
732118,-0.6047225594520569,9.814330101013184,-2.077350616455078,-0.6021379828453064,-0.1448179930448532,-0.3048799932003021,53.10000228881836,-179.70001220703125,-21.30000114440918
732138,-0.90977543592453,9.560717582702637,-2.1592960357666016,-0.2591480016708374,0.4039659798145294,-1.067080020904541,43.5,-177.3000030517578,-20.700000762939453
732161,-0.9803563356399536,9.476977348327637,-2.2185122966766357,-0.23628199100494385,0.4420759975910187,-1.242385983467102,55.500003814697266,-167.70001220703125,-21.30000114440918
732181,-1.0772554874420166,9.459630966186523,-2.339337110519409,0.2896359860897064,0.571649968624115,-1.2347639799118042,65.10000610351562,-165.3000030517578,-21.30000114440918
732202,-0.7022198438644409,9.821507453918457,-2.3865904808044434,0.5792719721794128,0.06859800219535828,-0.8384199738502502,50.70000076293945,-170.10000610351562,-24.30000114440918
732222,-0.5323472619056702,9.90644359588623,-2.202362537384033,0.26677000522613525,0.1600620001554489,-0.8689079880714417,48.30000305175781,-179.70001220703125,-26.700000762939453
732242,-0.48090696334838867,9.52303409576416,-2.22090482711792,0.20579399168491364,0.38109999895095825,-1.4405579566955566,65.10000610351562,-179.70001220703125,-24.900001525878906
732262,-0.3505117893218994,9.21917724609375,-2.161090612411499,0.2439039945602417,0.19054999947547913,-0.9832379817962646,55.500003814697266,-179.70001220703125,-24.900001525878906
732282,-0.16688188910484314,9.106128692626953,-2.024115800857544,-0.18292799592018127,0.38109999895095825,-0.4878079891204834,65.10000610351562,-174.90000915527344,-20.100000381469727
732302,-0.03648672252893448,9.026576042175293,-2.2005679607391357,0,0.8689079880714417,-0.4344539940357208,60.30000305175781,-177.3000030517578,-26.100000381469727
732322,-0.016748003661632538,8.873451232910156,-2.1084539890289307,0.038109999150037766,0.3887220025062561,-0.5564059615135193,50.70000076293945,-191.70001220703125,-32.10000228881836
732342,0.2691643238067627,9.06605339050293,-1.9660959243774414,-0.2743920087814331,0.49542999267578125,-0.09908600151538849,53.10000228881836,-160.5,-27.900001525878906
732362,0.3959706425666809,9.134839057922363,-1.9983956813812256,-0.38109999895095825,0.6554920077323914,-0.228659987449646,65.10000610351562,-186.90000915527344,-22.5
732382,0.7626323103904724,9.313684463500977,-1.9487497806549072,-0.49542999267578125,0.5030519962310791,-0.07621999830007553,67.5,-182.10000610351562,-27.900001525878906
732402,0.8326150178909302,8.976929664611816,-1.8022047281265259,-0.6097599864006042,0.6173819899559021,-0.5487840175628662,67.5,-170.10000610351562,-27.900001525878906
732422,0.8074930310249329,8.3698148727417,-1.7298294305801392,-0.4420759975910187,0.48018598556518555,-0.8765299916267395,62.70000076293945,-179.70001220703125,-24.30000114440918
732442,0.9283179044723511,8.18139934539795,-1.8291212320327759,-0.15243999660015106,0.46494197845458984,-0.2439039945602417,57.900001525878906,-165.3000030517578,-23.700000762939453
732462,1.2878018617630005,8.832179069519043,-1.9218333959579468,-0.08384199440479279,0.5945159792900085,0.28201398253440857,65.10000610351562,-170.10000610351562,-21.30000114440918
732482,1.312923789024353,8.933265686035156,-2.0169382095336914,-0.09908600151538849,0.5487840175628662,-0.38109999895095825,60.30000305175781,-172.5,-23.100000381469727
732502,1.3918787240982056,8.36084270477295,-2.033087968826294,-0.114329993724823,0.685979962348938,-1.1585439443588257,65.10000610351562,-182.10000610351562,-18.900001525878906
732522,1.8207472562789917,8.49422836303711,-2.4458065032958984,0.7698220014572144,1.1356779336929321,-0.5411620140075684,65.10000610351562,-170.10000610351562,-19.5
732542,1.9858347177505493,9.713841438293457,-2.4936580657958984,0.457319974899292,0.967993974685669,0,57.900001525878906,-170.10000610351562,-32.70000076293945
732565,2.860917806625366,10.886799812316895,-3.171354055404663,1.067080020904541,2.736297845840454,-0.510673999786377,72.30000305175781,-172.5,-18.900001525878906
732625,2.316009521484375,8.4057035446167,-2.7729907035827637,0.5030519962310791,0.2134159952402115,-4.00154972076416,60.30000305175781,-160.5,-19.5
732645,2.4314510822296143,8.36263656616211,-3.049931049346924,0.38109999895095825,0.6554920077323914,-1.5015339851379395,67.5,-165.3000030517578,-19.5
732667,2.414703130722046,8.809450149536133,-3.0122480392456055,0.08384199440479279,-0.1600620001554489,-0.8917739987373352,62.70000076293945,-153.3000030517578,-17.700000762939453
732687,2.586968421936035,8.414076805114746,-2.878862142562866,0.6783579587936401,-0.19054999947547913,-1.5472660064697266,74.70000457763672,-170.10000610351562,-21.900001525878906
732707,2.4452085494995117,7.947525501251221,-2.747868776321411,0.44969800114631653,-0.4725639820098877,-1.6234859228134155,77.10000610351562,-160.5,-25.500001907348633
732731,2.5145931243896484,7.839859962463379,-2.7119803428649902,0.2743920087814331,-0.1448179930448532,-1.067080020904541,74.70000457763672,-174.90000915527344,-25.500001907348633
732751,2.7676074504852295,8.1963529586792,-2.8304126262664795,0.16768398880958557,0.1295740008354187,-0.6250039935112,81.9000015258789,-172.5,-20.100000381469727
732773,2.8070850372314453,7.982217788696289,-2.7137746810913086,-0.1295740008354187,0.12195199728012085,-1.0899460315704346,89.10000610351562,-174.90000915527344,-22.5
732793,2.765813112258911,7.655632019042969,-2.775383472442627,0.060975998640060425,0.4420759975910187,-0.967993974685669,81.9000015258789,-170.10000610351562,-21.900001525878906
732813,3.1731483936309814,8.750831604003906,-3.183316946029663,0.5030519962310791,0.9603719711303711,0.2972579896450043,65.10000610351562,-177.3000030517578,-23.100000381469727
732834,3.174344778060913,9.23233699798584,-3.392068862915039,0.22103799879550934,0.4344539940357208,-0.19054999947547913,86.70000457763672,-167.70001220703125,-21.900001525878906
732854,3.034379243850708,8.472695350646973,-3.1587929725646973,0.342989981174469,-0.19817200303077698,-0.8917739987373352,72.30000305175781,-182.10000610351562,-22.5
732874,3.3454136848449707,9.140222549438477,-3.2527015209198,0.6936019659042358,-0.3201240003108978,0.26677000522613525,74.70000457763672,-170.10000610351562,-24.30000114440918
732894,3.529641628265381,10.33471393585205,-3.4243686199188232,0.36585599184036255,-0.1448179930448532,0.5487840175628662,74.70000457763672,-160.5,-20.100000381469727
732914,2.956620693206787,9.229944229125977,-3.0475385189056396,-0.46494197845458984,-1.6311079263687134,-1.524399995803833,81.9000015258789,-172.5,-21.900001525878906
732934,2.310028076171875,7.783036231994629,-2.19398832321167,-0.7164679765701294,-2.492393970489502,-1.753059983253479,69.9000015258789,-179.70001220703125,-16.5
732954,2.1975772380828857,9.07083797454834,-2.2197086811065674,-0.5182960033416748,-0.2591480016708374,0.9451279640197754,77.10000610351562,-174.90000915527344,-20.700000762939453
732977,1.5444051027297974,11.116487503051758,-2.7341115474700928,-0.967993974685669,0.5335400104522705,1.646351933479309,81.9000015258789,-160.5,-21.30000114440918
732997,0.11364716291427612,10.983100891113281,-2.6545584201812744,-1.013725996017456,0.04573199898004532,-2.088428020477295,69.9000015258789,-165.3000030517578,-23.700000762939453
733017,-0.03469229117035866,10.16962718963623,-2.572613000869751,-0.8841519951820374,-0.4420759975910187,-2.9268479347229004,77.10000610351562,-172.5,-18.900001525878906
733037,-0.30983805656433105,9.340600967407227,-1.8357007503509521,-1.295740008354187,-1.6158639192581177,-2.1722700595855713,81.9000015258789,-182.10000610351562,-23.100000381469727
733057,-0.5335435271263123,9.417162895202637,-1.4493004083633423,-1.707327961921692,0.3734779953956604,-1.1204339265823364,89.10000610351562,-177.3000030517578,-21.30000114440918
733077,-0.8421853184700012,8.53908920288086,-1.9989937543869019,-1.3948259353637695,1.4939119815826416,-1.8216580152511597,91.5,-172.5,-22.5
733101,-1.5001425743103027,7.242315292358398,-2.1024725437164307,0.15243999660015106,0.3048799932003021,-1.0975680351257324,96.30000305175781,-179.70001220703125,-23.100000381469727
733121,-0.7016217112541199,8.69939136505127,-2.327972412109375,0.8460419774055481,-0.26677000522613525,0.9527499675750732,93.9000015258789,-167.70001220703125,-21.30000114440918
733145,-0.8409889936447144,8.468507766723633,-2.2167179584503174,0.6707359552383423,-0.6326259970664978,-0.46494197845458984,89.10000610351562,-170.10000610351562,-28.500001907348633
733165,-0.5903671383857727,8.155080795288086,-2.327374219894409,1.14329993724823,-0.5868939757347107,-0.5868939757347107,96.30000305175781,-165.3000030517578,-27.30000114440918
733187,0.12441373616456985,9.71144962310791,-2.4242734909057617,0.9222619533538818,-0.8231759667396545,0.39634400606155396,93.9000015258789,-162.90000915527344,-26.100000381469727
733207,0.2488274723291397,10.271310806274414,-2.2286806106567383,-0.5792719721794128,-0.17530599236488342,-0.8460419774055481,91.5,-162.90000915527344,-24.900001525878906
733227,-0.12620817124843597,9.007434844970703,-2.506817102432251,-0.8841519951820374,1.1280559301376343,-1.981719970703125,86.70000457763672,-174.90000915527344,-21.900001525878906
733247,0.0005981429712846875,8.391945838928223,-2.7682056427001953,-0.6021379828453064,0.3048799932003021,-0.9451279640197754,93.9000015258789,-160.5,-23.100000381469727
733267,0.4133167862892151,9.17551326751709,-1.9876290559768677,-1.0289700031280518,-1.0442140102386475,0.7164679765701294,86.70000457763672,-172.5,-24.30000114440918
733287,0.6274519562721252,9.762889862060547,-1.8351026773452759,-1.5015339851379395,0.19054999947547913,0.3734779953956604,93.9000015258789,-165.3000030517578,-21.30000114440918
733309,0.5197862386703491,9.159363746643066,-2.128790855407715,-1.4634239673614502,1.2118979692459106,-0.4192099869251251,84.30000305175781,-158.10000610351562,-21.900001525878906
733329,-0.013159145601093769,8.66948413848877,-2.1240057945251465,-1.371959924697876,1.242385983467102,-0.5182960033416748,86.70000457763672,-170.10000610351562,-27.30000114440918
733351,-1.7041093111038208,9.314282417297363,-2.911760091781616,-0.6097599864006042,3.1783738136291504,0.9527499675750732,74.70000457763672,-165.3000030517578,-20.700000762939453
733371,-2.879460334777832,9.68453311920166,-3.5966336727142334,-0.3734779953956604,4.260697841644287,0.7545779943466187,77.10000610351562,-162.90000915527344,-22.5
733392,-4.0823259353637695,10.549448013305664,-4.3951544761657715,1.3490939140319824,4.253076076507568,0.8612859845161438,96.30000305175781,-170.10000610351562,-18.900001525878906
733412,-4.401734352111816,12.147686004638672,-5.17692756652832,1.2728739976882935,4.199721813201904,0.739333987236023,103.50000762939453,-172.5,-16.5
733432,-4.622448921203613,10.618233680725098,-5.339024066925049,-0.3125019967556,1.8216580152511597,-1.425313949584961,79.5,-165.3000030517578,-24.900001525878906
733452,-5.797201633453369,9.45245361328125,-4.8479485511779785,-1.1356779336929321,0.5564059615135193,0.48018598556518555,96.30000305175781,-174.90000915527344,-21.900001525878906
733473,-5.659030437469482,9.759899139404297,-4.73370361328125,-1.5015339851379395,2.5228819847106934,2.332331895828247,91.5,-182.10000610351562,-22.5
733493,-4.622448921203613,8.799281120300293,-4.949035167694092,-1.2881180047988892,1.5701320171356201,0.9756159782409668,89.10000610351562,-165.3000030517578,-22.5
733513,-2.9996869564056396,7.09995698928833,-4.24561882019043,-1.5167779922485352,-3.300325870513916,-0.28201398253440857,84.30000305175781,-172.5,-18.900001525878906
733533,-1.8458691835403442,6.163863182067871,-2.348309278488159,-2.042695999145508,-7.347607612609863,0.7469559907913208,89.10000610351562,-167.70001220703125,-20.100000381469727
733557,-0.8870460391044617,6.312800884246826,-0.44501838088035583,-1.935987949371338,-4.481735706329346,1.935987949371338,79.5,-170.10000610351562,-27.900001525878906
733577,0.11484345048666,6.86787748336792,-1.0880221128463745,-1.8597679138183594,1.4939119815826416,2.9649579524993896,67.5,-162.90000915527344,-13.500000953674316
733597,0.4151112139225006,5.819333076477051,-1.5103110074996948,-3.399411916732788,1.4024479389190674,3.658559799194336,72.30000305175781,-179.70001220703125,-23.100000381469727
733617,1.8991038799285889,5.269639492034912,-0.7572489976882935,-4.275941848754883,-1.14329993724823,7.050349712371826,67.5,-177.3000030517578,-20.100000381469727
733639,4.17683219909668,7.26324987411499,-0.7949320077896118,-4.062525749206543,1.3262280225753784,13.605269432067871,57.900001525878906,-174.90000915527344,-21.900001525878906
733659,4.832995414733887,7.00246000289917,-1.0335910320281982,-3.460387945175171,1.1585439443588257,13.064107894897461,50.70000076293945,-174.90000915527344,-23.100000381469727
733681,7.2028374671936035,7.954703330993652,-0.512010395526886,-1.189031958580017,-1.829279899597168,13.7805757522583,29.100000381469727,-182.10000610351562,-26.700000762939453
733702,7.2267632484436035,8.126370429992676,0.4767199456691742,-0.33536797761917114,0.5030519962310791,11.448244094848633,7.500000476837158,-177.3000030517578,-31.500001907348633
733722,6.661518096923828,8.811244010925293,-1.6843706369400024,1.0289700031280518,3.8795979022979736,9.443657875061035,12.300000190734863,-184.5,-24.30000114440918
733742,7.13883638381958,9.150391578674316,-2.0665838718414307,0.739333987236023,0.7774440050125122,7.865903854370117,2.700000047683716,-165.3000030517578,-26.100000381469727
733762,7.049713134765625,7.872159481048584,-0.9743748903274536,-0.2591480016708374,-0.6326259970664978,6.417723655700684,-18.900001525878906,-162.90000915527344,-29.700000762939453
733782,8.059378623962402,8.575575828552246,-2.1180243492126465,0.7545779943466187,2.073184013366699,7.6982197761535645,-16.5,-172.5,-26.100000381469727
733802,8.080313682556152,9.881919860839844,-2.25380277633667,-0.2134159952402115,-0.02286599949002266,7.690598011016846,-23.700000762939453,-170.10000610351562,-27.900001525878906
733822,8.209512710571289,8.288467407226562,-1.1454437971115112,-0.6326259970664978,-0.44969800114631653,5.182960033416748,-30.900001525878906,-174.90000915527344,-31.500001907348633
733842,8.676661491394043,6.887018203735352,-0.6453962922096252,0.12195199728012085,1.6768399477005005,4.992409706115723,-38.10000228881836,-182.10000610351562,-36.900001525878906
733862,8.948219299316406,9.375292778015137,-1.7687088251113892,1.2118979692459106,3.49849796295166,7.164680004119873,-38.10000228881836,-167.70001220703125,-23.700000762939453
733882,9.533203125,9.883116722106934,-2.0881171226501465,0.5564059615135193,3.2164838314056396,5.975647926330566,-50.10000228881836,-170.10000610351562,-26.700000762939453
733902,8.671876907348633,7.833878517150879,-1.8339062929153442,-0.426831990480423,2.0579400062561035,4.115880012512207,-38.10000228881836,-179.70001220703125,-27.900001525878906
733922,9.685131072998047,7.937357425689697,-2.2855043411254883,1.1051899194717407,1.875011920928955,4.153989791870117,-54.900001525878906,-177.3000030517578,-27.30000114440918
733942,11.944316864013672,9.486547470092773,-2.2759339809417725,0.20579399168491364,-1.0975680351257324,4.481735706329346,-62.10000228881836,-177.3000030517578,-18.900001525878906
733962,11.087776184082031,9.394433975219727,-0.8900367617607117,-0.25152599811553955,-0.46494197845458984,0.8384199738502502,-69.30000305175781,-162.90000915527344,-21.900001525878906
733984,9.771862030029297,9.213794708251953,-3.088212251663208,1.3948259353637695,1.9588539600372314,-2.644834041595459,-66.9000015258789,-160.5,-27.900001525878906
734005,11.027961730957031,7.869767189025879,-2.2005679607391357,-0.030487999320030212,-1.5320219993591309,-4.771371841430664,-69.30000305175781,-172.5,-28.500001907348633
734027,9.459630966186523,8.59292221069336,-1.2680630683898926,-0.7088459730148315,1.2347639799118042,-3.757645845413208,-57.30000305175781,-167.70001220703125,-26.700000762939453
734047,7.830289840698242,8.433815956115723,-2.2484195232391357,-0.6402480006217957,0.6250039935112,-6.654006004333496,-54.900001525878906,-165.3000030517578,-25.500001907348633
734067,8.091079711914062,6.401924133300781,-1.648482084274292,-0.685979962348938,-2.4542839527130127,-9.885733604431152,-42.900001525878906,-162.90000915527344,-26.700000762939453
734087,9.44527530670166,7.48635721206665,-0.605918824672699,-0.510673999786377,-2.9192259311676025,-7.065593719482422,-28.500001907348633,-158.10000610351562,-29.700000762939453
734129,6.62383508682251,7.432524681091309,-1.4630577564239502,-0.8765299916267395,-1.9740979671478271,-11.097631454467773,-9.300000190734863,-184.5,-30.900001525878906
734149,6.239229202270508,5.757126331329346,-0.4456165134906769,-0.20579399168491364,-3.955817937850952,-13.902527809143066,2.700000047683716,-172.5,-33.30000305175781
734169,5.421567916870117,5.172740459442139,0.16508746147155762,-0.02286599949002266,-2.6753220558166504,-12.454347610473633,-9.300000190734863,-170.10000610351562,-27.30000114440918
734192,4.115821838378906,6.137545108795166,-0.6687238216400146,0.1600620001554489,-0.7012239694595337,-10.0000638961792,14.700000762939453,-182.10000610351562,-21.30000114440918
734254,-0.7518657445907593,4.880248546600342,-1.1412568092346191,0.8612859845161438,-0.7012239694595337,-8.902495384216309,38.70000076293945,-189.3000030517578,-30.30000114440918
734274,-1.5970417261123657,6.89479398727417,-1.8943188190460205,1.1051899194717407,0.6173819899559021,-6.3719916343688965,48.30000305175781,-184.5,-27.30000114440918
734294,-2.4015440940856934,8.104837417602539,-2.44700288772583,0.8612859845161438,1.021347999572754,-6.509187698364258,62.70000076293945,-172.5,-27.30000114440918
734314,-2.649773359298706,8.103042602539062,-2.5702202320098877,0.6936019659042358,0.16768398880958557,-6.2729058265686035,53.10000228881836,-172.5,-16.5
734336,-3.7037012577056885,8.61983871459961,-2.524761438369751,1.417691946029663,1.935987949371338,-4.839970111846924,77.10000610351562,-179.70001220703125,-20.700000762939453
734356,-3.8586204051971436,9.828685760498047,-3.4590609073638916,2.195136070251465,3.5442299842834473,-3.8338658809661865,69.9000015258789,-174.90000915527344,-29.700000762939453
734376,-3.794020891189575,9.742552757263184,-3.7216455936431885,1.5472660064697266,1.4405579566955566,-3.910085916519165,79.5,-179.70001220703125,-22.5
734399,-3.8460593223571777,9.479968070983887,-3.058305025100708,1.2195199728012085,0.28201398253440857,-3.346057891845703,84.30000305175781,-170.10000610351562,-30.30000114440918
734420,-3.3705356121063232,10.473483085632324,-3.5751004219055176,1.1585439443588257,1.699705958366394,-2.225623846054077,84.30000305175781,-177.3000030517578,-21.30000114440918
734440,-3.0182294845581055,10.106224060058594,-3.8556296825408936,0.7621999979019165,1.189031958580017,-2.652456045150757,84.30000305175781,-172.5,-22.5
734460,-2.366851806640625,9.79100227355957,-3.5697171688079834,0.5411620140075684,-0.8689079880714417,-1.8902559280395508,84.30000305175781,-167.70001220703125,-22.5
734480,-1.6736040115356445,9.674962997436523,-2.872880697250366,-0.060975998640060425,-1.7759259939193726,-1.189031958580017,98.70000457763672,-172.5,-18.900001525878906
734523,-0.503636360168457,10.149888038635254,-2.9189376831054688,0.36585599184036255,0.5182960033416748,-0.5945159792900085,81.9000015258789,-160.5,-23.100000381469727
734551,-0.1118527352809906,9.372900009155273,-2.608501434326172,0.3277460038661957,0.28201398253440857,-1.189031958580017,103.50000762939453,-172.5,-23.100000381469727
734571,0.042468149214982986,9.319665908813477,-2.5020320415496826,0.2743920087814331,0.5487840175628662,-0.8460419774055481,98.70000457763672,-167.70001220703125,-23.700000762939453
734617,0.6759015321731567,9.10074520111084,-2.629436492919922,0.33536797761917114,0.1448179930448532,-0.007621999830007553,89.10000610351562,-172.5,-14.700000762939453
734659,0.808689296245575,8.927882194519043,-2.5767998695373535,0.060975998640060425,0.038109999150037766,-0.18292799592018127,91.5,-165.3000030517578,-21.30000114440918
734730,0.9504491686820984,9.20841121673584,-2.3889830112457275,-0.4344539940357208,-0.6097599864006042,0,91.5,-153.3000030517578,-23.700000762939453
734770,0.9019995927810669,9.01999568939209,-2.327374219894409,-0.6554920077323914,-0.22103799879550934,-0.5030519962310791,103.50000762939453,-158.10000610351562,-23.100000381469727
734851,0.6256575584411621,9.159363746643066,-2.310028076171875,-0.28201398253440857,0.09146399796009064,-0.41158798336982727,84.30000305175781,-174.90000915527344,-18.900001525878906
734871,0.6304426789283752,9.16953182220459,-2.3770201206207275,-0.10670799762010574,0.09908600151538849,-0.3201240003108978,93.9000015258789,-172.5,-19.5
734913,0.6920514106750488,9.065454483032227,-2.4882748126983643,0.22103799879550934,-0.22103799879550934,0.038109999150037766,101.10000610351562,-167.70001220703125,-26.100000381469727
734933,0.712388277053833,9.182092666625977,-2.5654351711273193,0.3277460038661957,-0.2743920087814331,0.09146399796009064,103.50000762939453,-170.10000610351562,-21.900001525878906
734953,0.8134744167327881,9.398022651672363,-2.6132867336273193,0.342989981174469,-0.457319974899292,0.038109999150037766,96.30000305175781,-160.5,-23.100000381469727
734973,0.6609479784965515,9.125268936157227,-2.622856855392456,0.10670799762010574,-0.426831990480423,-0.16768398880958557,96.30000305175781,-167.70001220703125,-27.900001525878906
734993,0.6424055695533752,9.018799781799316,-2.5833795070648193,-0.16768398880958557,-0.46494197845458984,-0.1448179930448532,101.10000610351562,-165.3000030517578,-22.5
735037,0.5383286476135254,9.131848335266113,-2.6910452842712402,-0.3887220025062561,0.06859800219535828,-0.18292799592018127,98.70000457763672,-174.90000915527344,-23.100000381469727
735097,-2.9374802112579346,9.793395042419434,-3.725832462310791,-0.5411620140075684,1.9512319564819336,-0.9222619533538818,103.50000762939453,-160.5,-22.5
735120,-5.078832149505615,11.231330871582031,-4.97176456451416,0.05335399881005287,5.876561641693115,-2.240867853164673,110.70000457763672,-158.10000610351562,-17.700000762939453
735140,-5.498728275299072,11.106916427612305,-5.566916465759277,-0.09908600151538849,5.762231826782227,-2.583858013153076,91.5,-167.70001220703125,-26.100000381469727
735160,-7.899674415588379,9.01999568939209,-4.821630477905273,-3.094532012939453,0.800309956073761,-1.14329993724823,93.9000015258789,-162.90000915527344,-18.30000114440918
735180,-6.679462432861328,9.798778533935547,-4.550073623657227,-3.1707520484924316,0.48018598556518555,3.102154016494751,105.9000015258789,-172.5,-24.900001525878906
735203,-6.170443058013916,8.353066444396973,-3.2586829662323,-4.329296112060547,-1.9969639778137207,3.2774598598480225,108.30000305175781,-172.5,-24.900001525878906
735226,-5.10215950012207,7.425944805145264,-2.0253121852874756,-3.7424018383026123,-3.460387945175171,5.274424076080322,101.10000610351562,-172.5,-24.900001525878906
735246,-3.776076555252075,7.169341564178467,-0.8296242952346802,-3.1250200271606445,-2.743919849395752,6.234796047210693,89.10000610351562,-167.70001220703125,-20.700000762939453
735266,-1.9954049587249756,6.901373386383057,-0.5520859360694885,-2.1494040489196777,-1.0823240280151367,5.807963848114014,89.10000610351562,-177.3000030517578,-22.5
735286,-0.13458216190338135,6.383979797363281,-0.3355582058429718,-1.8445239067077637,-1.6920839548110962,5.701255798339844,74.70000457763672,-170.10000610351562,-22.5
735330,2.0127511024475098,5.5280375480651855,-0.6878644227981567,-2.3094658851623535,1.2576299905776978,8.338467597961426,57.900001525878906,-184.5,-27.900001525878906
735350,5.587253570556641,6.461738586425781,-0.15850788354873657,-1.471045970916748,-2.225623846054077,10.79275131225586,50.70000076293945,-177.3000030517578,-34.5
735370,6.406111240386963,7.472002029418945,1.3242884874343872,-0.9908599853515625,-1.5548880100250244,9.695183753967285,43.5,-170.10000610351562,-26.100000381469727
735390,6.598114967346191,8.464919090270996,-1.2333707809448242,0.08384199440479279,1.9054999351501465,8.414688110351562,19.5,-167.70001220703125,-21.30000114440918
735410,8.176015853881836,9.556529998779297,-0.5269639492034912,0.5564059615135193,-2.583858013153076,6.859799861907959,29.100000381469727,-172.5,-33.30000305175781
735430,7.912235260009766,8.427236557006836,-0.6334334015846252,1.0442140102386475,-0.4039659798145294,4.474113941192627,14.700000762939453,-186.90000915527344,-28.500001907348633
735453,8.024087905883789,9.017603874206543,-1.4223840236663818,2.4542839527130127,0.1448179930448532,4.89332389831543,17.100000381469727,-174.90000915527344,-32.70000076293945
735474,7.830887794494629,10.764181137084961,-2.3058412075042725,3.0716660022735596,0.33536797761917114,4.047281742095947,14.700000762939453,-179.70001220703125,-24.900001525878906
735494,6.909149646759033,9.180896759033203,-2.4344418048858643,2.1189160346984863,-0.6631140112876892,0.39634400606155396,5.100000381469727,-177.3000030517578,-23.700000762939453
735514,7.863187313079834,9.168933868408203,-2.5624444484710693,3.0106899738311768,-0.9603719711303711,0.457319974899292,2.700000047683716,-184.5,-26.700000762939453
735534,6.574787616729736,9.764683723449707,-3.144437551498413,2.2484898567199707,0.800309956073761,0.39634400606155396,12.300000190734863,-189.3000030517578,-29.100000381469727
735554,6.575385570526123,9.83586311340332,-3.356180191040039,2.3628199100494385,1.2576299905776978,-0.19054999947547913,2.700000047683716,-179.70001220703125,-24.900001525878906
735574,6.769782066345215,8.88062858581543,-3.2957677841186523,1.646351933479309,-0.49542999267578125,-1.2881180047988892,5.100000381469727,-172.5,-17.700000762939453
735594,7.157977104187012,9.477575302124023,-2.7382984161376953,1.1814099550247192,-0.2743920087814331,0.8079319596290588,-4.5,-174.90000915527344,-20.100000381469727
735615,6.683051586151123,10.06674575805664,-3.8263206481933594,0.3125019967556,1.6311079263687134,0.6707359552383423,-4.5,-179.70001220703125,-18.30000114440918
735635,7.3284478187561035,9.24130916595459,-3.7575340270996094,-0.3277460038661957,0.007621999830007553,-0.39634400606155396,-4.5,-184.5,-20.700000762939453
735655,8.245999336242676,8.221475601196289,-2.345916748046875,-1.2728739976882935,-1.0289700031280518,0.2972579896450043,9.90000057220459,-170.10000610351562,-24.30000114440918
735678,8.523537635803223,10.575167655944824,-2.729924440383911,-2.3018438816070557,1.4558019638061523,1.0442140102386475,7.500000476837158,-167.70001220703125,-20.700000762939453
735698,8.409890174865723,9.43331241607666,-2.6748952865600586,-2.0198299884796143,0.853663980960846,-2.3704419136047363,12.300000190734863,-170.10000610351562,-26.100000381469727
735718,8.932068824768066,7.652641296386719,-1.721455454826355,-1.5548880100250244,0.6250039935112,-3.7957558631896973,-2.1000001430511475,-172.5,-22.5
735741,8.776552200317383,9.594213485717773,-2.0318915843963623,-0.7164679765701294,2.4542839527130127,-1.0289700031280518,14.700000762939453,-177.3000030517578,-21.900001525878906
735761,7.398430347442627,9.959678649902344,-2.730522632598877,-1.6234859228134155,2.4237959384918213,-3.246971845626831,12.300000190734863,-177.3000030517578,-24.30000114440918
735781,6.986310005187988,7.882925987243652,-1.7417923212051392,-1.5853760242462158,-0.35061198472976685,-6.356747627258301,14.700000762939453,-160.5,-25.500001907348633
735801,6.639985084533691,7.390056610107422,-1.3781213760375977,-0.571649968624115,-0.3125019967556,-5.541193962097168,29.100000381469727,-170.10000610351562,-21.30000114440918
735824,6.167452335357666,7.27521276473999,-1.22499680519104,-1.371959924697876,-0.571649968624115,-4.67990779876709,21.900001525878906,-189.3000030517578,-24.900001525878906
735845,5.838473320007324,7.8290934562683105,-1.1717621088027954,-1.5320219993591309,-0.25152599811553955,-4.131124019622803,26.700000762939453,-189.3000030517578,-22.5
735866,4.483081340789795,6.3301472663879395,-1.1615936756134033,-1.92836594581604,-0.038109999150037766,-6.1204657554626465,21.900001525878906,-172.5,-26.100000381469727
735887,2.825029134750366,4.65594482421875,-0.14475059509277344,-1.2881180047988892,-0.1600620001554489,-6.516809940338135,48.30000305175781,-170.10000610351562,-29.700000762939453
735907,1.2710537910461426,4.966979026794434,-0.9073829054832458,-0.07621999830007553,2.278977870941162,-5.137228012084961,45.900001525878906,-174.90000915527344,-26.100000381469727
735927,-0.9612157344818115,5.4413065910339355,-1.5420125722885132,1.067080020904541,2.6753220558166504,-5.762231826782227,50.70000076293945,-167.70001220703125,-18.900001525878906
735947,-2.6336236000061035,6.919317722320557,-2.5678277015686035,2.5533699989318848,3.4680099487304688,-5.5030837059021,50.70000076293945,-170.10000610351562,-18.900001525878906
735968,-3.026005268096924,8.080313682556152,-3.3184971809387207,1.9893419742584229,2.2561118602752686,-5.838451862335205,60.30000305175781,-170.10000610351562,-19.5
735988,-3.066679000854492,8.838160514831543,-3.0834269523620605,1.478667974472046,-0.6631140112876892,-5.304912090301514,74.70000457763672,-170.10000610351562,-21.30000114440918
736008,-3.210233211517334,9.992576599121094,-2.567229747772217,0.06859800219535828,-1.1737879514694214,-3.871975898742676,77.10000610351562,-172.5,-20.100000381469727
736029,-3.603811502456665,9.48116397857666,-2.6934378147125244,-0.7850660085678101,1.417691946029663,-4.718018054962158,79.5,-165.3000030517578,-23.700000762939453
736049,-3.4387240409851074,9.01521110534668,-3.4590609073638916,0.19817200303077698,1.2500079870224,-3.803377866744995,86.70000457763672,-167.70001220703125,-20.700000762939453
736069,-3.3735263347625732,9.423144340515137,-2.8573288917541504,-0.3582339882850647,-1.577754020690918,-2.7134318351745605,91.5,-174.90000915527344,-23.700000762939453
736089,-3.243131160736084,9.49312686920166,-2.5032284259796143,-0.08384199440479279,-0.967993974685669,-2.446661949157715,84.30000305175781,-177.3000030517578,-28.500001907348633
736113,-2.7024099826812744,10.335312843322754,-2.8800582885742188,0.1295740008354187,-0.49542999267578125,-2.1112940311431885,91.5,-172.5,-26.700000762939453
736133,-2.342327833175659,10.35385513305664,-2.8722825050354004,-0.1448179930448532,-1.0289700031280518,-2.995445966720581,91.5,-174.90000915527344,-22.5
736153,-1.9625071287155151,9.46321964263916,-2.753850221633911,0.5335400104522705,-1.2804960012435913,-3.2317278385162354,96.30000305175781,-160.5,-24.30000114440918
736173,-1.3888880014419556,9.951902389526367,-2.4099180698394775,0.6326259970664978,-1.7378159761428833,-1.882633924484253,98.70000457763672,-165.3000030517578,-26.700000762939453
736193,-1.1011812686920166,9.92139720916748,-2.3656554222106934,0.39634400606155396,-0.6783579587936401,-1.699705958366394,103.50000762939453,-165.3000030517578,-26.100000381469727
736213,-1.0784517526626587,9.307703018188477,-2.384796142578125,0.18292799592018127,-0.007621999830007553,-1.3795819282531738,101.10000610351562,-170.10000610351562,-23.700000762939453
