time,sensor_accX[g],sensor_accY[g],sensor_accZ[g],sensor_gyroX[°/s],sensor_gyroY[°/s],sensor_gyroZ[°/s],sensor_magX[µT],sensor_magY[µT],sensor_magZ[µT]
864722,-3.7808616161346436,8.83995532989502,-0.8009134531021118,-0.26677000522613525,0.44969800114631653,-0.08384199440479279,156.3000030517578,-148.5,-55.500003814697266
864742,-3.889723777770996,8.82201099395752,-0.8553444743156433,-0.3048799932003021,0.4420759975910187,-0.228659987449646,153.90000915527344,-143.70001220703125,-55.500003814697266
864762,-3.838881492614746,8.852516174316406,-0.8918311595916748,-0.3125019967556,0.35061198472976685,-0.35061198472976685,156.3000030517578,-143.70001220703125,-57.30000305175781
864782,-3.802993059158325,8.869263648986816,-0.8523537516593933,-0.3201240003108978,0.3201240003108978,-0.38109999895095825,158.70001220703125,-141.3000030517578,-56.10000228881836
864805,-3.887331247329712,8.883021354675293,-0.8607277274131775,-0.4039659798145294,0.35061198472976685,-0.46494197845458984,161.10000610351562,-146.10000610351562,-55.500003814697266
864825,-3.9010884761810303,8.824402809143066,-0.7967264652252197,-0.48018598556518555,0.3734779953956604,-0.4878079891204834,156.3000030517578,-148.5,-57.900001525878906
864845,-3.914247512817383,8.735877990722656,-0.7596415877342224,-0.4725639820098877,0.426831990480423,-0.41158798336982727,163.5,-138.90000915527344,-57.30000305175781
864865,-3.955519437789917,8.781336784362793,-0.8170632719993591,-0.3887220025062561,0.4878079891204834,-0.3734779953956604,158.70001220703125,-146.10000610351562,-55.500003814697266
864885,-3.935182571411133,8.827393531799316,-0.799717128276825,-0.35061198472976685,0.4878079891204834,-0.36585599184036255,156.3000030517578,-141.3000030517578,-59.10000228881836
864907,-3.9100606441497803,8.76518726348877,-0.7877542972564697,-0.3887220025062561,0.5411620140075684,-0.3125019967556,156.3000030517578,-143.70001220703125,-54.900001525878906
864927,-3.9597065448760986,8.825599670410156,-0.809287428855896,-0.4192099869251251,0.5564059615135193,-0.19817200303077698,158.70001220703125,-141.3000030517578,-57.900001525878906
864947,-3.947145462036133,8.871058464050293,-0.8493630290031433,-0.48018598556518555,0.5259180068969727,-0.22103799879550934,153.90000915527344,-141.3000030517578,-55.500003814697266
864967,-3.881349802017212,8.83576774597168,-0.8409889936447144,-0.5335400104522705,0.457319974899292,-0.2591480016708374,158.70001220703125,-146.10000610351562,-57.30000305175781
864987,-3.824526071548462,8.83576774597168,-0.7841654419898987,-0.5792719721794128,0.49542999267578125,-0.22103799879550934,161.10000610351562,-138.90000915527344,-57.30000305175781
865008,-3.808974504470825,8.840553283691406,-0.7847635746002197,-0.571649968624115,0.5792719721794128,-0.19054999947547913,163.5,-146.10000610351562,-57.30000305175781
865028,-3.7898337841033936,8.769373893737793,-0.7434917092323303,-0.5792719721794128,0.6554920077323914,-0.19054999947547913,163.5,-143.70001220703125,-57.30000305175781
865052,-3.8107688426971436,8.745448112487793,-0.6824811100959778,-0.5792719721794128,0.7240899801254272,-0.16768398880958557,161.10000610351562,-143.70001220703125,-56.10000228881836
865073,-3.8442649841308594,8.61684799194336,-0.515001118183136,-0.8307979702949524,0.9222619533538818,-0.25152599811553955,156.3000030517578,-138.90000915527344,-56.70000076293945
865093,-3.983034133911133,8.421853065490723,-0.5144029259681702,-0.8460419774055481,1.0594580173492432,-0.33536797761917114,161.10000610351562,-141.3000030517578,-57.900001525878906
865113,-4.029090881347656,8.292654037475586,-0.4222889244556427,-0.8079319596290588,1.0747020244598389,-0.3887220025062561,158.70001220703125,-146.10000610351562,-57.30000305175781
865133,-3.9692766666412354,8.495424270629883,-0.355895072221756,-0.7012239694595337,1.1509219408035278,-0.4192099869251251,163.5,-143.70001220703125,-58.500003814697266
865155,-3.9160420894622803,8.920703887939453,-0.5580673813819885,-0.5945159792900085,1.2576299905776978,-0.5792719721794128,156.3000030517578,-141.3000030517578,-56.70000076293945
865175,-4.061988830566406,9.03195858001709,-0.6519758105278015,-0.5564059615135193,1.067080020904541,-0.9603719711303711,156.3000030517578,-143.70001220703125,-58.500003814697266
865195,-4.207935810089111,8.558229446411133,-0.5425156950950623,-0.5411620140075684,0.8993960022926331,-1.1280559301376343,161.10000610351562,-146.10000610351562,-58.500003814697266
865217,-4.21272087097168,8.50918197631836,-0.6346296668052673,-0.342989981174469,0.9451279640197754,-0.8612859845161438,161.10000610351562,-148.5,-58.500003814697266
865238,-4.22767448425293,9.119287490844727,-0.8924292922019958,-0.114329993724823,0.8612859845161438,-0.5564059615135193,168.3000030517578,-143.70001220703125,-57.900001525878906
865258,-4.146327018737793,9.585241317749023,-0.9259253144264221,-0.18292799592018127,0.6936019659042358,-0.6783579587936401,168.3000030517578,-141.3000030517578,-56.70000076293945
865278,-3.9692766666412354,9.57088565826416,-0.6764997243881226,-0.5945159792900085,0.739333987236023,-0.9451279640197754,165.90000915527344,-143.70001220703125,-57.900001525878906
865302,-4.231263160705566,8.61385726928711,-0.4910753667354584,-0.7621999979019165,1.6692179441452026,-0.38109999895095825,165.90000915527344,-146.10000610351562,-56.10000228881836
865322,-4.3353400230407715,8.585145950317383,-0.6531721353530884,-0.5259180068969727,2.088428020477295,0.4039659798145294,163.5,-138.90000915527344,-55.500003814697266
865344,-4.154701232910156,8.970948219299316,-0.5688339471817017,-0.5335400104522705,2.1722700595855713,0.8841519951820374,165.90000915527344,-146.10000610351562,-56.70000076293945
865364,-4.104456901550293,9.287365913391113,-0.5167955160140991,-0.800309956073761,2.3170878887176514,0.7545779943466187,165.90000915527344,-143.70001220703125,-56.70000076293945
865385,-4.172047138214111,8.641371726989746,-0.14295616745948792,-1.2576299905776978,2.2484898567199707,0.46494197845458984,163.5,-138.90000915527344,-56.70000076293945
865405,-4.276124000549316,8.63359546661377,-0.08074930310249329,-0.8231759667396545,2.339953899383545,0.7926880121231079,165.90000915527344,-143.70001220703125,-55.500003814697266
865427,-4.053016662597656,8.806459426879883,0.37324121594429016,-0.7545779943466187,2.187514066696167,0.9603719711303711,156.3000030517578,-138.90000915527344,-57.30000305175781
865447,-3.8101706504821777,9.56191349029541,0.9570287466049194,-0.6402480006217957,2.5762360095977783,0.6554920077323914,168.3000030517578,-141.3000030517578,-57.900001525878906
865467,-4.0404558181762695,10.160056114196777,0.806296706199646,-0.38109999895095825,3.8948419094085693,-0.6478700041770935,158.70001220703125,-143.70001220703125,-54.900001525878906
865487,-4.060792446136475,9.95549201965332,0.7817728519439697,-0.3582339882850647,4.1387457847595215,-1.1661659479141235,165.90000915527344,-143.70001220703125,-57.30000305175781
865507,-4.261768817901611,8.246597290039062,0.22310732305049896,0.038109999150037766,4.336917877197266,-1.417691946029663,165.90000915527344,-143.70001220703125,-56.10000228881836
865527,-3.63910174369812,7.444487571716309,0.1603023111820221,1.981719970703125,4.115880012512207,1.9436099529266357,170.70001220703125,-131.70001220703125,-53.10000228881836
865547,-3.26167368888855,8.523537635803223,0.1339840292930603,2.4695279598236084,4.710395812988281,2.987823963165283,168.3000030517578,-143.70001220703125,-53.70000076293945
865589,-2.999088764190674,10.248581886291504,0.1411617398262024,0.9603719711303711,5.510705947875977,0.25152599811553955,168.3000030517578,-138.90000915527344,-54.30000305175781
865619,-3.2646644115448,9.923789978027344,0.32897862792015076,0.6402480006217957,6.875043869018555,-1.6387299299240112,170.70001220703125,-143.70001220703125,-50.70000076293945
865639,-3.841872215270996,9.674962997436523,0.07476787269115448,0.571649968624115,7.789683818817139,-2.2484898567199707,173.10000610351562,-146.10000610351562,-50.10000228881836
865680,-5.2475080490112305,9.643858909606934,-0.4856920838356018,1.6615959405899048,7.279009819030762,-0.967993974685669,185.10000610351562,-146.10000610351562,-48.900001525878906
865701,-5.4143900871276855,9.744945526123047,-1.0413669347763062,1.7454379796981812,7.400961875915527,0.030487999320030212,175.5,-143.70001220703125,-45.900001525878906
865721,-5.078832149505615,9.387853622436523,-2.1353704929351807,1.3490939140319824,6.958885669708252,0.7545779943466187,182.70001220703125,-148.5,-45.900001525878906
865743,-4.604504585266113,7.771073341369629,-2.2466249465942383,1.0747020244598389,6.196685791015625,1.4481799602508545,180.3000030517578,-146.10000610351562,-46.5
865804,-3.582876443862915,10.521932601928711,-3.284403085708618,2.2103798389434814,6.059489727020264,0.9984819889068604,175.5,-148.5,-41.10000228881836
865824,-4.417285919189453,9.631896018981934,-3.377713441848755,1.189031958580017,5.365887641906738,-0.8384199738502502,175.5,-153.3000030517578,-41.70000076293945
865844,-4.64996337890625,8.481667518615723,-3.2921788692474365,0.457319974899292,4.961921691894531,-0.7088459730148315,177.90000915527344,-148.5,-40.5
865865,-4.3891730308532715,8.628211975097656,-3.4153964519500732,0.228659987449646,5.152472019195557,0.9908599853515625,180.3000030517578,-150.90000915527344,-39.900001525878906
865886,-4.084718227386475,8.3458890914917,-3.3460118770599365,-0.3125019967556,5.381131649017334,2.1036720275878906,175.5,-148.5,-41.10000228881836
865906,-3.5631377696990967,8.580361366271973,-3.580483913421631,-0.015243999660015106,5.632658004760742,3.3384358882904053,173.10000610351562,-155.70001220703125,-41.10000228881836
865926,-2.8872361183166504,8.691615104675293,-3.251505136489868,-0.15243999660015106,5.701255798339844,3.60520601272583,165.90000915527344,-150.90000915527344,-39.900001525878906
865969,-3.234158992767334,9.060669898986816,-3.3161046504974365,-0.3277460038661957,6.9283976554870605,1.753059983253479,161.10000610351562,-158.10000610351562,-36.900001525878906
865990,-3.67199969291687,8.732887268066406,-3.461453437805176,-0.19054999947547913,6.9360198974609375,1.6768399477005005,165.90000915527344,-155.70001220703125,-36.900001525878906
866010,-3.722841739654541,9.058277130126953,-3.6193630695343018,0.007621999830007553,6.654006004333496,2.2027578353881836,146.70001220703125,-155.70001220703125,-36.30000305175781
866030,-3.4925568103790283,9.236523628234863,-3.45786452293396,-0.2972579896450043,6.234796047210693,2.6753220558166504,151.5,-158.10000610351562,-35.70000076293945
866051,-3.5212676525115967,8.650941848754883,-3.434536933898926,-0.5868939757347107,6.044245719909668,2.835383892059326,151.5,-165.3000030517578,-36.30000305175781
866071,-3.272440195083618,8.44458293914795,-3.5601470470428467,-0.41158798336982727,6.166197776794434,3.4222779273986816,156.3000030517578,-158.10000610351562,-36.30000305175781
866091,-3.0325849056243896,8.044425010681152,-3.3376376628875732,-0.36585599184036255,5.640279769897461,3.9939279556274414,144.3000030517578,-160.5,-36.30000305175781
866111,-2.5863702297210693,8.21728801727295,-3.3394322395324707,0.06859800219535828,5.823207855224609,4.664663791656494,139.5,-167.70001220703125,-34.5
866131,-2.0797431468963623,8.373403549194336,-3.135465383529663,0.015243999660015106,5.785098075866699,5.007653713226318,132.3000030517578,-170.10000610351562,-34.5
866155,-1.8004103899002075,8.13952922821045,-2.9524338245391846,-0.2743920087814331,6.1738200187683105,4.870458126068115,129.90000915527344,-162.90000915527344,-32.10000228881836
866175,-1.5611531734466553,7.928983211517334,-3.118119239807129,-0.25152599811553955,6.356747627258301,4.8552141189575195,127.50000762939453,-167.70001220703125,-33.30000305175781
866195,-1.3111294507980347,7.762101173400879,-2.984135389328003,-0.2134159952402115,6.250040054321289,4.794238090515137,127.50000762939453,-167.70001220703125,-32.70000076293945
866215,-1.1095552444458008,7.8619914054870605,-2.9434616565704346,-0.3048799932003021,6.501565933227539,4.817103862762451,122.70000457763672,-174.90000915527344,-32.70000076293945
866235,-0.9432714581489563,7.695707321166992,-3.1366617679595947,-0.5182960033416748,6.448211669921875,4.557955741882324,122.70000457763672,-172.5,-31.500001907348633
866255,-0.7052105665206909,7.7369794845581055,-3.3555819988250732,-0.22103799879550934,6.166197776794434,4.611310005187988,110.70000457763672,-170.10000610351562,-32.10000228881836
866275,-0.6543684005737305,7.613761901855469,-3.552371025085449,-0.3201240003108978,5.472595691680908,4.054903984069824,103.50000762939453,-174.90000915527344,-30.30000114440918
866335,-0.0897214487195015,7.238128185272217,-3.44590163230896,-0.25152599811553955,3.7881338596343994,3.452765941619873,93.9000015258789,-177.3000030517578,-31.500001907348633
866395,0.521580696105957,7.726212978363037,-3.3484044075012207,-1.0365920066833496,2.7667858600616455,2.187514066696167,84.30000305175781,-174.90000915527344,-30.30000114440918
866415,0.6974347233772278,7.583854675292969,-3.3454136848449707,-1.3795819282531738,2.995445966720581,1.5625100135803223,79.5,-177.3000030517578,-31.500001907348633
866435,1.0724703073501587,8.231045722961426,-3.850844383239746,-0.8765299916267395,2.698187828063965,1.646351933479309,74.70000457763672,-170.10000610351562,-29.100000381469727
866456,1.7776808738708496,9.087586402893066,-3.48777174949646,-0.4344539940357208,1.471045970916748,1.8369019031524658,72.30000305175781,-177.3000030517578,-30.30000114440918
866476,2.3327574729919434,10.17859935760498,-3.3555819988250732,-0.457319974899292,0.9451279640197754,1.9512319564819336,74.70000457763672,-174.90000915527344,-31.500001907348633
866496,2.8184497356414795,9.911827087402344,-2.166473865509033,-2.073184013366699,-0.030487999320030212,0.7240899801254272,72.30000305175781,-174.90000915527344,-30.900001525878906
866518,2.564239025115967,8.954798698425293,-1.7531570196151733,-2.9649579524993896,1.8369019031524658,-0.015243999660015106,74.70000457763672,-177.3000030517578,-32.10000228881836
866539,2.5439021587371826,9.246692657470703,-2.438628911972046,-2.3475759029388428,2.484771966934204,0.2134159952402115,77.10000610351562,-174.90000915527344,-32.10000228881836
866559,2.5259578227996826,8.537294387817383,-1.9732736349105835,-2.2713558673858643,1.7149499654769897,0.2972579896450043,74.70000457763672,-172.5,-33.30000305175781
866579,2.608501434326172,8.35486125946045,-1.706501841545105,-1.4862899780273438,1.6844619512557983,0.967993974685669,69.9000015258789,-177.3000030517578,-33.30000305175781
866599,2.9069747924804688,8.534303665161133,-1.3661586046218872,-1.0975680351257324,1.600619912147522,1.4634239673614502,69.9000015258789,-179.70001220703125,-33.900001525878906
866619,3.195279836654663,9.263440132141113,-1.433748722076416,-0.7545779943466187,2.324709892272949,1.8140360116958618,67.5,-177.3000030517578,-33.30000305175781
866639,3.5039215087890625,10.943623542785645,-2.146136999130249,0.07621999830007553,2.7134318351745605,2.1112940311431885,62.70000076293945,-177.3000030517578,-33.30000305175781
866659,3.723439931869507,10.956184387207031,-1.9379832744598389,-0.33536797761917114,1.5548880100250244,0.7317119836807251,60.30000305175781,-177.3000030517578,-33.30000305175781
866679,3.156998634338379,9.228748321533203,-1.4534873962402344,-0.5182960033416748,1.5853760242462158,0.02286599949002266,65.10000610351562,-177.3000030517578,-33.30000305175781
866703,2.866899251937866,8.975733757019043,-1.526460886001587,0.05335399881005287,1.829279899597168,0.48018598556518555,62.70000076293945,-177.3000030517578,-33.900001525878906
866743,1.8034011125564575,8.98231315612793,-2.3507018089294434,0.5030519962310791,1.2500079870224,0.007621999830007553,60.30000305175781,-179.70001220703125,-32.70000076293945
866763,1.8476636409759521,8.96436882019043,-2.241241693496704,0.5259180068969727,0.8841519951820374,-0.26677000522613525,62.70000076293945,-182.10000610351562,-32.10000228881836
866783,1.821345329284668,8.924293518066406,-2.0336861610412598,0.2743920087814331,0.7621999979019165,-0.9908599853515625,60.30000305175781,-177.3000030517578,-32.70000076293945
866803,1.915253758430481,8.701784133911133,-1.955329418182373,-0.114329993724823,1.0594580173492432,-1.6387299299240112,60.30000305175781,-172.5,-31.500001907348633
866823,1.7896437644958496,7.998965740203857,-1.8105788230895996,-0.41158798336982727,1.653973937034607,-2.1112940311431885,60.30000305175781,-179.70001220703125,-32.10000228881836
866843,1.7896437644958496,7.887113094329834,-1.951142430305481,-0.1600620001554489,2.4619059562683105,-1.1737879514694214,62.70000076293945,-174.90000915527344,-33.30000305175781
866867,2.0438544750213623,8.452956199645996,-1.9320018291473389,0.17530599236488342,2.9268479347229004,-0.015243999660015106,65.10000610351562,-174.90000915527344,-32.70000076293945
866887,2.1915957927703857,8.683241844177246,-1.9158519506454468,0.3048799932003021,3.1250200271606445,0.426831990480423,69.9000015258789,-179.70001220703125,-31.500001907348633
866907,2.2974672317504883,8.63658618927002,-1.7029130458831787,0.19817200303077698,3.3308138847351074,0.5945159792900085,67.5,-174.90000915527344,-30.900001525878906
866927,2.441619634628296,8.803468704223633,-1.637715458869934,0.23628199100494385,3.559473991394043,0.7698220014572144,62.70000076293945,-179.70001220703125,-30.900001525878906
866947,2.5498836040496826,8.87883472442627,-1.61139714717865,0.1600620001554489,3.7195358276367188,0.5945159792900085,57.900001525878906,-174.90000915527344,-32.10000228881836
866967,2.534331798553467,8.653334617614746,-1.627547025680542,0.12195199728012085,3.8414878845214844,0.2134159952402115,57.900001525878906,-177.3000030517578,-29.700000762939453
867007,2.4810969829559326,8.206521987915039,-1.6119953393936157,0.49542999267578125,3.7957558631896973,-0.6021379828453064,62.70000076293945,-174.90000915527344,-30.30000114440918
867027,2.3770201206207275,7.8470377922058105,-1.514497995376587,0.5792719721794128,3.7881338596343994,-0.9832379817962646,62.70000076293945,-172.5,-31.500001907348633
867047,2.507415294647217,8.440993309020996,-1.6634355783462524,0.9070180058479309,4.184477806091309,-0.967993974685669,60.30000305175781,-177.3000030517578,-31.500001907348633
867067,3.1498208045959473,10.452548027038574,-2.4194884300231934,1.2576299905776978,4.405515670776367,-0.7926880121231079,62.70000076293945,-170.10000610351562,-29.700000762939453
867087,3.6145780086517334,10.785116195678711,-2.051032304763794,0,3.810999870300293,-2.1494040489196777,60.30000305175781,-170.10000610351562,-29.700000762939453
867110,3.254495859146118,9.156970977783203,-2.051032304763794,-1.0823240280151367,4.916189670562744,-2.6753220558166504,62.70000076293945,-177.3000030517578,-28.500001907348633
867130,2.7496633529663086,8.622230529785156,-2.7048025131225586,-0.8765299916267395,5.625035762786865,-2.0960500240325928,67.5,-172.5,-29.100000381469727
867150,1.7597366571426392,7.200445175170898,-2.902787923812866,-0.6173819899559021,6.089977741241455,-2.28659987449646,65.10000610351562,-167.70001220703125,-27.900001525878906
867172,1.6030231714248657,9.042725563049316,-4.19477653503418,1.5625100135803223,5.076251983642578,0,62.70000076293945,-170.10000610351562,-30.900001525878906
867192,2.024115800857544,10.649337768554688,-4.766003131866455,1.8978779315948486,4.74850606918335,-0.7850660085678101,67.5,-172.5,-28.500001907348633
867212,2.4661433696746826,11.625506401062012,-5.726022720336914,2.545747995376587,3.8948419094085693,-1.875011920928955,69.9000015258789,-172.5,-26.100000381469727
867233,2.068976640701294,9.788609504699707,-5.196067810058594,1.8673899173736572,1.5929979085922241,-3.8948419094085693,72.30000305175781,-174.90000915527344,-25.500001907348633
867253,1.637715458869934,7.5431809425354,-4.8958001136779785,2.6219680309295654,2.1494040489196777,-3.810999870300293,69.9000015258789,-174.90000915527344,-26.700000762939453
867276,1.628743290901184,7.7004923820495605,-4.957408905029297,2.835383892059326,1.7301939725875854,-0.5411620140075684,74.70000457763672,-172.5,-25.500001907348633
867296,2.1060614585876465,9.485949516296387,-4.584167957305908,1.7835479974746704,1.9664759635925293,0.9451279640197754,79.5,-167.70001220703125,-26.100000381469727
867316,1.8327100276947021,9.368115425109863,-4.42685604095459,0.33536797761917114,2.7667858600616455,-0.3887220025062561,74.70000457763672,-167.70001220703125,-25.500001907348633
867336,1.7633254528045654,8.79090690612793,-4.079933166503906,-0.7774440050125122,2.995445966720581,-1.0365920066833496,74.70000457763672,-172.5,-24.30000114440918
867356,1.7507644891738892,8.287869453430176,-3.7162623405456543,-1.524399995803833,3.254593849182129,-1.3186060190200806,79.5,-167.70001220703125,-25.500001907348633
867376,1.655659794807434,7.616154670715332,-3.3699374198913574,-2.0503180027008057,3.3917899131774902,-0.9908599853515625,74.70000457763672,-170.10000610351562,-24.30000114440918
867420,1.9068797826766968,7.891300201416016,-3.1163249015808105,-2.0503180027008057,3.5289859771728516,0.5259180068969727,79.5,-170.10000610351562,-24.900001525878906
867440,2.0097603797912598,8.2262601852417,-3.213223934173584,-1.707327961921692,3.0792880058288574,0.6783579587936401,74.70000457763672,-170.10000610351562,-24.900001525878906
867463,2.2579896450042725,8.51516342163086,-3.2443275451660156,-1.1509219408035278,1.8902559280395508,0.36585599184036255,77.10000610351562,-172.5,-26.700000762939453
867483,2.4338438510894775,8.599501609802246,-3.21980357170105,-0.8079319596290588,1.021347999572754,0.08384199440479279,69.9000015258789,-165.3000030517578,-24.900001525878906
867505,2.4996395111083984,8.558229446411133,-3.252103328704834,-0.5182960033416748,0.3734779953956604,-0.060975998640060425,69.9000015258789,-167.70001220703125,-27.30000114440918
867566,2.5409114360809326,8.228055000305176,-3.272440195083618,-0.17530599236488342,-1.4558019638061523,-0.16768398880958557,67.5,-172.5,-27.30000114440918
867712,2.7071950435638428,7.960684776306152,-3.3131139278411865,-0.5259180068969727,-1.2881180047988892,0.5259180068969727,69.9000015258789,-172.5,-27.30000114440918
867732,2.6545584201812744,8.093472480773926,-3.3968539237976074,-0.6326259970664978,-1.1737879514694214,0.5640279650688171,65.10000610351562,-167.70001220703125,-26.100000381469727
867772,2.720952272415161,8.156277656555176,-3.3932650089263916,-0.5411620140075684,-1.6082419157028198,0.6326259970664978,69.9000015258789,-172.5,-25.500001907348633
867792,2.8722825050354004,8.454153060913086,-3.4112093448638916,-0.4420759975910187,-1.5853760242462158,0.8079319596290588,65.10000610351562,-167.70001220703125,-26.700000762939453
867812,2.9679853916168213,9.04990291595459,-3.68097186088562,-0.25152599811553955,-1.6615959405899048,0.8384199738502502,67.5,-170.10000610351562,-26.700000762939453
867832,2.8094775676727295,8.78014087677002,-3.549978494644165,-0.5335400104522705,-2.027451992034912,0.4878079891204834,62.70000076293945,-170.10000610351562,-27.900001525878906
867892,2.789738893508911,8.93147087097168,-3.1402506828308105,-0.5030519962310791,-2.690565824508667,0.16768398880958557,57.900001525878906,-174.90000915527344,-27.30000114440918
867914,2.6569511890411377,9.130054473876953,-2.8238329887390137,-0.7698220014572144,-2.8201398849487305,-0.1295740008354187,65.10000610351562,-174.90000915527344,-26.700000762939453
867934,2.4541807174682617,9.054688453674316,-2.5857720375061035,-1.3186060190200806,-2.591480016708374,-0.510673999786377,65.10000610351562,-167.70001220703125,-26.100000381469727
867954,2.5558648109436035,9.3896484375,-2.3596739768981934,-1.5167779922485352,-2.3170878887176514,-0.5868939757347107,74.70000457763672,-172.5,-29.700000762939453
867974,2.804692506790161,10.357443809509277,-2.5887627601623535,-1.5472660064697266,-1.935987949371338,-0.2591480016708374,62.70000076293945,-172.5,-27.30000114440918
867994,2.623455047607422,9.995567321777344,-2.0438544750213623,-1.8902559280395508,-2.088428020477295,-0.6097599864006042,69.9000015258789,-170.10000610351562,-28.500001907348633
868014,2.1688663959503174,9.673766136169434,-1.4020471572875977,-1.9969639778137207,-1.7606819868087769,-0.25152599811553955,67.5,-174.90000915527344,-28.500001907348633
868034,1.9834420680999756,10.784518241882324,-1.5611531734466553,-1.7759259939193726,-1.371959924697876,-0.36585599184036255,67.5,-167.70001220703125,-29.100000381469727
868057,1.9834420680999756,10.3377046585083,-1.025217056274414,-2.324709892272949,-0.7088459730148315,-2.225623846054077,67.5,-177.3000030517578,-30.30000114440918
868077,1.5910602807998657,9.679747581481934,-0.9498510360717773,-2.4009299278259277,-0.426831990480423,-2.39330792427063,69.9000015258789,-174.90000915527344,-31.500001907348633
868158,1.5091147422790527,8.764589309692383,-1.2866054773330688,-0.38109999895095825,-0.7240899801254272,0.1448179930448532,74.70000457763672,-177.3000030517578,-32.10000228881836
868257,2.9255173206329346,9.409985542297363,-1.3847010135650635,-0.20579399168491364,0.2591480016708374,1.7149499654769897,62.70000076293945,-177.3000030517578,-31.500001907348633
868277,2.921330213546753,9.08878231048584,-1.3374476432800293,-0.426831990480423,0.5640279650688171,1.3872039318084717,67.5,-170.10000610351562,-30.900001525878906
868320,3.0481364727020264,9.01700496673584,-1.3446253538131714,-0.457319974899292,1.0594580173492432,0.9527499675750732,62.70000076293945,-174.90000915527344,-30.900001525878906
868379,2.717961549758911,8.722719192504883,-1.2172209024429321,-0.4039659798145294,1.3643379211425781,0.510673999786377,57.900001525878906,-174.90000915527344,-31.500001907348633
868399,2.834001302719116,8.923096656799316,-1.3488123416900635,-0.15243999660015106,1.3109840154647827,0.2134159952402115,65.10000610351562,-179.70001220703125,-30.900001525878906
868442,2.9111618995666504,8.785524368286133,-1.293783187866211,0.015243999660015106,1.3338500261306763,-0.08384199440479279,55.500003814697266,-177.3000030517578,-30.900001525878906
868482,2.923722743988037,8.91651725769043,-1.420589566230774,-0.060975998640060425,1.6920839548110962,-0.3048799932003021,55.500003814697266,-174.90000915527344,-32.10000228881836
868617,1.7657181024551392,8.30102825164795,-2.954228162765503,-0.13719600439071655,1.013725996017456,-0.6936019659042358,65.10000610351562,-177.3000030517578,-29.700000762939453
868637,1.949347972869873,8.971546173095703,-3.3430211544036865,0.1448179930448532,0.7545779943466187,-0.342989981174469,65.10000610351562,-177.3000030517578,-29.700000762939453
868677,1.717268466949463,8.947620391845703,-3.70190691947937,0.060975998640060425,0.3125019967556,-1.013725996017456,65.10000610351562,-167.70001220703125,-27.30000114440918
868697,1.8022047281265259,8.890796661376953,-3.7808616161346436,0.4878079891204834,-0.04573199898004532,-1.3414719104766846,60.30000305175781,-172.5,-30.30000114440918
868717,1.9942086935043335,8.680251121520996,-3.5248565673828125,0.5030519962310791,-0.04573199898004532,-1.371959924697876,62.70000076293945,-174.90000915527344,-29.100000381469727
868738,1.9942086935043335,8.81483268737793,-3.8382835388183594,0.6173819899559021,0.5411620140075684,-1.0975680351257324,62.70000076293945,-177.3000030517578,-30.30000114440918
868800,1.83749520778656,8.337514877319336,-3.728823184967041,0.1600620001554489,0.8612859845161438,-0.07621999830007553,72.30000305175781,-177.3000030517578,-29.100000381469727
869336,2.1921939849853516,10.549448013305664,-2.4793026447296143,-0.35061198472976685,0.510673999786377,0.5182960033416748,77.10000610351562,-167.70001220703125,-30.900001525878906
869356,1.830317497253418,9.273608207702637,-2.0875189304351807,-1.5853760242462158,0.09908600151538849,-0.38109999895095825,81.9000015258789,-174.90000915527344,-30.900001525878906
869398,1.732222080230713,9.113306045532227,-2.429656744003296,-0.3734779953956604,0.44969800114631653,0.3887220025062561,74.70000457763672,-167.70001220703125,-32.10000228881836
869438,1.8081861734390259,9.289758682250977,-2.6336236000061035,-0.3125019967556,0,-0.3277460038661957,74.70000457763672,-170.10000610351562,-29.700000762939453
869696,1.428963541984558,8.930274963378906,-2.613884687423706,-0.13719600439071655,1.6920839548110962,-0.510673999786377,74.70000457763672,-174.90000915527344,-30.900001525878906
869759,1.508516550064087,9.113306045532227,-2.5738091468811035,-0.08384199440479279,1.371959924697876,-0.18292799592018127,74.70000457763672,-179.70001220703125,-30.900001525878906
869877,1.622761845588684,9.024781227111816,-2.3859922885894775,-0.48018598556518555,0.8917739987373352,-0.13719600439071655,74.70000457763672,-177.3000030517578,-30.30000114440918
869897,1.6430987119674683,9.077417373657227,-2.3919737339019775,-0.4192099869251251,0.853663980960846,-0.16768398880958557,79.5,-167.70001220703125,-31.500001907348633
869940,1.62934148311615,9.001453399658203,-2.41410493850708,-0.2439039945602417,0.5640279650688171,-0.22103799879550934,74.70000457763672,-167.70001220703125,-30.900001525878906
869982,1.5312459468841553,8.98709774017334,-2.4643490314483643,-0.17530599236488342,0.3201240003108978,-0.12195199728012085,81.9000015258789,-170.10000610351562,-31.500001907348633
870062,1.5922565460205078,8.933265686035156,-2.542107582092285,-0.2134159952402115,-0.342989981174469,0.030487999320030212,77.10000610351562,-170.10000610351562,-29.700000762939453
870083,1.6502764225006104,9.112110137939453,-2.5738091468811035,0.060975998640060425,-0.3734779953956604,0.114329993724823,72.30000305175781,-177.3000030517578,-29.700000762939453
870103,1.696333408355713,9.06306266784668,-2.539715051651001,-0.12195199728012085,-0.228659987449646,0.05335399881005287,74.70000457763672,-165.3000030517578,-31.500001907348633
870123,1.6831743717193604,9.09177303314209,-2.5385186672210693,-0.09908600151538849,-0.1600620001554489,0.007621999830007553,72.30000305175781,-172.5,-30.30000114440918
870143,1.6837724447250366,9.080408096313477,-2.555266857147217,-0.20579399168491364,-0.05335399881005287,-0.114329993724823,74.70000457763672,-167.70001220703125,-30.30000114440918
870163,1.6825761795043945,9.050500869750977,-2.5385186672210693,-0.23628199100494385,0.030487999320030212,-0.19817200303077698,77.10000610351562,-177.3000030517578,-29.700000762939453
870187,1.6855669021606445,9.028369903564453,-2.5110042095184326,-0.2591480016708374,0.2134159952402115,-0.26677000522613525,79.5,-170.10000610351562,-31.500001907348633
870207,1.6670244932174683,9.033753395080566,-2.4882748126983643,-0.25152599811553955,0.35061198472976685,-0.23628199100494385,81.9000015258789,-172.5,-30.30000114440918
870227,1.699324131011963,9.089380264282227,-2.459563970565796,-0.2743920087814331,0.48018598556518555,-0.19817200303077698,81.9000015258789,-172.5,-31.500001907348633
870251,1.6263507604599,9.08280086517334,-2.47990083694458,-0.2972579896450043,0.6021379828453064,-0.23628199100494385,77.10000610351562,-167.70001220703125,-29.100000381469727
870312,1.636519193649292,8.99427604675293,-2.542705774307251,-0.16768398880958557,0.6402480006217957,-0.2134159952402115,81.9000015258789,-172.5,-29.100000381469727
870482,1.6119953393936157,9.09476375579834,-2.6186699867248535,-0.18292799592018127,0.5411620140075684,-0.3734779953956604,77.10000610351562,-170.10000610351562,-29.700000762939453
870522,1.6269488334655762,9.015809059143066,-2.6061089038848877,-0.41158798336982727,0.5335400104522705,-0.26677000522613525,74.70000457763672,-170.10000610351562,-30.30000114440918
870542,1.6119953393936157,9.00205135345459,-2.5379207134246826,-0.457319974899292,0.5640279650688171,-0.15243999660015106,77.10000610351562,-177.3000030517578,-29.700000762939453
870562,1.6574541330337524,9.127063751220703,-2.545098304748535,-0.4878079891204834,0.6021379828453064,-0.114329993724823,77.10000610351562,-172.5,-30.900001525878906
870582,1.6544634103775024,9.01521110534668,-2.47092866897583,-0.5640279650688171,0.5792719721794128,-0.12195199728012085,72.30000305175781,-172.5,-30.30000114440918
870605,1.724446177482605,9.134839057922363,-2.4308531284332275,-0.3887220025062561,0.5792719721794128,-0.09908600151538849,74.70000457763672,-170.10000610351562,-30.30000114440918
870625,1.6448931694030762,9.00623893737793,-2.4577693939208984,-0.6097599864006042,0.49542999267578125,-0.13719600439071655,74.70000457763672,-172.5,-30.30000114440918
870665,1.6670244932174683,9.121082305908203,-2.4822933673858643,-0.1448179930448532,0.22103799879550934,-0.04573199898004532,84.30000305175781,-172.5,-29.100000381469727
870725,1.6676225662231445,9.10493278503418,-2.4607601165771484,-0.38109999895095825,0.05335399881005287,-0.25152599811553955,74.70000457763672,-172.5,-30.900001525878906
870749,1.624556303024292,9.06186580657959,-2.4577693939208984,-0.4039659798145294,-0.04573199898004532,-0.35061198472976685,79.5,-170.10000610351562,-29.100000381469727
870769,1.6389117240905762,9.01521110534668,-2.4308531284332275,-0.3887220025062561,-0.114329993724823,-0.426831990480423,77.10000610351562,-167.70001220703125,-30.30000114440918
870789,1.6448931694030762,9.014613151550293,-2.4398252964019775,-0.3277460038661957,-0.12195199728012085,-0.4039659798145294,72.30000305175781,-170.10000610351562,-32.70000076293945
870809,1.6323322057724,9.044519424438477,-2.414703130722046,-0.33536797761917114,-0.09908600151538849,-0.33536797761917114,79.5,-174.90000915527344,-31.500001907348633
870832,1.6012287139892578,9.080408096313477,-2.46494722366333,-0.25152599811553955,-0.030487999320030212,-0.2972579896450043,74.70000457763672,-172.5,-30.30000114440918
870915,1.6281452178955078,9.07801628112793,-2.558257579803467,-0.18292799592018127,0.04573199898004532,-0.19054999947547913,81.9000015258789,-170.10000610351562,-29.100000381469727
871018,1.6969316005706787,8.982911109924316,-2.519378185272217,-0.25152599811553955,0.3125019967556,-0.23628199100494385,81.9000015258789,-170.10000610351562,-29.100000381469727
871038,1.7076982259750366,9.03494930267334,-2.49485445022583,-0.19817200303077698,0.38109999895095825,-0.2591480016708374,77.10000610351562,-167.70001220703125,-30.900001525878906
871084,1.624556303024292,9.05887508392334,-2.5708184242248535,-0.16768398880958557,0.4878079891204834,-0.3048799932003021,79.5,-174.90000915527344,-29.700000762939453
871105,1.62336003780365,9.024781227111816,-2.5773980617523193,-0.17530599236488342,0.4420759975910187,-0.36585599184036255,72.30000305175781,-174.90000915527344,-31.500001907348633
871125,1.6299395561218262,8.97932243347168,-2.542705774307251,-0.15243999660015106,0.3887220025062561,-0.39634400606155396,79.5,-167.70001220703125,-29.100000381469727
871188,1.5814900398254395,9.019397735595703,-2.578594446182251,-0.10670799762010574,0.3734779953956604,-0.342989981174469,77.10000610351562,-172.5,-30.30000114440918
871228,1.5300496816635132,8.975733757019043,-2.6396050453186035,-0.23628199100494385,0.25152599811553955,-0.36585599184036255,79.5,-172.5,-29.700000762939453
871335,1.6060138940811157,9.066651344299316,-2.664726972579956,-0.41158798336982727,0.16768398880958557,-0.2896359860897064,84.30000305175781,-165.3000030517578,-28.500001907348633
871375,1.4917685985565186,8.97214412689209,-2.647380828857422,-0.4725639820098877,0.16768398880958557,-0.05335399881005287,79.5,-172.5,-30.900001525878906
871396,1.5444051027297974,9.000855445861816,-2.602519989013672,-0.4344539940357208,0.114329993724823,-0.060975998640060425,81.9000015258789,-172.5,-29.100000381469727
871437,1.6006306409835815,8.964966773986816,-2.557659387588501,-0.46494197845458984,0.228659987449646,-0.09146399796009064,72.30000305175781,-172.5,-30.900001525878906
871479,1.6472856998443604,9.03913688659668,-2.5265560150146484,-0.3201240003108978,0.28201398253440857,-0.038109999150037766,81.9000015258789,-170.10000610351562,-30.30000114440918
871519,1.6622393131256104,9.024781227111816,-2.524761438369751,-0.2743920087814331,0.36585599184036255,-0.1448179930448532,72.30000305175781,-167.70001220703125,-30.900001525878906
871554,1.6401079893112183,9.02418327331543,-2.5379207134246826,-0.26677000522613525,0.4344539940357208,-0.13719600439071655,74.70000457763672,-172.5,-28.500001907348633
871574,1.6149860620498657,8.992481231689453,-2.530144691467285,-0.228659987449646,0.4420759975910187,-0.13719600439071655,77.10000610351562,-170.10000610351562,-31.500001907348633
871615,1.6789872646331787,9.045716285705566,-2.5175838470458984,-0.19817200303077698,0.4192099869251251,-0.10670799762010574,77.10000610351562,-177.3000030517578,-30.30000114440918
871695,1.6472856998443604,9.021790504455566,-2.5325372219085693,-0.22103799879550934,0.36585599184036255,-0.19817200303077698,77.10000610351562,-170.10000610351562,-30.30000114440918
871760,1.62934148311615,9.01999568939209,-2.5732109546661377,-0.2743920087814331,0.25152599811553955,-0.06859800219535828,72.30000305175781,-174.90000915527344,-30.900001525878906
871799,1.6748002767562866,9.05887508392334,-2.558257579803467,-0.2591480016708374,0.2591480016708374,-0.060975998640060425,74.70000457763672,-165.3000030517578,-30.900001525878906
871821,1.6030231714248657,8.95838737487793,-2.5851738452911377,-0.3734779953956604,0.1448179930448532,-0.030487999320030212,74.70000457763672,-174.90000915527344,-29.100000381469727
871860,1.7328201532363892,9.107324600219727,-2.5953423976898193,-0.19817200303077698,0.09146399796009064,-0.05335399881005287,74.70000457763672,-172.5,-28.500001907348633
871880,1.7220536470413208,9.013416290283203,-2.542107582092285,-0.2972579896450043,0.1448179930448532,-0.114329993724823,67.5,-174.90000915527344,-29.700000762939453
871900,1.6730059385299683,8.989490509033203,-2.5917534828186035,-0.2743920087814331,0.19817200303077698,-0.17530599236488342,69.9000015258789,-174.90000915527344,-30.30000114440918
871920,1.7047075033187866,8.989490509033203,-2.5923516750335693,-0.25152599811553955,0.20579399168491364,-0.2134159952402115,77.10000610351562,-170.10000610351562,-30.900001525878906
871940,1.7340164184570312,9.02298641204834,-2.555266857147217,-0.22103799879550934,0.2439039945602417,-0.2896359860897064,79.5,-170.10000610351562,-29.700000762939453
871960,1.6873613595962524,8.982911109924316,-2.595940589904785,-0.22103799879550934,0.3125019967556,-0.3277460038661957,69.9000015258789,-170.10000610351562,-29.700000762939453
871980,1.7250443696975708,9.038537979125977,-2.527153968811035,-0.19054999947547913,0.36585599184036255,-0.2743920087814331,69.9000015258789,-174.90000915527344,-29.700000762939453
872003,1.7059037685394287,9.074426651000977,-2.5881645679473877,-0.2134159952402115,0.457319974899292,-0.3048799932003021,79.5,-174.90000915527344,-30.30000114440918
872065,1.6311359405517578,9.04810905456543,-2.586968421936035,-0.2896359860897064,0.342989981174469,-0.2134159952402115,69.9000015258789,-177.3000030517578,-30.30000114440918
872299,1.7160722017288208,8.963770866394043,-2.545098304748535,-0.2896359860897064,0.18292799592018127,-0.228659987449646,74.70000457763672,-165.3000030517578,-29.700000762939453
872458,1.652669072151184,9.028369903564453,-2.602519989013672,-0.3887220025062561,0.19054999947547913,-0.39634400606155396,74.70000457763672,-172.5,-29.100000381469727
872478,1.646687626838684,9.008631706237793,-2.551677942276001,-0.3277460038661957,0.2439039945602417,-0.457319974899292,77.10000610351562,-167.70001220703125,-29.700000762939453
872520,1.649678349494934,8.97513484954834,-2.516387462615967,-0.2743920087814331,0.35061198472976685,-0.41158798336982727,72.30000305175781,-170.10000610351562,-29.700000762939453
872540,1.5880695581436157,9.00205135345459,-2.551677942276001,-0.228659987449646,0.426831990480423,-0.3734779953956604,74.70000457763672,-172.5,-30.30000114440918
872580,1.6030231714248657,9.087586402893066,-2.567229747772217,-0.25152599811553955,0.46494197845458984,-0.35061198472976685,77.10000610351562,-170.10000610351562,-29.700000762939453
872600,1.5838825702667236,8.96018123626709,-2.569622278213501,-0.3048799932003021,0.457319974899292,-0.28201398253440857,86.70000457763672,-170.10000610351562,-30.900001525878906
872623,1.5898640155792236,9.016407012939453,-2.567229747772217,-0.2439039945602417,0.36585599184036255,-0.15243999660015106,77.10000610351562,-172.5,-30.30000114440918
872643,1.6042194366455078,9.044519424438477,-2.563640832901001,-0.3125019967556,0.33536797761917114,-0.10670799762010574,77.10000610351562,-174.90000915527344,-30.900001525878906
872667,1.609602689743042,9.031360626220703,-2.5504815578460693,-0.3201240003108978,0.2972579896450043,-0.07621999830007553,72.30000305175781,-170.10000610351562,-29.700000762939453
872728,1.6694170236587524,8.987696647644043,-2.5474908351898193,-0.2134159952402115,0.228659987449646,-0.060975998640060425,81.9000015258789,-167.70001220703125,-31.500001907348633
872837,1.7130814790725708,8.995471954345703,-2.6067070960998535,-0.2591480016708374,0.16768398880958557,-0.19817200303077698,72.30000305175781,-174.90000915527344,-28.500001907348633
872881,1.748371958732605,9.06306266784668,-2.586968421936035,-0.28201398253440857,0.25152599811553955,-0.19817200303077698,79.5,-174.90000915527344,-29.100000381469727
872901,1.7340164184570312,9.00803279876709,-2.608501434326172,-0.3277460038661957,0.2972579896450043,-0.22103799879550934,74.70000457763672,-167.70001220703125,-30.30000114440918
872941,1.7441848516464233,9.012818336486816,-2.5744073390960693,-0.3125019967556,0.36585599184036255,-0.19817200303077698,74.70000457763672,-170.10000610351562,-30.900001525878906
872981,1.658650517463684,8.99427604675293,-2.611492156982422,-0.35061198472976685,0.20579399168491364,-0.09146399796009064,72.30000305175781,-172.5,-30.30000114440918
873001,1.721455454826355,9.097156524658203,-2.637810468673706,-0.28201398253440857,0.1448179930448532,-0.1600620001554489,81.9000015258789,-170.10000610351562,-29.700000762939453
873043,1.6981278657913208,8.985901832580566,-2.569622278213501,-0.3734779953956604,0.18292799592018127,-0.19817200303077698,79.5,-170.10000610351562,-29.700000762939453
873063,1.7310258150100708,8.981715202331543,-2.564239025115967,-0.426831990480423,0.20579399168491364,-0.2134159952402115,77.10000610351562,-165.3000030517578,-29.700000762939453
873083,1.733418345451355,8.957789421081543,-2.530144691467285,-0.35061198472976685,0.25152599811553955,-0.2591480016708374,69.9000015258789,-172.5,-29.700000762939453
873125,1.7280350923538208,8.97633171081543,-2.555266857147217,-0.2591480016708374,0.38109999895095825,-0.3277460038661957,74.70000457763672,-172.5,-29.100000381469727
873145,1.7190629243850708,9.083398818969727,-2.572613000869751,-0.22103799879550934,0.4344539940357208,-0.33536797761917114,79.5,-170.10000610351562,-30.30000114440918
873165,1.633528470993042,8.947022438049316,-2.640801191329956,-0.3277460038661957,0.4039659798145294,-0.3582339882850647,77.10000610351562,-177.3000030517578,-28.500001907348633
873186,1.621565580368042,8.965564727783203,-2.6216607093811035,-0.28201398253440857,0.36585599184036255,-0.342989981174469,77.10000610351562,-170.10000610351562,-29.700000762939453
873206,1.6759966611862183,9.047510147094727,-2.6043145656585693,-0.342989981174469,0.20579399168491364,-0.3125019967556,72.30000305175781,-170.10000610351562,-30.900001525878906
873226,1.6783891916275024,9.010425567626953,-2.5588555335998535,-0.4039659798145294,0.19054999947547913,-0.3125019967556,77.10000610351562,-172.5,-30.900001525878906
873288,1.6813799142837524,8.977527618408203,-2.539715051651001,-0.2743920087814331,0.3048799932003021,-0.20579399168491364,84.30000305175781,-170.10000610351562,-29.700000762939453
873352,1.6915483474731445,9.007434844970703,-2.6150810718536377,-0.23628199100494385,0.3125019967556,-0.23628199100494385,77.10000610351562,-170.10000610351562,-29.100000381469727
873472,1.6933428049087524,9.023585319519043,-2.6102960109710693,-0.3125019967556,0.19817200303077698,-0.3201240003108978,74.70000457763672,-182.10000610351562,-30.30000114440918
873492,1.6987260580062866,9.013416290283203,-2.5971367359161377,-0.2134159952402115,0.2134159952402115,-0.3048799932003021,74.70000457763672,-174.90000915527344,-28.500001907348633
873536,1.658650517463684,9.06605339050293,-2.6073052883148193,-0.3734779953956604,0.2439039945602417,-0.4039659798145294,79.5,-170.10000610351562,-29.700000762939453
873598,1.6030231714248657,9.070240020751953,-2.524761438369751,-0.46494197845458984,0.2591480016708374,-0.41158798336982727,72.30000305175781,-172.5,-30.30000114440918
874016,1.6562578678131104,8.96915340423584,-2.5295467376708984,-0.3201240003108978,0.2439039945602417,-0.12195199728012085,74.70000457763672,-167.70001220703125,-29.700000762939453
874056,1.6472856998443604,8.950611114501953,-2.5468928813934326,-0.3048799932003021,0.16768398880958557,-0.2743920087814331,79.5,-167.70001220703125,-27.900001525878906
874077,1.6969316005706787,9.02418327331543,-2.539715051651001,-0.20579399168491364,0.1600620001554489,-0.3201240003108978,74.70000457763672,-170.10000610351562,-30.30000114440918
874097,1.723249912261963,9.11868953704834,-2.5122005939483643,-0.2439039945602417,0.20579399168491364,-0.2896359860897064,74.70000457763672,-174.90000915527344,-29.700000762939453
874138,1.6239581108093262,9.040332794189453,-2.5259578227996826,-0.18292799592018127,0.1600620001554489,-0.1448179930448532,74.70000457763672,-170.10000610351562,-30.30000114440918
874258,1.5784993171691895,8.98410701751709,-2.6222589015960693,-0.07621999830007553,0.1600620001554489,-0.1600620001554489,77.10000610351562,-172.5,-28.500001907348633
874279,1.61737859249115,8.988892555236816,-2.5445001125335693,-0.030487999320030212,0.1295740008354187,-0.06859800219535828,77.10000610351562,-172.5,-30.900001525878906
874319,1.649678349494934,8.951210021972656,-2.652764081954956,-0.19054999947547913,0.1295740008354187,0.04573199898004532,74.70000457763672,-174.90000915527344,-29.100000381469727
874339,1.636519193649292,9.023585319519043,-2.6910452842712402,-0.09908600151538849,0.09146399796009064,0.10670799762010574,79.5,-170.10000610351562,-29.700000762939453
874359,1.6975297927856445,9.042725563049316,-2.6635305881500244,-0.17530599236488342,0.038109999150037766,0.05335399881005287,81.9000015258789,-167.70001220703125,-30.30000114440918
874379,1.724446177482605,8.992481231689453,-2.6192681789398193,-0.2743920087814331,0.08384199440479279,-0.030487999320030212,74.70000457763672,-174.90000915527344,-29.100000381469727
874441,1.7471755743026733,9.000855445861816,-2.6396050453186035,-0.22103799879550934,0.3125019967556,-0.08384199440479279,74.70000457763672,-167.70001220703125,-29.100000381469727
874555,1.7076982259750366,9.01401424407959,-2.6521658897399902,-0.342989981174469,0.35061198472976685,-0.2439039945602417,77.10000610351562,-177.3000030517578,-29.100000381469727
874575,1.733418345451355,9.005640983581543,-2.5947442054748535,-0.35061198472976685,0.39634400606155396,-0.2439039945602417,74.70000457763672,-172.5,-29.700000762939453
874618,1.730427622795105,8.988892555236816,-2.6156792640686035,-0.3201240003108978,0.5030519962310791,-0.2743920087814331,74.70000457763672,-174.90000915527344,-30.900001525878906
874660,1.6700152158737183,8.97334098815918,-2.590557098388672,-0.3277460038661957,0.4878079891204834,-0.2972579896450043,77.10000610351562,-170.10000610351562,-29.700000762939453
874859,1.6730059385299683,9.074426651000977,-2.5977349281311035,-0.1448179930448532,0.2972579896450043,-0.16768398880958557,77.10000610351562,-172.5,-28.500001907348633
874879,1.6478838920593262,9.021790504455566,-2.6132867336273193,-0.25152599811553955,0.3277460038661957,-0.16768398880958557,67.5,-167.70001220703125,-29.100000381469727
874921,1.6628375053405762,9.04810905456543,-2.6186699867248535,-0.22103799879550934,0.19817200303077698,-0.07621999830007553,79.5,-167.70001220703125,-28.500001907348633
874941,1.705305576324463,9.04212760925293,-2.6001274585723877,-0.3201240003108978,0.19817200303077698,-0.09908600151538849,77.10000610351562,-170.10000610351562,-27.900001525878906
874961,1.7268387079238892,9.01700496673584,-2.5821831226348877,-0.3125019967556,0.26677000522613525,-0.1295740008354187,72.30000305175781,-170.10000610351562,-27.900001525878906
874981,1.7148759365081787,8.941638946533203,-2.5773980617523193,-0.3048799932003021,0.3201240003108978,-0.1295740008354187,74.70000457763672,-174.90000915527344,-30.30000114440918
875041,1.6909501552581787,9.01820182800293,-2.6061089038848877,-0.19817200303077698,0.4039659798145294,-0.15243999660015106,77.10000610351562,-167.70001220703125,-29.700000762939453
875097,1.6789872646331787,9.004444122314453,-2.6216607093811035,-0.20579399168491364,0.23628199100494385,-0.15243999660015106,77.10000610351562,-174.90000915527344,-30.900001525878906
875159,1.731623888015747,8.976929664611816,-2.5893609523773193,-0.25152599811553955,0.1448179930448532,-0.1448179930448532,74.70000457763672,-174.90000915527344,-31.500001907348633
875239,1.739399790763855,9.04392147064209,-2.6402029991149902,-0.2134159952402115,0.228659987449646,-0.10670799762010574,77.10000610351562,-170.10000610351562,-30.30000114440918
875719,1.6969316005706787,8.979920387268066,-2.6300346851348877,-0.36585599184036255,0.23628199100494385,-0.3277460038661957,69.9000015258789,-172.5,-28.500001907348633
875759,1.741194248199463,9.049304962158203,-2.607903242111206,-0.3048799932003021,0.3048799932003021,-0.28201398253440857,72.30000305175781,-170.10000610351562,-29.100000381469727
875801,1.6771929264068604,9.006836891174316,-2.6282401084899902,-0.2743920087814331,0.342989981174469,-0.2591480016708374,77.10000610351562,-172.5,-30.900001525878906
876018,1.658650517463684,9.06485652923584,-2.622856855392456,-0.25152599811553955,0.457319974899292,-0.2972579896450043,79.5,-167.70001220703125,-30.30000114440918
876115,1.6622393131256104,8.995471954345703,-2.6162774562835693,-0.2743920087814331,0.19817200303077698,-0.07621999830007553,72.30000305175781,-170.10000610351562,-29.700000762939453
876176,1.6813799142837524,9.004444122314453,-2.643791913986206,-0.17530599236488342,0.17530599236488342,-0.1600620001554489,72.30000305175781,-174.90000915527344,-29.700000762939453
876196,1.6795854568481445,8.99726676940918,-2.655754804611206,-0.17530599236488342,0.1600620001554489,-0.19817200303077698,79.5,-172.5,-31.500001907348633
876219,1.706501841545105,9.039734840393066,-2.6695120334625244,-0.2134159952402115,0.1448179930448532,-0.2134159952402115,79.5,-167.70001220703125,-30.900001525878906
876239,1.6999223232269287,9.026576042175293,-2.6868581771850586,-0.28201398253440857,0.12195199728012085,-0.25152599811553955,74.70000457763672,-170.10000610351562,-30.30000114440918
876299,1.6783891916275024,9.006836891174316,-2.6419975757598877,-0.3125019967556,0.19054999947547913,-0.18292799592018127,74.70000457763672,-170.10000610351562,-29.100000381469727
876354,1.6341265439987183,8.906349182128906,-2.631829023361206,-0.44969800114631653,0.2439039945602417,-0.19817200303077698,74.70000457763672,-174.90000915527344,-28.500001907348633
876374,1.6903520822525024,9.01521110534668,-2.6276421546936035,-0.3125019967556,0.23628199100494385,-0.10670799762010574,69.9000015258789,-170.10000610351562,-30.900001525878906
876414,1.6891556978225708,8.991883277893066,-2.634819746017456,-0.5182960033416748,0.23628199100494385,-0.1448179930448532,72.30000305175781,-170.10000610351562,-31.500001907348633
876496,1.6736040115356445,9.02896785736084,-2.6126885414123535,-0.41158798336982727,0.16768398880958557,-0.25152599811553955,67.5,-172.5,-29.700000762939453
876595,1.6975297927856445,9.08280086517334,-2.6132867336273193,-0.20579399168491364,0.2591480016708374,-0.2896359860897064,77.10000610351562,-170.10000610351562,-29.700000762939453
876615,1.6048176288604736,8.969752311706543,-2.6043145656585693,-0.3277460038661957,0.228659987449646,-0.3048799932003021,74.70000457763672,-174.90000915527344,-30.30000114440918
876655,1.6532671451568604,9.036744117736816,-2.604912757873535,-0.23628199100494385,0.114329993724823,-0.1295740008354187,74.70000457763672,-174.90000915527344,-29.700000762939453
876675,1.746577501296997,9.03913688659668,-2.5744073390960693,-0.3277460038661957,0.114329993724823,-0.09908600151538849,79.5,-167.70001220703125,-30.30000114440918
876695,1.730427622795105,9.009827613830566,-2.5684258937835693,-0.33536797761917114,0.13719600439071655,-0.09908600151538849,72.30000305175781,-167.70001220703125,-27.900001525878906
876718,1.7854567766189575,9.03494930267334,-2.5827813148498535,-0.3125019967556,0.19054999947547913,-0.1600620001554489,77.10000610351562,-167.70001220703125,-28.500001907348633
876781,1.84945809841156,9.01521110534668,-2.534331798553467,-0.3048799932003021,0.36585599184036255,-0.22103799879550934,67.5,-172.5,-27.900001525878906
876859,1.7489700317382812,8.980518341064453,-2.5594537258148193,-0.25152599811553955,0.16768398880958557,-0.4039659798145294,79.5,-177.3000030517578,-29.100000381469727
876919,1.705305576324463,8.955994606018066,-2.5618462562561035,-0.19817200303077698,0.05335399881005287,-0.4878079891204834,72.30000305175781,-174.90000915527344,-27.30000114440918
876959,1.6885576248168945,8.92548942565918,-2.558257579803467,-0.2439039945602417,0.10670799762010574,-0.2972579896450043,69.9000015258789,-170.10000610351562,-30.30000114440918
876980,1.7705031633377075,9.01222038269043,-2.5797905921936035,-0.18292799592018127,0.17530599236488342,-0.1295740008354187,81.9000015258789,-165.3000030517578,-29.700000762939453
877022,1.7501662969589233,8.880030632019043,-2.610893964767456,-0.41158798336982727,0.15243999660015106,-0.10670799762010574,72.30000305175781,-170.10000610351562,-30.30000114440918
877064,1.7800735235214233,8.999659538269043,-2.6067070960998535,-0.2972579896450043,0.15243999660015106,-0.2591480016708374,74.70000457763672,-167.70001220703125,-30.30000114440918
877084,1.6999223232269287,9.018799781799316,-2.6192681789398193,-0.2591480016708374,0.20579399168491364,-0.426831990480423,79.5,-170.10000610351562,-30.30000114440918
877104,1.705305576324463,9.00922966003418,-2.608501434326172,-0.2743920087814331,0.17530599236488342,-0.6173819899559021,74.70000457763672,-174.90000915527344,-30.30000114440918
877165,1.5844807624816895,8.948817253112793,-2.622856855392456,-0.19054999947547913,0.25152599811553955,-0.6250039935112,77.10000610351562,-177.3000030517578,-28.500001907348633
877195,1.5731160640716553,9.07083797454834,-2.6425955295562744,-0.19817200303077698,0.3582339882850647,-0.4039659798145294,77.10000610351562,-170.10000610351562,-30.900001525878906
877216,1.5617512464523315,8.942237854003906,-2.6802785396575928,-0.2743920087814331,0.3125019967556,-0.2743920087814331,77.10000610351562,-167.70001220703125,-27.900001525878906
877258,1.7100907564163208,9.04093074798584,-2.646782636642456,-0.2743920087814331,0.25152599811553955,-0.08384199440479279,79.5,-172.5,-29.100000381469727
877299,1.7806715965270996,9.006836891174316,-2.6246514320373535,-0.2743920087814331,0.3048799932003021,-0.19054999947547913,77.10000610351562,-165.3000030517578,-28.500001907348633
877497,2.023517608642578,8.998462677001953,-2.5295467376708984,-0.20579399168491364,0.4420759975910187,-0.7545779943466187,79.5,-167.70001220703125,-29.700000762939453
877517,2.0187325477600098,8.99427604675293,-2.525359630584717,-0.16768398880958557,0.4420759975910187,-0.853663980960846,81.9000015258789,-167.70001220703125,-29.100000381469727
877557,2.0785467624664307,8.96018123626709,-2.512798547744751,-0.114329993724823,0.38109999895095825,-1.0899460315704346,84.30000305175781,-162.90000915527344,-32.10000228881836
877577,2.074958086013794,8.805262565612793,-2.4613583087921143,-0.1600620001554489,0.3734779953956604,-1.1204339265823364,84.30000305175781,-167.70001220703125,-29.700000762939453
877597,2.1144354343414307,8.88661003112793,-2.5229671001434326,-0.05335399881005287,0.39634400606155396,-1.0747020244598389,81.9000015258789,-165.3000030517578,-29.100000381469727
877617,2.0677802562713623,8.759803771972656,-2.539715051651001,-0.1448179930448532,0.25152599811553955,-1.0899460315704346,89.10000610351562,-172.5,-29.700000762939453
877637,2.080341339111328,8.57497787475586,-2.4428157806396484,-0.04573199898004532,0.10670799762010574,-1.1356779336929321,86.70000457763672,-174.90000915527344,-29.100000381469727
877658,2.056415557861328,8.66469955444336,-2.4816951751708984,0.12195199728012085,0.1295740008354187,-1.2652519941329956,89.10000610351562,-172.5,-29.100000381469727
877700,1.6413042545318604,7.384075164794922,-2.1748478412628174,-0.13719600439071655,-0.19054999947547913,-2.088428020477295,91.5,-167.70001220703125,-29.100000381469727
877738,1.102975606918335,5.916830062866211,-1.8039991855621338,-0.09146399796009064,-0.07621999830007553,-1.7149499654769897,96.30000305175781,-167.70001220703125,-28.500001907348633
877758,0.9707860350608826,5.818734645843506,-2.0193307399749756,0.228659987449646,0.15243999660015106,-1.1356779336929321,98.70000457763672,-170.10000610351562,-29.100000381469727
877800,0.18662060797214508,4.900585174560547,-1.9589182138442993,0.2134159952402115,-0.08384199440479279,-0.739333987236023,89.10000610351562,-172.5,-26.100000381469727
877820,-0.2428460419178009,4.121204853057861,-1.82852303981781,-0.09908600151538849,-0.17530599236488342,0.49542999267578125,96.30000305175781,-172.5,-27.900001525878906
877840,-0.5796005129814148,5.047130584716797,-1.8823559284210205,0.06859800219535828,0.6631140112876892,3.300325870513916,96.30000305175781,-167.70001220703125,-29.700000762939453
877860,0.1381710320711136,9.291552543640137,-3.2449257373809814,0.7926880121231079,1.6082419157028198,6.326260089874268,86.70000457763672,-170.10000610351562,-27.900001525878906
877882,0.028710862621665,12.632779121398926,-3.540408134460449,-1.1051899194717407,1.3186060190200806,5.243936061859131,79.5,-165.3000030517578,-29.700000762939453
877902,0.18662060797214508,15.366890907287598,-4.893407821655273,-1.3033620119094849,2.7210538387298584,3.5213639736175537,79.5,-170.10000610351562,-29.100000381469727
877922,2.092304229736328,18.77630615234375,-6.73150110244751,0.7012239694595337,2.6295900344848633,2.545747995376587,74.70000457763672,-165.3000030517578,-29.100000381469727
877942,3.079838275909424,19.599349975585938,-7.403215408325195,1.875011920928955,2.743919849395752,4.2149658203125,72.30000305175781,-167.70001220703125,-27.900001525878906
877962,5.673984050750732,19.581405639648438,-8.82799243927002,1.1814099550247192,1.3872039318084717,7.225656032562256,67.5,-167.70001220703125,-27.30000114440918
877986,4.271936893463135,19.598752975463867,-6.2846879959106445,-0.2743920087814331,-1.1737879514694214,-3.559473991394043,67.5,-174.90000915527344,-30.30000114440918
878007,4.25459098815918,19.569442749023438,-7.09397554397583,-0.5868939757347107,0.16768398880958557,-0.228659987449646,69.9000015258789,-165.3000030517578,-29.700000762939453
878027,3.398648262023926,16.5308780670166,-4.734301567077637,-2.4619059562683105,-2.2713558673858643,-3.147886037826538,67.5,-167.70001220703125,-30.30000114440918
878047,1.82852303981781,11.169123649597168,-3.0242109298706055,-1.2576299905776978,-2.431417942047119,-7.324741840362549,72.30000305175781,-174.90000915527344,-30.30000114440918
878067,0.34811919927597046,6.3445024490356445,-1.7130814790725708,-1.5396440029144287,-2.080806016921997,-8.85676383972168,86.70000457763672,-170.10000610351562,-29.100000381469727
878087,-0.7751932740211487,2.801701784133911,-0.6705182790756226,-2.278977870941162,-1.7225719690322876,-8.010722160339355,86.70000457763672,-167.70001220703125,-29.700000762939453
878108,-1.6801836490631104,-0.1985834687948227,0.2631829082965851,-2.294221878051758,-1.5472660064697266,-7.766818046569824,96.30000305175781,-165.3000030517578,-32.10000228881836
878128,-1.3858972787857056,-1.5133017301559448,-0.09390844404697418,-0.1448179930448532,0.2591480016708374,-3.4832539558410645,98.70000457763672,-165.3000030517578,-29.700000762939453
878149,0.1381710320711136,0.20695747435092926,0.23507018387317657,0.07621999830007553,-0.12195199728012085,0.853663980960846,103.50000762939453,-167.70001220703125,-30.30000114440918
878169,0.29667890071868896,0.4940660893917084,-0.4605700969696045,0.228659987449646,1.3186060190200806,1.5548880100250244,103.50000762939453,-172.5,-30.900001525878906
878193,0.5813949704170227,-0.05622543767094612,-0.15850788354873657,-0.6402480006217957,0.2439039945602417,2.3094658851623535,98.70000457763672,-172.5,-30.30000114440918
878214,0.49526238441467285,-0.8625221848487854,0.16508746147155762,-1.524399995803833,0.22103799879550934,2.896359920501709,96.30000305175781,-167.70001220703125,-28.500001907348633
878234,0.44800907373428345,-0.9067847728729248,0.2895011901855469,-1.5625100135803223,0.4039659798145294,3.5366079807281494,96.30000305175781,-165.3000030517578,-29.700000762939453
878258,0.4695422351360321,-0.6286482810974121,0.3367545008659363,-1.7911700010299683,0.5640279650688171,3.60520601272583,89.10000610351562,-172.5,-29.700000762939453
878279,0.48090696334838867,-0.6430037021636963,0.5383286476135254,-2.042695999145508,0.5792719721794128,3.3917899131774902,86.70000457763672,-170.10000610351562,-32.10000228881836
878300,0.5233750939369202,-0.3182120621204376,0.6938458681106567,-2.042695999145508,0.8765299916267395,3.6890478134155273,81.9000015258789,-172.5,-31.500001907348633
878320,0.9671971797943115,1.4540855884552002,0.11603973805904388,-0.9527499675750732,1.6234859228134155,4.710395812988281,77.10000610351562,-170.10000610351562,-30.900001525878906
878340,1.119125485420227,3.3125157356262207,0.023327575996518135,-0.5182960033416748,2.2027578353881836,5.2058258056640625,74.70000457763672,-174.90000915527344,-30.30000114440918
878360,1.5503865480422974,7.610173225402832,-1.645491361618042,2.3551979064941406,5.137228012084961,9.390303611755371,67.5,-174.90000915527344,-30.30000114440918
878380,5.031578540802002,19.599349975585938,-4.3473029136657715,-2.042695999145508,4.306429862976074,11.692148208618164,50.70000076293945,-174.90000915527344,-31.500001907348633
878400,5.657834529876709,19.547910690307617,-5.3761091232299805,0.1295740008354187,3.1402640342712402,0.8384199738502502,43.5,-174.90000915527344,-30.30000114440918
878420,6.443794250488281,19.599349975585938,-7.7932047843933105,5.579303741455078,7.1951680183410645,1.2195199728012085,38.70000076293945,-167.70001220703125,-29.700000762939453
878440,8.711952209472656,19.598154067993164,-10.078110694885254,6.288149833679199,9.344572067260742,8.330845832824707,41.10000228881836,-172.5,-30.30000114440918
878460,13.236306190490723,19.599349975585938,-11.495111465454102,-1.9588539600372314,1.882633924484253,5.602169990539551,29.100000381469727,-167.70001220703125,-29.700000762939453
878482,8.365029335021973,19.599349975585938,-6.081917762756348,-0.8765299916267395,-4.496979713439941,-4.977165699005127,36.30000305175781,-167.70001220703125,-30.900001525878906
878502,5.805575847625732,19.376842498779297,-6.4192705154418945,-0.5640279650688171,-0.7926880121231079,-4.253076076507568,33.900001525878906,-170.10000610351562,-29.100000381469727
878524,2.8806564807891846,12.552030563354492,-4.110438346862793,-2.0579400062561035,-4.336917877197266,-10.144882202148438,50.70000076293945,-172.5,-30.900001525878906
878544,0.3971669375896454,4.386780738830566,-1.3015590906143188,-3.2698378562927246,-5.198204040527344,-14.192163467407227,60.30000305175781,-172.5,-29.700000762939453
878564,-1.3984582424163818,-0.6477888226509094,-0.3636709153652191,-3.818621873855591,-2.2484898567199707,-9.657073974609375,65.10000610351562,-174.90000915527344,-31.500001907348633
878585,-1.83749520778656,-2.5080134868621826,0.1955927461385727,-4.57319974899292,-1.7454379796981812,-3.8414878845214844,72.30000305175781,-170.10000610351562,-30.30000114440918
878605,-1.0934053659439087,-2.19996976852417,-0.011364716105163097,-0.7012239694595337,-0.5259180068969727,0.12195199728012085,74.70000457763672,-177.3000030517578,-30.900001525878906
878625,1.442720890045166,2.0522284507751465,-0.8547462821006775,3.612828016281128,-1.6311079263687134,4.28356409072876,69.9000015258789,-167.70001220703125,-30.30000114440918
878645,2.056415557861328,2.244232416152954,0.3014640510082245,0.09908600151538849,-1.4024479389190674,1.2042759656906128,69.9000015258789,-170.10000610351562,-30.30000114440918
878665,0.5245713591575623,-0.47313109040260315,0.13637660443782806,-1.5701320171356201,0.41158798336982727,-0.4420759975910187,67.5,-172.5,-28.500001907348633
878685,0.3313712179660797,-0.19918161630630493,0.11962859332561493,-0.4039659798145294,0.19817200303077698,0.5335400104522705,69.9000015258789,-177.3000030517578,-31.500001907348633
878706,-0.01914057508111,-0.4533923864364624,0.3487173616886139,-1.0975680351257324,0.5030519962310791,-0.7621999979019165,72.30000305175781,-174.90000915527344,-32.10000228881836
878726,-0.26437920331954956,-0.6130965352058411,0.3636709153652191,-1.067080020904541,0.4192099869251251,-1.3186060190200806,65.10000610351562,-177.3000030517578,-30.30000114440918
878746,-0.0735715851187706,-0.6011337041854858,0.4109242260456085,-1.0747020244598389,0.33536797761917114,-1.2271419763565063,69.9000015258789,-172.5,-33.30000305175781
878766,0.001196285942569375,-0.7530620098114014,0.5670395493507385,-1.1814099550247192,0.4878079891204834,-0.6402480006217957,69.9000015258789,-177.3000030517578,-31.500001907348633
878787,0.39537250995635986,0.7967264652252197,0.07596416026353836,0.16768398880958557,1.2042759656906128,1.5472660064697266,72.30000305175781,-174.90000915527344,-33.30000305175781
878807,0.8912330269813538,3.678579330444336,-0.5401231050491333,1.4939119815826416,1.7301939725875854,4.39027214050293,67.5,-170.10000610351562,-31.500001907348633
878827,1.5444051027297974,8.848328590393066,-2.4009459018707275,4.0396599769592285,4.725639820098877,10.465005874633789,60.30000305175781,-170.10000610351562,-29.700000762939453
878851,7.515068054199219,19.599349975585938,-6.666901588439941,-1.3567159175872803,3.8262438774108887,13.75008773803711,33.900001525878906,-170.10000610351562,-32.10000228881836
878872,5.117711067199707,18.317529678344727,-4.264161109924316,-0.685979962348938,-3.9253299236297607,-4.054903984069824,31.500001907348633,-172.5,-30.30000114440918
878892,7.768681049346924,19.599349975585938,-7.6442670822143555,4.245453834533691,4.436003684997559,5.121984004974365,36.30000305175781,-174.90000915527344,-31.500001907348633
878912,14.783103942871094,19.57303237915039,-10.5171480178833,-1.2652519941329956,6.150953769683838,12.271419525146484,26.700000762939453,-167.70001220703125,-30.30000114440918
878932,9.558324813842773,19.599349975585938,-8.024685859680176,-0.7469559907913208,-9.641829490661621,-4.565577983856201,21.900001525878906,-174.90000915527344,-30.900001525878906
878952,8.41048812866211,19.599349975585938,-5.128478050231934,-1.8597679138183594,-5.693634033203125,-2.995445966720581,24.30000114440918,-172.5,-31.500001907348633
879035,-2.333953857421875,-1.0347872972488403,-0.03648672252893448,-3.254593849182129,-1.9131219387054443,-14.618995666503906,65.10000610351562,-172.5,-32.70000076293945
879055,-2.44999361038208,-2.2675600051879883,-0.04904772341251373,-2.278977870941162,-0.8460419774055481,-5.289668083190918,74.70000457763672,-177.3000030517578,-30.900001525878906
879075,0.24464046955108643,1.0951998233795166,-0.14534874260425568,0.114329993724823,-1.6692179441452026,0.3887220025062561,79.5,-170.10000610351562,-32.10000228881836
879115,0.9199438691139221,0.4755236506462097,0.176452174782753,-0.49542999267578125,-0.25152599811553955,0.9984819889068604,77.10000610351562,-170.10000610351562,-31.500001907348633
879135,0.8338112831115723,0.14654502272605896,0.17286331951618195,-1.0289700031280518,0.28201398253440857,1.4024479389190674,77.10000610351562,-174.90000915527344,-32.70000076293945
879175,0.07476787269115448,-0.7745951414108276,0.4521960914134979,-1.417691946029663,1.021347999572754,1.3109840154647827,72.30000305175781,-170.10000610351562,-32.10000228881836
879236,0.4647570848464966,1.2214078903198242,0.01854243129491806,0.44969800114631653,1.829279899597168,1.5472660064697266,72.30000305175781,-170.10000610351562,-34.5
879256,1.1843230724334717,4.231263160705566,-0.8308205604553223,1.981719970703125,2.5152599811553955,3.6890478134155273,65.10000610351562,-170.10000610351562,-32.10000228881836
879299,5.639291763305664,19.599349975585938,-5.730807781219482,0.4878079891204834,5.289668083190918,12.477213859558105,43.5,-174.90000915527344,-32.10000228881836
879340,6.128572940826416,19.599349975585938,-6.639985084533691,3.666181802749634,5.937537670135498,0.7317119836807251,41.10000228881836,-172.5,-30.900001525878906
879360,12.050188064575195,19.599349975585938,-9.79399299621582,1.242385983467102,8.490907669067383,9.367437362670898,33.900001525878906,-172.5,-31.500001907348633
879380,9.414770126342773,19.599349975585938,-7.3553643226623535,-1.524399995803833,-4.794238090515137,-4.153989791870117,29.100000381469727,-170.10000610351562,-31.500001907348633
879425,5.881539821624756,17.14995574951172,-4.773778915405273,-0.8460419774055481,0.5335400104522705,-3.407033920288086,36.30000305175781,-172.5,-31.500001907348633
879445,3.1007730960845947,11.600384712219238,-3.043949604034424,-1.2728739976882935,-1.646351933479309,-6.4253458976745605,41.10000228881836,-174.90000915527344,-30.900001525878906
879466,1.8811596632003784,7.934366703033447,-1.4845908880233765,0.2896359860897064,-0.1295740008354187,-8.536640167236328,53.10000228881836,-172.5,-29.100000381469727
879486,0.39836323261260986,2.7412891387939453,-1.1424530744552612,-0.36585599184036255,-0.6097599864006042,-11.493975639343262,60.30000305175781,-170.10000610351562,-30.30000114440918
879506,-1.5503865480422974,-1.6269488334655762,0.0544310100376606,-2.225623846054077,-1.5701320171356201,-10.297321319580078,67.5,-172.5,-31.500001907348633
879528,-1.5342366695404053,-2.330963134765625,-0.49944937229156494,0.5792719721794128,0.6173819899559021,-0.10670799762010574,77.10000610351562,-172.5,-30.30000114440918
879548,1.2525113821029663,3.1617836952209473,-1.4672447443008423,3.0792880058288574,-1.3643379211425781,4.862835884094238,72.30000305175781,-170.10000610351562,-31.500001907348633
879568,1.2525113821029663,1.9966012239456177,0.26677176356315613,-1.2728739976882935,-2.2637338638305664,-0.8307979702949524,72.30000305175781,-170.10000610351562,-30.30000114440918
879588,-0.06878644227981567,-1.205856204032898,0.09988987445831299,-2.3018438816070557,-0.9451279640197754,-1.3948259353637695,72.30000305175781,-172.5,-31.500001907348633
879608,0.356493204832077,-0.28770676255226135,0.28471603989601135,-0.9984819889068604,-1.14329993724823,1.425313949584961,65.10000610351562,-172.5,-31.500001907348633
879628,0.15671345591545105,-0.46296265721321106,0.4252796471118927,-1.829279899597168,-0.05335399881005287,0.4725639820098877,69.9000015258789,-167.70001220703125,-32.70000076293945
879648,-0.13338588178157806,-0.7853617072105408,0.5496934056282043,-2.0960500240325928,0.36585599184036255,0.1448179930448532,74.70000457763672,-174.90000915527344,-30.900001525878906
879668,0.16269488632678986,0.6860699653625488,0.38759663701057434,-0.8079319596290588,1.6311079263687134,1.2500079870224,69.9000015258789,-172.5,-30.30000114440918
879691,0.803305983543396,5.627927303314209,-1.506722092628479,3.109776020050049,4.992409706115723,6.227173805236816,62.70000076293945,-172.5,-30.900001525878906
879711,6.001168251037598,19.599349975585938,-6.2135090827941895,-0.6021379828453064,5.259180068969727,13.628135681152344,53.10000228881836,-174.90000915527344,-29.100000381469727
879731,6.4156813621521,19.599349975585938,-5.568711280822754,-2.080806016921997,0.28201398253440857,4.245453834533691,48.30000305175781,-174.90000915527344,-31.500001907348633
879753,3.2532997131347656,12.266118049621582,-2.999088764190674,-0.18292799592018127,-4.077769756317139,-8.330845832824707,50.70000076293945,-177.3000030517578,-29.700000762939453
879773,4.16187858581543,13.877514839172363,-4.88503360748291,2.3704419136047363,2.03507399559021,1.0823240280151367,48.30000305175781,-172.5,-29.700000762939453
879794,6.226668357849121,19.599349975585938,-6.866083145141602,2.431417942047119,3.239349842071533,6.661627769470215,45.900001525878906,-177.3000030517578,-29.700000762939453
879814,4.794116020202637,17.56925392150879,-5.659628868103027,-0.6173819899559021,-3.208861827850342,-2.2027578353881836,41.10000228881836,-174.90000915527344,-30.30000114440918
879877,1.3715418577194214,6.660920143127441,-1.1394623517990112,-1.1661659479141235,-0.8155539631843567,-5.449729919433594,60.30000305175781,-172.5,-30.30000114440918
879917,1.6538653373718262,7.2955498695373535,-1.827326774597168,-1.8369019031524658,0.5792719721794128,1.4024479389190674,57.900001525878906,-170.10000610351562,-30.30000114440918
879952,1.4588706493377686,5.500522613525391,-1.5802937746047974,-0.7088459730148315,0.16768398880958557,-1.2118979692459106,60.30000305175781,-179.70001220703125,-30.900001525878906
880015,1.7938307523727417,6.383979797363281,-2.056415557861328,0.5792719721794128,0.10670799762010574,0,60.30000305175781,-174.90000915527344,-31.500001907348633
880095,3.6971216201782227,14.623997688293457,-4.993895530700684,1.3109840154647827,0.9070180058479309,2.7210538387298584,50.70000076293945,-174.90000915527344,-29.700000762939453
880137,2.229278802871704,8.77296257019043,-1.8189527988433838,-0.739333987236023,-1.5625100135803223,-2.545747995376587,53.10000228881836,-174.90000915527344,-30.30000114440918
880157,2.7502613067626953,10.670272827148438,-3.230570077896118,-0.26677000522613525,0.22103799879550934,-0.3201240003108978,55.500003814697266,-174.90000915527344,-30.30000114440918
880197,1.8967113494873047,8.57976245880127,-2.3943662643432617,-1.4481799602508545,0.426831990480423,-0.8765299916267395,55.500003814697266,-172.5,-29.700000762939453
880217,2.000190019607544,8.110220909118652,-1.943366527557373,-1.6920839548110962,0.4878079891204834,-0.6250039935112,65.10000610351562,-172.5,-30.900001525878906
880237,1.8386914730072021,7.930777549743652,-2.151520252227783,-1.3414719104766846,1.013725996017456,-0.28201398253440857,55.500003814697266,-172.5,-30.900001525878906
880260,1.8829541206359863,7.749540328979492,-2.26875638961792,-0.853663980960846,0.5640279650688171,-0.20579399168491364,67.5,-174.90000915527344,-31.500001907348633
880281,1.7800735235214233,7.387065887451172,-2.2645692825317383,-0.23628199100494385,0.25152599811553955,-0.015243999660015106,60.30000305175781,-170.10000610351562,-32.10000228881836
880301,2.316009521484375,9.063660621643066,-2.584575891494751,1.021347999572754,-0.23628199100494385,1.0061039924621582,57.900001525878906,-172.5,-32.10000228881836
880321,2.3626646995544434,9.40639591217041,-2.682671308517456,0.7698220014572144,-0.3125019967556,0.739333987236023,57.900001525878906,-172.5,-31.500001907348633
880341,2.584575891494751,9.88670539855957,-2.7149710655212402,0.39634400606155396,-0.6173819899559021,0.22103799879550934,57.900001525878906,-170.10000610351562,-30.30000114440918
880361,2.564239025115967,9.625914573669434,-2.489470958709717,-0.22103799879550934,-0.44969800114631653,-0.46494197845458984,57.900001525878906,-170.10000610351562,-29.700000762939453
880381,2.411712408065796,9.563109397888184,-2.5887627601623535,-0.4878079891204834,0.030487999320030212,-0.5868939757347107,60.30000305175781,-170.10000610351562,-29.100000381469727
880401,2.2071475982666016,9.387255668640137,-2.6814749240875244,-0.7621999979019165,0.2591480016708374,-0.739333987236023,60.30000305175781,-174.90000915527344,-30.30000114440918
880421,2.0019845962524414,8.944629669189453,-2.5116024017333984,-0.8841519951820374,0.2743920087814331,-0.7774440050125122,60.30000305175781,-174.90000915527344,-29.700000762939453
880441,2.054023027420044,8.980518341064453,-2.4577693939208984,-0.6707359552383423,0.426831990480423,-0.571649968624115,57.900001525878906,-177.3000030517578,-30.900001525878906
880481,2.0737617015838623,8.74305534362793,-2.2974672317504883,-0.8155539631843567,0.6631140112876892,0.04573199898004532,53.10000228881836,-177.3000030517578,-30.900001525878906
880502,2.048041582107544,8.551650047302246,-2.375225782394409,-0.9984819889068604,0.5182960033416748,0.4725639820098877,57.900001525878906,-177.3000030517578,-29.100000381469727
880522,2.0887153148651123,8.83696460723877,-2.348907470703125,-0.510673999786377,0.457319974899292,0.7698220014572144,57.900001525878906,-174.90000915527344,-30.900001525878906
880544,2.1676700115203857,9.033753395080566,-2.366253614425659,-0.5868939757347107,0.41158798336982727,0.6707359552383423,57.900001525878906,-170.10000610351562,-30.900001525878906
880564,2.1359684467315674,9.20542049407959,-2.42606782913208,-0.4420759975910187,0.3277460038661957,0.4039659798145294,55.500003814697266,-174.90000915527344,-30.30000114440918
880584,2.086322784423828,9.12766170501709,-2.4153013229370117,-0.5182960033416748,0.07621999830007553,0.04573199898004532,53.10000228881836,-170.10000610351562,-31.500001907348633
880604,2.113837242126465,9.132447242736816,-2.474517583847046,-0.457319974899292,-0.09908600151538849,-0.12195199728012085,50.70000076293945,-174.90000915527344,-32.10000228881836
880644,2.0761542320251465,9.089380264282227,-2.4218809604644775,-0.457319974899292,-0.3887220025062561,-0.25152599811553955,53.10000228881836,-177.3000030517578,-32.10000228881836
880740,2.0875189304351807,8.927882194519043,-2.2663636207580566,-0.4344539940357208,0.44969800114631653,-0.06859800219535828,55.500003814697266,-172.5,-30.900001525878906
880760,2.0647895336151123,8.97812557220459,-2.3142151832580566,-0.33536797761917114,0.6326259970664978,-0.038109999150037766,60.30000305175781,-174.90000915527344,-30.30000114440918
880800,2.1084539890289307,8.999659538269043,-2.3267762660980225,-0.23628199100494385,0.7926880121231079,0.12195199728012085,60.30000305175781,-174.90000915527344,-30.30000114440918
880823,2.086322784423828,8.99726676940918,-2.354888916015625,-0.25152599811553955,0.7698220014572144,0.228659987449646,50.70000076293945,-170.10000610351562,-30.900001525878906
880844,2.2035586833953857,9.057679176330566,-2.337542772293091,-0.19054999947547913,0.6936019659042358,0.3048799932003021,50.70000076293945,-177.3000030517578,-30.30000114440918
880864,2.2244937419891357,8.924293518066406,-2.345318555831909,-0.2439039945602417,0.5259180068969727,0.4192099869251251,53.10000228881836,-172.5,-32.10000228881836
880884,2.2526063919067383,8.932068824768066,-2.3471131324768066,-0.23628199100494385,0.49542999267578125,0.426831990480423,53.10000228881836,-174.90000915527344,-30.30000114440918
880904,2.304046630859375,8.97513484954834,-2.3447203636169434,-0.25152599811553955,0.41158798336982727,0.4039659798145294,55.500003814697266,-170.10000610351562,-33.30000305175781
880924,2.3351502418518066,9.000855445861816,-2.3716368675231934,-0.3048799932003021,0.33536797761917114,0.26677000522613525,45.900001525878906,-167.70001220703125,-30.900001525878906
880944,2.3943662643432617,8.979920387268066,-2.340533494949341,-0.3734779953956604,0.2743920087814331,0.16768398880958557,50.70000076293945,-174.90000915527344,-33.30000305175781
881008,2.441619634628296,8.89558219909668,-2.316009521484375,-0.46494197845458984,0.3125019967556,0,53.10000228881836,-172.5,-30.30000114440918
881035,2.42606782913208,9.046314239501953,-2.330364942550659,-0.3887220025062561,0.3201240003108978,-0.07621999830007553,48.30000305175781,-172.5,-32.10000228881836
881057,2.3835997581481934,8.867469787597656,-2.339935302734375,-0.49542999267578125,0.2439039945602417,-0.22103799879550934,53.10000228881836,-174.90000915527344,-33.30000305175781
881098,2.408721685409546,9.009827613830566,-2.3148133754730225,-0.5792719721794128,0.19054999947547913,-0.3048799932003021,50.70000076293945,-177.3000030517578,-30.900001525878906
881138,2.339935302734375,8.88960075378418,-2.336944580078125,-0.28201398253440857,0,-0.18292799592018127,45.900001525878906,-177.3000030517578,-30.900001525878906
881159,2.357879638671875,9.00025749206543,-2.307635545730591,-0.23628199100494385,0.04573199898004532,-0.19817200303077698,57.900001525878906,-177.3000030517578,-30.900001525878906
881179,2.3351502418518066,9.017603874206543,-2.310626268386841,-0.2439039945602417,0.13719600439071655,-0.2896359860897064,55.500003814697266,-174.90000915527344,-32.10000228881836
881223,2.3321595191955566,8.911133766174316,-2.304644823074341,-0.23628199100494385,0.342989981174469,-0.5259180068969727,45.900001525878906,-170.10000610351562,-32.10000228881836
881243,2.355487108230591,8.939845085144043,-2.289691209793091,-0.1600620001554489,0.457319974899292,-0.571649968624115,50.70000076293945,-170.10000610351562,-31.500001907348633
881263,2.345318555831909,8.966761589050293,-2.2705507278442383,-0.1295740008354187,0.6326259970664978,-0.5945159792900085,53.10000228881836,-172.5,-31.500001907348633
881283,2.3094301223754883,8.930872917175293,-2.27174711227417,-0.13719600439071655,0.800309956073761,-0.6250039935112,55.500003814697266,-172.5,-31.500001907348633
881307,2.23884916305542,8.900965690612793,-2.319000244140625,-0.015243999660015106,0.9375059604644775,-0.6478700041770935,53.10000228881836,-174.90000915527344,-32.10000228881836
881327,2.2101383209228516,8.983509063720703,-2.3895812034606934,-0.007621999830007553,1.013725996017456,-0.6250039935112,48.30000305175781,-174.90000915527344,-31.500001907348633
881347,2.2041568756103516,8.926087379455566,-2.361468553543091,-0.12195199728012085,0.9603719711303711,-0.5640279650688171,53.10000228881836,-174.90000915527344,-29.100000381469727
881391,2.178436756134033,8.99606990814209,-2.390777349472046,-0.09908600151538849,0.8460419774055481,-0.4420759975910187,53.10000228881836,-177.3000030517578,-32.10000228881836
881411,2.1533145904541016,8.96436882019043,-2.3806090354919434,-0.17530599236488342,0.7774440050125122,-0.4039659798145294,45.900001525878906,-179.70001220703125,-32.70000076293945
881431,2.143146276473999,8.993678092956543,-2.423675298690796,-0.16768398880958557,0.7088459730148315,-0.3734779953956604,53.10000228881836,-167.70001220703125,-31.500001907348633
881451,2.146735191345215,9.005640983581543,-2.402740240097046,-0.20579399168491364,0.5868939757347107,-0.4039659798145294,55.500003814697266,-170.10000610351562,-30.30000114440918
881473,2.157501697540283,8.95838737487793,-2.4135069847106934,-0.22103799879550934,0.4420759975910187,-0.38109999895095825,53.10000228881836,-170.10000610351562,-32.70000076293945
881493,2.1832218170166016,8.98410701751709,-2.346514940261841,-0.2134159952402115,0.33536797761917114,-0.39634400606155396,55.500003814697266,-172.5,-31.500001907348633
881515,2.2107365131378174,8.98231315612793,-2.3052430152893066,-0.2896359860897064,0.2591480016708374,-0.4420759975910187,50.70000076293945,-170.10000610351562,-30.900001525878906
881535,2.327374219894409,9.060669898986816,-2.2693543434143066,-0.2972579896450043,0.28201398253440857,-0.510673999786377,57.900001525878906,-167.70001220703125,-32.70000076293945
881555,2.327972412109375,8.897377014160156,-2.295672655105591,-0.41158798336982727,0.35061198472976685,-0.5411620140075684,53.10000228881836,-174.90000915527344,-30.30000114440918
881578,2.3650572299957275,8.897974967956543,-2.330963134765625,-0.2439039945602417,0.49542999267578125,-0.4420759975910187,50.70000076293945,-177.3000030517578,-31.500001907348633
881598,2.387188673019409,8.942237854003906,-2.2496156692504883,-0.18292799592018127,0.6173819899559021,-0.457319974899292,57.900001525878906,-174.90000915527344,-30.30000114440918
881658,2.1443426609039307,9.180896759033203,-2.42905855178833,0.10670799762010574,0.8841519951820374,-1.2652519941329956,55.500003814697266,-177.3000030517578,-30.30000114440918
881694,2.0073678493499756,9.10672664642334,-2.462554693222046,0.20579399168491364,0.7164679765701294,-1.4634239673614502,57.900001525878906,-177.3000030517578,-30.900001525878906
881716,1.8931225538253784,9.085193634033203,-2.5026302337646484,0.19817200303077698,0.5030519962310791,-1.417691946029663,62.70000076293945,-165.3000030517578,-29.700000762939453
881756,1.9188426733016968,9.248486518859863,-2.4493954181671143,0.06859800219535828,0.3048799932003021,-1.1204339265823364,62.70000076293945,-172.5,-32.10000228881836
881777,1.8159620761871338,9.173718452453613,-2.5295467376708984,-0.2896359860897064,0.10670799762010574,-1.067080020904541,67.5,-170.10000610351562,-29.700000762939453
881797,1.836298942565918,8.99906063079834,-2.3883848190307617,-0.038109999150037766,-0.038109999150037766,-0.800309956073761,62.70000076293945,-174.90000915527344,-28.500001907348633
881817,2.0964910984039307,9.089380264282227,-2.360870361328125,-0.007621999830007553,0.22103799879550934,-0.5030519962310791,62.70000076293945,-177.3000030517578,-32.10000228881836
881860,2.196381092071533,8.54985523223877,-2.157501697540283,-0.4344539940357208,0.967993974685669,-0.007621999830007553,62.70000076293945,-172.5,-30.30000114440918
881880,2.151520252227783,8.158071517944336,-2.157501697540283,-0.46494197845458984,1.4100699424743652,0.1600620001554489,65.10000610351562,-170.10000610351562,-30.900001525878906
881901,2.0558173656463623,7.841654300689697,-2.327374219894409,-0.12195199728012085,1.6387299299240112,0.15243999660015106,62.70000076293945,-172.5,-30.900001525878906
881941,2.7849535942077637,9.291552543640137,-2.8860397338867188,0.6326259970664978,1.7454379796981812,0.05335399881005287,60.30000305175781,-170.10000610351562,-30.30000114440918
881983,2.6431937217712402,8.924293518066406,-3.133072853088379,0.8993960022926331,1.196653962135315,-0.571649968624115,62.70000076293945,-165.3000030517578,-31.500001907348633
882003,2.6120903491973877,8.891993522644043,-3.1851112842559814,0.853663980960846,0.4192099869251251,-1.1204339265823364,67.5,-170.10000610351562,-30.900001525878906
882023,2.637810468673706,9.171924591064453,-3.4022371768951416,1.0747020244598389,0.1295740008354187,-1.4024479389190674,65.10000610351562,-174.90000915527344,-27.900001525878906
882043,2.6629323959350586,9.06605339050293,-3.3932650089263916,0.853663980960846,-0.457319974899292,-1.5320219993591309,60.30000305175781,-172.5,-29.700000762939453
882063,2.5863702297210693,8.686232566833496,-3.132474660873413,0.5792719721794128,-0.7317119836807251,-1.5091559886932373,65.10000610351562,-174.90000915527344,-27.900001525878906
882083,2.527153968811035,8.507986068725586,-2.983537197113037,0.18292799592018127,-0.5182960033416748,-1.3414719104766846,69.9000015258789,-170.10000610351562,-28.500001907348633
882103,2.500835657119751,8.659316062927246,-3.1468300819396973,-0.09908600151538849,-0.17530599236488342,-1.3872039318084717,69.9000015258789,-167.70001220703125,-28.500001907348633
882123,2.3973569869995117,8.301626205444336,-3.046940326690674,-0.6097599864006042,-0.114329993724823,-1.5320219993591309,72.30000305175781,-172.5,-27.900001525878906
882143,2.295074462890625,8.029471397399902,-3.090604782104492,-0.5335400104522705,0.09908600151538849,-1.4634239673614502,77.10000610351562,-172.5,-27.30000114440918
882166,2.24483060836792,8.195157051086426,-3.123502492904663,-0.36585599184036255,-0.04573199898004532,-1.189031958580017,74.70000457763672,-172.5,-27.900001525878906
882190,2.24183988571167,8.186782836914062,-3.120511770248413,-0.3582339882850647,-0.1448179930448532,-1.1204339265823364,77.10000610351562,-167.70001220703125,-27.30000114440918
882211,2.22389554977417,8.318374633789062,-3.1791298389434814,-0.13719600439071655,-0.2896359860897064,-1.0899460315704346,69.9000015258789,-172.5,-29.100000381469727
882231,2.1802310943603516,8.367422103881836,-3.171354055404663,0.04573199898004532,-0.6021379828453064,-1.0594580173492432,77.10000610351562,-170.10000610351562,-29.100000381469727
882251,2.1748478412628174,8.514565467834473,-3.2114295959472656,0.25152599811553955,-0.8689079880714417,-1.067080020904541,81.9000015258789,-172.5,-27.900001525878906
882271,2.325579881668091,9.006836891174316,-3.2592811584472656,0.5564059615135193,-1.2118979692459106,-1.067080020904541,77.10000610351562,-170.10000610351562,-27.30000114440918
882291,2.542107582092285,9.667784690856934,-3.4441072940826416,0.6021379828453064,-1.3872039318084717,-1.1509219408035278,74.70000457763672,-172.5,-27.30000114440918
882311,2.4493954181671143,9.372900009155273,-3.3226842880249023,0.19054999947547913,-1.9207439422607422,-1.3490939140319824,77.10000610351562,-172.5,-27.900001525878906
882335,2.068378448486328,8.562417030334473,-2.498443126678467,-0.060975998640060425,-1.7911700010299683,-0.6097599864006042,81.9000015258789,-174.90000915527344,-27.900001525878906
882355,1.939179539680481,9.450658798217773,-2.5833795070648193,-0.2134159952402115,-1.3948259353637695,-0.342989981174469,81.9000015258789,-170.10000610351562,-29.100000381469727
882418,0.7829691767692566,9.317273139953613,-2.0462470054626465,-0.6173819899559021,-0.8155539631843567,-1.2652519941329956,89.10000610351562,-165.3000030517578,-28.500001907348633
882439,0.6567609906196594,9.369909286499023,-2.0259101390838623,-0.5640279650688171,-0.7698220014572144,-1.4862899780273438,86.70000457763672,-167.70001220703125,-27.30000114440918
882480,0.04964586719870567,8.894386291503906,-2.1682682037353516,-0.5792719721794128,-0.2896359860897064,-1.4024479389190674,89.10000610351562,-170.10000610351562,-30.30000114440918
882500,-0.15192832052707672,9.110315322875977,-2.151520252227783,0.36585599184036255,-0.26677000522613525,-1.0594580173492432,86.70000457763672,-172.5,-29.100000381469727
882520,-0.17585402727127075,9.537389755249023,-2.2992615699768066,0.571649968624115,-0.33536797761917114,-1.3948259353637695,89.10000610351562,-162.90000915527344,-29.700000762939453
882540,-0.19918161630630493,9.39263916015625,-2.48588228225708,0.5030519962310791,-0.19054999947547913,-1.699705958366394,84.30000305175781,-167.70001220703125,-27.30000114440918
882560,-0.03768300637602806,9.375890731811523,-2.5080134868621826,0.5945159792900085,-0.2134159952402115,-1.6311079263687134,96.30000305175781,-172.5,-29.100000381469727
882580,0.07835672795772552,9.32684326171875,-2.45597505569458,0.3734779953956604,0.114329993724823,-1.2881180047988892,93.9000015258789,-170.10000610351562,-27.30000114440918
882600,0.35230621695518494,9.603185653686523,-2.4972469806671143,0.2896359860897064,0.3125019967556,-0.914639949798584,96.30000305175781,-170.10000610351562,-26.100000381469727
882620,0.3911854922771454,9.30710506439209,-2.247223138809204,-0.3582339882850647,0.7164679765701294,-0.7317119836807251,93.9000015258789,-170.10000610351562,-27.30000114440918
882684,0.3959706425666809,9.182092666625977,-2.1718571186065674,-0.33536797761917114,0.9908599853515625,-0.5182960033416748,98.70000457763672,-167.70001220703125,-27.30000114440918
882714,0.4868883788585663,8.97334098815918,-2.0306954383850098,-0.7088459730148315,0.7850660085678101,-1.2118979692459106,96.30000305175781,-165.3000030517578,-28.500001907348633
882777,0.36606350541114807,8.83875846862793,-2.3327574729919434,-0.08384199440479279,0.8993960022926331,-1.577754020690918,105.9000015258789,-167.70001220703125,-28.500001907348633
882818,0.4133167862892151,9.22635555267334,-2.6808767318725586,0.4420759975910187,0.7317119836807251,-1.5548880100250244,101.10000610351562,-162.90000915527344,-29.100000381469727
882838,0.20396675169467926,8.812440872192383,-2.641399383544922,0.07621999830007553,0.7698220014572144,-1.577754020690918,105.9000015258789,-160.5,-27.30000114440918
882858,0.21114446222782135,9.409985542297363,-3.043949604034424,0.3201240003108978,0.739333987236023,-1.295740008354187,101.10000610351562,-165.3000030517578,-27.900001525878906
882905,0.33914706110954285,9.3477783203125,-3.052921772003174,0.038109999150037766,0.4725639820098877,-2.080806016921997,108.30000305175781,-160.5,-27.900001525878906
882925,0.503636360168457,9.401611328125,-3.1486246585845947,-0.06859800219535828,0.853663980960846,-1.9893419742584229,113.10000610351562,-153.3000030517578,-26.700000762939453
882945,0.48808467388153076,8.906349182128906,-3.2174110412597656,-0.007621999830007553,1.2576299905776978,-1.6844619512557983,110.70000457763672,-160.5,-27.30000114440918
882967,0.509617805480957,8.978724479675293,-3.2867956161499023,0.09908600151538849,1.3872039318084717,-1.471045970916748,108.30000305175781,-160.5,-28.500001907348633
882987,0.6017318367958069,9.17252254486084,-3.460257053375244,0.2591480016708374,1.4939119815826416,-1.2118979692459106,110.70000457763672,-165.3000030517578,-27.30000114440918
883009,0.9863377809524536,9.264636039733887,-3.794020891189575,0.5259180068969727,1.3338500261306763,-0.8231759667396545,115.50000762939453,-158.10000610351562,-26.100000381469727
883071,1.3464198112487793,9.360339164733887,-3.850844383239746,0.7012239694595337,0.8689079880714417,-0.36585599184036255,117.9000015258789,-162.90000915527344,-26.100000381469727
883092,1.3751306533813477,8.923096656799316,-3.5846707820892334,0.2134159952402115,0.6326259970664978,-0.5945159792900085,115.50000762939453,-162.90000915527344,-26.100000381469727
883112,1.4911704063415527,8.878235816955566,-3.609792947769165,-0.15243999660015106,0.5945159792900085,-0.5259180068969727,113.10000610351562,-155.70001220703125,-25.500001907348633
883132,1.5617512464523315,8.427834510803223,-3.46683669090271,-0.4420759975910187,0.5487840175628662,-0.6631140112876892,117.9000015258789,-158.10000610351562,-26.700000762939453
883152,1.6442949771881104,8.261550903320312,-3.3795077800750732,-0.26677000522613525,0.41158798336982727,-0.5259180068969727,115.50000762939453,-162.90000915527344,-24.900001525878906
883172,1.6736040115356445,7.863187313079834,-3.2987585067749023,-0.4039659798145294,0.510673999786377,-0.6783579587936401,115.50000762939453,-158.10000610351562,-24.900001525878906
883193,1.84048593044281,8.073734283447266,-3.3603672981262207,-0.030487999320030212,0.4039659798145294,-0.4725639820098877,108.30000305175781,-165.3000030517578,-23.700000762939453
883213,2.1539127826690674,8.418862342834473,-3.460257053375244,0.2134159952402115,0.28201398253440857,-0.4420759975910187,108.30000305175781,-160.5,-25.500001907348633
883235,2.1628849506378174,8.162259101867676,-3.3639559745788574,0.007621999830007553,0.2591480016708374,-0.49542999267578125,115.50000762939453,-160.5,-25.500001907348633
883256,2.2932801246643066,8.478078842163086,-3.371133804321289,0.28201398253440857,0.457319974899292,-0.23628199100494385,115.50000762939453,-162.90000915527344,-25.500001907348633
883276,2.313616991043091,8.691017150878906,-3.47580885887146,0.3201240003108978,0.5259180068969727,-0.342989981174469,115.50000762939453,-158.10000610351562,-26.100000381469727
883297,2.1066596508026123,8.781336784362793,-3.4943511486053467,0.3277460038661957,0.41158798336982727,-1.1814099550247192,117.9000015258789,-160.5,-24.900001525878906
883317,2.19697904586792,9.76707649230957,-3.9268085956573486,0.8155539631843567,0.3887220025062561,-1.3414719104766846,117.9000015258789,-155.70001220703125,-26.100000381469727
883338,1.706501841545105,8.75501823425293,-3.5332305431365967,-0.20579399168491364,-0.6173819899559021,-2.8048958778381348,120.30000305175781,-155.70001220703125,-26.700000762939453
883358,1.1747528314590454,7.854215145111084,-3.2586829662323,0,-0.5564059615135193,-2.3094658851623535,120.30000305175781,-155.70001220703125,-24.30000114440918
883380,0.7943338751792908,8.406899452209473,-3.3250768184661865,0.07621999830007553,-0.39634400606155396,-1.6615959405899048,122.70000457763672,-158.10000610351562,-24.900001525878906
883400,0.48928093910217285,9.51226806640625,-3.624746322631836,0.228659987449646,-0.19817200303077698,-1.1737879514694214,127.50000762939453,-162.90000915527344,-23.700000762939453
883420,0.11304902285337448,10.09067153930664,-3.559548854827881,-0.2591480016708374,-0.6554920077323914,-1.4329359531402588,125.10000610351562,-155.70001220703125,-24.900001525878906
883440,-0.13338588178157806,10.474679946899414,-3.5368194580078125,-0.39634400606155396,-0.5487840175628662,-1.5548880100250244,127.50000762939453,-160.5,-25.500001907348633
883460,-0.9450659155845642,9.432116508483887,-2.875871419906616,-1.3109840154647827,-0.6173819899559021,-2.652456045150757,127.50000762939453,-150.90000915527344,-23.100000381469727
883480,-1.1849212646484375,9.52423095703125,-2.7012135982513428,-0.9984819889068604,-0.114329993724823,-1.829279899597168,132.3000030517578,-150.90000915527344,-24.30000114440918
883500,-1.1466400623321533,9.654027938842773,-2.5474908351898193,-1.4558019638061523,0.35061198472976685,-1.8216580152511597,137.10000610351562,-155.70001220703125,-24.900001525878906
883520,-1.7100907564163208,8.70537281036377,-2.4781062602996826,-1.8902559280395508,0.739333987236023,-2.134160041809082,134.70001220703125,-158.10000610351562,-25.500001907348633
883540,-2.2035586833953857,8.037845611572266,-2.6479790210723877,-0.9298839569091797,0.6631140112876892,-1.8673899173736572,139.5,-155.70001220703125,-26.100000381469727
883560,-1.9989937543869019,8.186782836914062,-2.7251393795013428,0.3734779953956604,-0.2591480016708374,-0.4725639820098877,137.10000610351562,-155.70001220703125,-26.700000762939453
883581,-1.8835521936416626,8.282485961914062,-2.747868776321411,0.5411620140075684,-0.4344539940357208,-0.46494197845458984,139.5,-158.10000610351562,-24.900001525878906
883601,-1.4989463090896606,8.717933654785156,-2.8298144340515137,0.7926880121231079,-0.7850660085678101,-0.4344539940357208,134.70001220703125,-155.70001220703125,-23.700000762939453
883621,-0.90977543592453,9.4554443359375,-3.063688278198242,0.5868939757347107,-0.9984819889068604,-0.6936019659042358,139.5,-153.3000030517578,-24.30000114440918
883641,-0.5419175028800964,9.167737007141113,-2.8991990089416504,-0.18292799592018127,-1.1280559301376343,-1.478667974472046,141.90000915527344,-150.90000915527344,-24.30000114440918
883664,-0.355895072221756,9.060669898986816,-3.087614059448242,-0.4420759975910187,-0.16768398880958557,-1.2195199728012085,139.5,-153.3000030517578,-25.500001907348633
883684,-0.3971669375896454,9.41058349609375,-3.2215981483459473,-0.41158798336982727,0.038109999150037766,-1.2271419763565063,144.3000030517578,-158.10000610351562,-25.500001907348633
883704,-0.6693220138549805,9.54097843170166,-3.49674391746521,-0.3048799932003021,0.114329993724823,-2.1189160346984863,141.90000915527344,-150.90000915527344,-25.500001907348633
883724,-0.5478989481925964,9.625316619873047,-3.242532968521118,-0.3277460038661957,-0.12195199728012085,-2.2637338638305664,149.10000610351562,-150.90000915527344,-24.30000114440918
883744,-0.809885561466217,9.04093074798584,-3.263468027114868,-1.0594580173492432,0.07621999830007553,-2.492393970489502,149.10000610351562,-153.3000030517578,-24.30000114440918
883764,-1.1735565662384033,8.177212715148926,-3.142045021057129,-0.8917739987373352,0.23628199100494385,-1.92836594581604,149.10000610351562,-155.70001220703125,-25.500001907348633
883788,-1.293783187866211,8.861488342285156,-3.541604518890381,-0.1295740008354187,0.19054999947547913,-0.8460419774055481,149.10000610351562,-143.70001220703125,-27.900001525878906
883808,-1.321895956993103,8.72331714630127,-3.553567409515381,-0.25152599811553955,-0.04573199898004532,-0.4344539940357208,151.5,-150.90000915527344,-25.500001907348633
883828,-0.9079810380935669,9.188672065734863,-3.451284885406494,0.10670799762010574,-0.38109999895095825,0.3125019967556,146.70001220703125,-143.70001220703125,-25.500001907348633
883850,-0.5837875604629517,8.858497619628906,-3.1288859844207764,-0.6936019659042358,-0.17530599236488342,0.5945159792900085,146.70001220703125,-153.3000030517578,-24.900001525878906
883870,-0.4240833520889282,8.719728469848633,-3.1217081546783447,-0.9451279640197754,0.26677000522613525,0.967993974685669,146.70001220703125,-146.10000610351562,-26.700000762939453
883890,-0.2799309194087982,8.770570755004883,-3.033781051635742,-0.7317119836807251,0.4725639820098877,1.1356779336929321,146.70001220703125,-146.10000610351562,-26.100000381469727
883913,-0.011962858960032463,9.31488037109375,-3.0511271953582764,-0.510673999786377,0.5487840175628662,0.8841519951820374,149.10000610351562,-146.10000610351562,-26.100000381469727
883933,-0.034094151109457016,9.399218559265137,-2.9757611751556396,-0.4420759975910187,0.41158798336982727,0.3887220025062561,139.5,-155.70001220703125,-27.30000114440918
883973,-0.1722651720046997,9.01401424407959,-2.8836472034454346,-0.3125019967556,0.25152599811553955,0.007621999830007553,151.5,-150.90000915527344,-27.900001525878906
883993,-0.20695747435092926,9.065454483032227,-2.882451057434082,-0.228659987449646,0.2439039945602417,0.15243999660015106,144.3000030517578,-148.5,-26.100000381469727
884013,-0.16090045869350433,9.115100860595703,-2.894413948059082,-0.20579399168491364,0.1600620001554489,0.17530599236488342,139.5,-150.90000915527344,-26.700000762939453
884033,-0.0957028716802597,8.918910026550293,-2.8028979301452637,-0.3048799932003021,0.17530599236488342,0.10670799762010574,141.90000915527344,-148.5,-25.500001907348633
884055,0.00717771565541625,8.927882194519043,-2.7735888957977295,-0.20579399168491364,0.26677000522613525,0.15243999660015106,144.3000030517578,-150.90000915527344,-24.900001525878906
884076,0.032897863537073135,9.047510147094727,-2.831608772277832,-0.12195199728012085,0.3582339882850647,0.060975998640060425,141.90000915527344,-150.90000915527344,-27.30000114440918
884096,-0.07656230032444,9.059473037719727,-2.9350874423980713,-0.07621999830007553,0.3201240003108978,-0.17530599236488342,141.90000915527344,-153.3000030517578,-25.500001907348633
884118,-0.14475059509277344,8.99606990814209,-2.9021897315979004,0.007621999830007553,0.22103799879550934,-0.35061198472976685,151.5,-158.10000610351562,-26.100000381469727
884138,-0.17764846980571747,8.900965690612793,-2.9374802112579346,0.02286599949002266,0.20579399168491364,-0.4878079891204834,144.3000030517578,-153.3000030517578,-26.100000381469727
884158,-0.24164976179599762,9.12168025970459,-3.1139323711395264,0.1448179930448532,0.25152599811553955,-0.44969800114631653,146.70001220703125,-153.3000030517578,-25.500001907348633
884241,-0.37443751096725464,9.04511833190918,-3.2646644115448,0.015243999660015106,-0.18292799592018127,-0.2972579896450043,141.90000915527344,-148.5,-25.500001907348633
884276,-0.44800907373428345,8.936256408691406,-3.2269814014434814,-0.19817200303077698,-0.09908600151538849,-0.2591480016708374,139.5,-150.90000915527344,-26.700000762939453
884297,-0.46236452460289,8.929676055908203,-3.2538976669311523,-0.2134159952402115,-0.06859800219535828,-0.25152599811553955,146.70001220703125,-160.5,-25.500001907348633
884338,-0.3887929320335388,9.06904411315918,-3.2269814014434814,-0.1600620001554489,-0.030487999320030212,-0.2896359860897064,146.70001220703125,-146.10000610351562,-27.30000114440918
884361,-0.3355582058429718,9.09596061706543,-3.1695597171783447,-0.22103799879550934,0.060975998640060425,-0.3201240003108978,146.70001220703125,-155.70001220703125,-25.500001907348633
884381,-0.3343619108200073,8.986499786376953,-3.1725502014160156,-0.5335400104522705,0.13719600439071655,-0.3277460038661957,146.70001220703125,-150.90000915527344,-24.900001525878906
884401,-0.35529693961143494,8.77415943145752,-3.1522135734558105,-0.5030519962310791,0.22103799879550934,-0.28201398253440857,149.10000610351562,-153.3000030517578,-24.30000114440918
884422,-0.3959706425666809,8.852516174316406,-3.293973445892334,-0.2439039945602417,0.3125019967556,-0.15243999660015106,146.70001220703125,-153.3000030517578,-26.100000381469727
884442,-0.27454763650894165,9.025379180908203,-3.3902742862701416,-0.12195199728012085,0.2439039945602417,-0.10670799762010574,149.10000610351562,-146.10000610351562,-26.700000762939453
884464,-0.07835672795772552,8.91352653503418,-3.317301034927368,-0.3048799932003021,0.1448179930448532,-0.228659987449646,153.90000915527344,-148.5,-26.700000762939453
884484,0.0795530155301094,8.720924377441406,-3.233560800552368,-0.5564059615135193,0.28201398253440857,-0.22103799879550934,146.70001220703125,-143.70001220703125,-26.700000762939453
884504,0.11903045326471329,8.79808521270752,-3.4142000675201416,-0.6250039935112,0.571649968624115,-0.2972579896450043,141.90000915527344,-155.70001220703125,-25.500001907348633
884526,0.20277047157287598,8.935657501220703,-3.538613796234131,-0.8612859845161438,0.685979962348938,-0.685979962348938,149.10000610351562,-150.90000915527344,-27.30000114440918
884546,0.5772079825401306,9.150391578674316,-3.8053855895996094,-0.9222619533538818,0.6097599864006042,-1.2576299905776978,151.5,-148.5,-26.100000381469727
884566,0.8918311595916748,8.704176902770996,-3.794020891189575,-1.5320219993591309,0.7774440050125122,-1.577754020690918,151.5,-155.70001220703125,-27.30000114440918
884586,0.9953098893165588,8.125772476196289,-3.8998920917510986,-1.9969639778137207,1.5548880100250244,-1.699705958366394,151.5,-148.5,-27.30000114440918
884610,1.1107515096664429,8.347084999084473,-4.50461483001709,-2.28659987449646,2.088428020477295,-1.4939119815826416,151.5,-150.90000915527344,-29.100000381469727
884630,1.1215180158615112,8.805262565612793,-4.827611923217773,-2.195136070251465,2.5686140060424805,-2.2027578353881836,156.3000030517578,-148.5,-26.100000381469727
884650,1.0981905460357666,8.625221252441406,-4.8958001136779785,-2.8658719062805176,2.9649579524993896,-2.9802019596099854,156.3000030517578,-150.90000915527344,-27.30000114440918
884670,1.4947593212127686,8.576173782348633,-5.03038215637207,-3.818621873855591,4.169233798980713,-3.506119966506958,151.5,-146.10000610351562,-26.700000762939453
884691,1.539620041847229,8.321365356445312,-5.230760097503662,-4.10825777053833,5.510705947875977,-3.8262438774108887,158.70001220703125,-143.70001220703125,-27.900001525878906
884754,1.517488718032837,7.259063243865967,-4.87007999420166,-6.196685791015625,8.704323768615723,-6.143332004547119,168.3000030517578,-146.10000610351562,-27.30000114440918
884777,1.6628375053405762,6.4396071434021,-4.732507228851318,-6.516809940338135,9.306461334228516,-6.730226039886475,170.70001220703125,-138.90000915527344,-27.900001525878906
884797,1.3948694467544556,5.803781032562256,-4.664319038391113,-7.027483940124512,10.365920066833496,-7.317119598388672,177.90000915527344,-143.70001220703125,-29.700000762939453
884817,1.004281997680664,5.222386360168457,-4.659533977508545,-7.24852180480957,10.525981903076172,-8.247003555297852,185.10000610351562,-129.3000030517578,-29.100000381469727
884837,0.5359361171722412,4.52554988861084,-4.31440544128418,-7.4466938972473145,9.695183753967285,-9.512255668640137,185.10000610351562,-134.10000610351562,-30.900001525878906
884858,-1.0766572952270508,3.046342134475708,-2.190399646759033,-6.394857883453369,7.621999740600586,-10.53360366821289,201.90000915527344,-124.50000762939453,-30.900001525878906
884878,-1.7800735235214233,5.561533451080322,-1.3565882444381714,-5.449729919433594,8.041210174560547,-8.483285903930664,209.10000610351562,-122.10000610351562,-30.900001525878906
884898,-3.5398101806640625,6.396541118621826,-0.9977024793624878,-7.057971954345703,8.658592224121094,-11.17385196685791,218.70001220703125,-122.10000610351562,-30.900001525878906
884918,-5.243919372558594,6.2015461921691895,0.41570937633514404,-4.740883827209473,6.867421627044678,-11.394889831542969,223.50001525878906,-112.50000762939453,-30.30000114440918
884939,-5.264256477355957,8.075528144836426,1.0443576574325562,-5.960403919219971,8.948227882385254,-9.687561988830566,230.70001220703125,-107.70000457763672,-31.500001907348633
885000,-7.138238430023193,11.192451477050781,1.4373375177383423,-2.4695279598236084,6.99699592590332,-6.5244317054748535,242.70001220703125,-98.10000610351562,-27.900001525878906
885022,-8.233437538146973,11.348567008972168,0.5987411141395569,-1.6615959405899048,6.227173805236816,-6.150953769683838,254.70001220703125,-90.9000015258789,-27.900001525878906
885042,-8.24121379852295,12.424027442932129,1.1627899408340454,-0.6936019659042358,1.7149499654769897,-3.246971845626831,254.70001220703125,-93.30000305175781,-27.30000114440918
885062,-7.833878517150879,13.31167221069336,1.3715418577194214,-0.6783579587936401,0.8612859845161438,-2.1112940311431885,254.70001220703125,-90.9000015258789,-26.700000762939453
885082,-9.083398818969727,12.90613079071045,1.3667566776275635,-0.04573199898004532,-1.2271419763565063,-1.753059983253479,266.70001220703125,-86.10000610351562,-28.500001907348633
885123,-8.816627502441406,14.13710880279541,1.9236278533935547,0.8460419774055481,-3.5442299842834473,0.9527499675750732,257.1000061035156,-81.30000305175781,-29.100000381469727
885143,-8.88661003112793,14.540855407714844,1.7507644891738892,1.0442140102386475,-4.077769756317139,1.8521459102630615,259.5,-81.30000305175781,-28.500001907348633
885163,-9.013416290283203,13.484535217285156,1.6682207584381104,1.6158639192581177,-4.794238090515137,2.5000159740448,254.70001220703125,-86.10000610351562,-29.100000381469727
885203,-9.45723819732666,11.290546417236328,0.9624120593070984,2.8582499027252197,-7.362851619720459,5.625035762786865,249.90000915527344,-95.70000457763672,-30.900001525878906
885293,-4.623645305633545,8.183194160461426,-0.5975448489189148,5.945159912109375,-10.20585823059082,9.718050003051758,233.10000610351562,-117.30000305175781,-32.70000076293945
885313,-3.5254547595977783,8.105435371398926,-1.0491427183151245,6.158576011657715,-10.091527938842773,9.489389419555664,218.70001220703125,-126.9000015258789,-31.500001907348633
885357,-2.6336236000061035,7.038946628570557,-2.3441224098205566,5.068629741668701,-7.469559669494629,5.846074104309082,206.70001220703125,-131.70001220703125,-32.10000228881836
885377,-2.2992615699768066,6.42465353012085,-3.1067545413970947,5.571681976318359,-6.692115783691406,4.885701656341553,204.3000030517578,-131.70001220703125,-32.10000228881836
885397,-1.532442331314087,6.64477014541626,-3.025407075881958,5.320156097412109,-7.835415840148926,5.320156097412109,192.3000030517578,-134.10000610351562,-32.10000228881836
885421,-0.921140193939209,6.556843280792236,-2.8483567237854004,4.588443756103516,-6.577785968780518,4.5427117347717285,187.5,-136.5,-33.30000305175781
885441,-0.6782941222190857,6.387568950653076,-3.302347421646118,5.022897720336914,-5.343021869659424,4.245453834533691,189.90000915527344,-134.10000610351562,-31.500001907348633
885463,-0.10527316480875015,6.7021918296813965,-3.1737465858459473,4.260697841644287,-5.030519962310791,4.634175777435303,182.70001220703125,-143.70001220703125,-31.500001907348633
885485,0.09869358688592911,6.855316638946533,-3.3095250129699707,3.1173980236053467,-2.5609920024871826,3.8338658809661865,175.5,-141.3000030517578,-32.10000228881836
885505,0.15970417857170105,7.278801918029785,-3.5517730712890625,2.8734939098358154,-1.9436099529266357,3.513741970062256,175.5,-138.90000915527344,-30.30000114440918
885525,0.2721550464630127,7.806962013244629,-3.520669460296631,2.378063917160034,-1.471045970916748,2.6600780487060547,170.70001220703125,-141.3000030517578,-29.700000762939453
885545,0.3606802225112915,7.752531051635742,-3.6983180046081543,1.8902559280395508,-0.9070180058479309,1.471045970916748,168.3000030517578,-143.70001220703125,-31.500001907348633
885567,0.39836323261260986,7.548564434051514,-3.764711856842041,2.073184013366699,-0.5411620140075684,0.7850660085678101,168.3000030517578,-141.3000030517578,-29.100000381469727
885587,0.43604621291160583,7.487553596496582,-3.734804630279541,1.9893419742584229,-0.3887220025062561,0.9070180058479309,168.3000030517578,-148.5,-30.30000114440918
885607,0.2841179072856903,7.955301284790039,-4.133167743682861,1.8369019031524658,0.12195199728012085,1.3033620119094849,168.3000030517578,-143.70001220703125,-30.900001525878906
885631,0.09988987445831299,7.966068267822266,-4.378406524658203,1.875011920928955,-0.342989981174469,1.013725996017456,158.70001220703125,-148.5,-30.30000114440918
885651,0.34692293405532837,8.240017890930176,-4.286292552947998,2.378063917160034,-0.7240899801254272,1.3033620119094849,163.5,-153.3000030517578,-29.700000762939453
885671,0.4647570848464966,9.119287490844727,-4.45975399017334,1.2881180047988892,0.2439039945602417,0.914639949798584,161.10000610351562,-150.90000915527344,-29.100000381469727
885691,0.45877566933631897,9.01521110534668,-4.43582820892334,1.2652519941329956,0.17530599236488342,0.38109999895095825,161.10000610351562,-148.5,-27.900001525878906
885711,0.19080761075019836,8.72331714630127,-3.9537250995635986,0.7926880121231079,-0.2896359860897064,-0.09146399796009064,163.5,-143.70001220703125,-26.100000381469727
885731,-0.14833945035934448,8.406899452209473,-3.6618313789367676,-0.41158798336982727,0.571649968624115,-0.3048799932003021,165.90000915527344,-146.10000610351562,-27.900001525878906
885751,-0.23507018387317657,8.86089038848877,-3.823928117752075,0.02286599949002266,0.8917739987373352,0.2743920087814331,158.70001220703125,-148.5,-27.30000114440918
885774,-0.2075556069612503,9.287365913391113,-3.3854892253875732,-0.36585599184036255,0.6250039935112,-0.426831990480423,165.90000915527344,-150.90000915527344,-29.700000762939453
885794,-0.3355582058429718,9.301721572875977,-3.323282241821289,-0.09908600151538849,0.7621999979019165,-0.5945159792900085,161.10000610351562,-148.5,-28.500001907348633
885814,-0.46714967489242554,9.444677352905273,-3.2066445350646973,-0.1448179930448532,0.6936019659042358,-0.8841519951820374,158.70001220703125,-146.10000610351562,-28.500001907348633
885836,-0.44980350136756897,9.007434844970703,-2.978153944015503,-0.39634400606155396,0.8460419774055481,-1.021347999572754,161.10000610351562,-150.90000915527344,-26.700000762939453
885856,-0.60651695728302,8.823206901550293,-2.9703779220581055,-0.3048799932003021,1.1128119230270386,-0.7850660085678101,158.70001220703125,-146.10000610351562,-27.900001525878906
885899,-0.7919412851333618,9.01222038269043,-3.21980357170105,0.007621999830007553,1.478667974472046,-0.4725639820098877,158.70001220703125,-143.70001220703125,-26.700000762939453
885919,-0.7739970088005066,8.938050270080566,-3.27961802482605,0.07621999830007553,1.417691946029663,-0.5259180068969727,158.70001220703125,-148.5,-27.30000114440918
885941,-0.712986409664154,8.880030632019043,-3.2688512802124023,0.17530599236488342,1.371959924697876,-0.44969800114631653,156.3000030517578,-146.10000610351562,-28.500001907348633
885961,-0.7686136960983276,8.95240592956543,-3.308926820755005,0.18292799592018127,1.4024479389190674,-0.3125019967556,156.3000030517578,-146.10000610351562,-26.700000762939453
885981,-0.7728007435798645,8.984705924987793,-3.3256750106811523,0.12195199728012085,1.3795819282531738,-0.23628199100494385,161.10000610351562,-143.70001220703125,-26.700000762939453
886003,-0.8290261626243591,9.081604957580566,-3.296365976333618,-0.030487999320030212,1.2500079870224,-0.3582339882850647,165.90000915527344,-146.10000610351562,-24.30000114440918
886023,-0.827829897403717,8.96317195892334,-3.1587929725646973,-0.15243999660015106,1.1051899194717407,-0.46494197845458984,163.5,-143.70001220703125,-24.900001525878906
886045,-0.811680018901825,8.850123405456543,-3.072660446166992,-0.1295740008354187,1.1128119230270386,-0.41158798336982727,163.5,-146.10000610351562,-25.500001907348633
886065,-0.8451760411262512,8.813636779785156,-3.064286470413208,-0.13719600439071655,1.1051899194717407,-0.2439039945602417,161.10000610351562,-148.5,-26.100000381469727
886085,-0.7536601424217224,8.81184196472168,-2.968583583831787,0.060975998640060425,0.8765299916267395,0,168.3000030517578,-146.10000610351562,-27.30000114440918
886105,-0.6908551454544067,9.01102352142334,-2.951237440109253,0.25152599811553955,0.7164679765701294,0.060975998640060425,161.10000610351562,-146.10000610351562,-24.900001525878906
886145,-0.699827253818512,8.754420280456543,-2.9793500900268555,0.38109999895095825,0.48018598556518555,-0.06859800219535828,163.5,-143.70001220703125,-26.700000762939453
886165,-0.6436018347740173,9.131848335266113,-3.0684733390808105,0.6326259970664978,0.3048799932003021,0.1295740008354187,158.70001220703125,-153.3000030517578,-25.500001907348633
886185,-0.6292464137077332,9.176709175109863,-3.1635782718658447,0.1600620001554489,0.13719600439071655,-0.05335399881005287,163.5,-146.10000610351562,-26.100000381469727
886207,-0.6872662901878357,8.905152320861816,-3.1312785148620605,0.07621999830007553,0.09908600151538849,-0.060975998640060425,161.10000610351562,-146.10000610351562,-25.500001907348633
886227,-0.7297344207763672,8.939845085144043,-3.282010555267334,0.12195199728012085,0.09146399796009064,0,161.10000610351562,-143.70001220703125,-25.500001907348633
886249,-0.7716044187545776,8.71135425567627,-3.23176646232605,0.015243999660015106,-0.038109999150037766,0.08384199440479279,153.90000915527344,-146.10000610351562,-24.30000114440918
886269,-0.6675275564193726,9.15756893157959,-3.3065342903137207,0.3125019967556,-0.16768398880958557,0.12195199728012085,161.10000610351562,-146.10000610351562,-23.100000381469727
886289,-0.6202742457389832,9.07981014251709,-3.239542245864868,-0.07621999830007553,-0.23628199100494385,-0.2439039945602417,161.10000610351562,-148.5,-24.30000114440918
886312,-0.7195659875869751,8.72331714630127,-3.1964759826660156,-0.26677000522613525,-0.10670799762010574,-0.4878079891204834,163.5,-143.70001220703125,-26.100000381469727
886332,-0.7901468873023987,8.824402809143066,-3.177335500717163,-0.114329993724823,0.038109999150037766,-0.426831990480423,156.3000030517578,-143.70001220703125,-24.900001525878906
886355,-0.8433815836906433,8.954798698425293,-3.276029109954834,-0.06859800219535828,0.10670799762010574,-0.5335400104522705,156.3000030517578,-148.5,-23.700000762939453
886376,-0.9271215796470642,8.983509063720703,-3.2000648975372314,-0.08384199440479279,0.1448179930448532,-0.5868939757347107,161.10000610351562,-148.5,-24.30000114440918
886396,-0.9941136240959167,8.986499786376953,-3.257486581802368,-0.18292799592018127,0.18292799592018127,-0.6021379828453064,158.70001220703125,-143.70001220703125,-26.100000381469727
886418,-0.9229345917701721,8.993678092956543,-3.153409719467163,-0.2134159952402115,0.12195199728012085,-0.5030519962310791,163.5,-141.3000030517578,-24.30000114440918
886438,-1.0593111515045166,8.96616268157959,-3.216214656829834,-0.2591480016708374,0.1295740008354187,-0.46494197845458984,161.10000610351562,-143.70001220703125,-24.30000114440918
886458,-1.0407687425613403,9.020594596862793,-3.239542245864868,-0.09908600151538849,0.015243999660015106,-0.3734779953956604,161.10000610351562,-148.5,-24.30000114440918
886478,-0.9049903154373169,9.128857612609863,-3.1755409240722656,-0.114329993724823,0.060975998640060425,-0.28201398253440857,165.90000915527344,-143.70001220703125,-26.100000381469727
886501,-0.9002051949501038,8.935657501220703,-3.186905860900879,-0.4725639820098877,0.3277460038661957,-0.2591480016708374,163.5,-143.70001220703125,-24.900001525878906
886521,-0.7925394177436829,9.100147247314453,-3.1725502014160156,-0.3048799932003021,0.33536797761917114,-0.15243999660015106,165.90000915527344,-141.3000030517578,-24.900001525878906
886541,-0.6591535806655884,9.129456520080566,-3.0295941829681396,-0.38109999895095825,0.3887220025062561,-0.23628199100494385,163.5,-141.3000030517578,-25.500001907348633
886561,-0.6352278590202332,9.049304962158203,-3.0248091220855713,-0.7774440050125122,0.7621999979019165,-0.3277460038661957,158.70001220703125,-148.5,-27.30000114440918
886625,-0.709995687007904,8.917115211486816,-3.0864176750183105,-0.739333987236023,0.9222619533538818,-0.571649968624115,161.10000610351562,-146.10000610351562,-26.100000381469727
886647,-0.8774757385253906,8.70238208770752,-3.1139323711395264,-0.6097599864006042,0.685979962348938,-0.6936019659042358,163.5,-143.70001220703125,-23.700000762939453
886667,-0.8403908610343933,8.72929859161377,-3.0840251445770264,-0.3201240003108978,0.39634400606155396,-0.5487840175628662,168.3000030517578,-146.10000610351562,-24.900001525878906
886687,-0.8140726089477539,8.954200744628906,-3.099576950073242,-0.1600620001554489,0.3734779953956604,-0.4725639820098877,168.3000030517578,-143.70001220703125,-26.100000381469727
