time,sensor_accX[g],sensor_accY[g],sensor_accZ[g],sensor_gyroX[°/s],sensor_gyroY[°/s],sensor_gyroZ[°/s],sensor_magX[µT],sensor_magY[µT],sensor_magZ[µT]
1259439,-3.800002336502075,9.00623893737793,0.32000648975372314,-0.6097599864006042,-0.015243999660015106,-0.22103799879550934,129.90000915527344,-146.10000610351562,-65.10000610351562
1259461,-3.785048723220825,8.74126148223877,0.32419347763061523,-0.4344539940357208,0.1600620001554489,-0.16768398880958557,132.3000030517578,-143.70001220703125,-64.5
1259481,-3.67199969291687,8.873451232910156,0.3206046223640442,-0.3201240003108978,0.342989981174469,0.060975998640060425,129.90000915527344,-138.90000915527344,-63.30000305175781
1259501,-3.720449209213257,8.86866569519043,0.3104361891746521,-0.20579399168491364,0.510673999786377,0.07621999830007553,137.10000610351562,-141.3000030517578,-63.900001525878906
1259521,-3.71686053276062,8.939247131347656,0.2769401967525482,-0.13719600439071655,0.5945159792900085,0.04573199898004532,129.90000915527344,-141.3000030517578,-64.5
1259541,-3.6911401748657227,8.914124488830566,0.3122306168079376,-0.19054999947547913,0.6326259970664978,0.007621999830007553,139.5,-146.10000610351562,-63.30000305175781
1259564,-3.7282252311706543,8.883021354675293,0.26557546854019165,-0.1600620001554489,0.5868939757347107,-0.015243999660015106,129.90000915527344,-138.90000915527344,-63.900001525878906
1259585,-3.7126734256744385,8.792701721191406,0.27275320887565613,-0.16768398880958557,0.5564059615135193,-0.007621999830007553,134.70001220703125,-143.70001220703125,-64.5
1259605,-3.7449731826782227,8.891993522644043,0.19977974891662598,-0.09146399796009064,0.4878079891204834,0,132.3000030517578,-146.10000610351562,-64.5
1259625,-3.68695330619812,9.080408096313477,0.1752558946609497,-0.13719600439071655,0.3887220025062561,-0.09908600151538849,132.3000030517578,-143.70001220703125,-63.900001525878906
1259645,-3.68097186088562,8.918312072753906,0.18901318311691284,-0.20579399168491364,0.2972579896450043,-0.3277460038661957,134.70001220703125,-141.3000030517578,-64.5
1259710,-3.6672146320343018,8.981715202331543,0.18901318311691284,-0.26677000522613525,0.5868939757347107,-0.5868939757347107,132.3000030517578,-146.10000610351562,-62.70000076293945
1259730,-3.71087908744812,8.978724479675293,0.24464046955108643,-0.2134159952402115,0.7926880121231079,-0.7240899801254272,129.90000915527344,-143.70001220703125,-63.900001525878906
1259750,-3.761122941970825,8.776552200317383,0.3152213394641876,-0.3277460038661957,0.9603719711303711,-0.7088459730148315,134.70001220703125,-141.3000030517578,-65.10000610351562
1259770,-3.833498239517212,8.773561477661133,0.250023752450943,-0.3201240003108978,1.1585439443588257,-0.5487840175628662,132.3000030517578,-143.70001220703125,-63.30000305175781
1259790,-3.9130513668060303,8.85371208190918,0.2572014629840851,-0.342989981174469,1.1280559301376343,-0.4344539940357208,137.10000610351562,-146.10000610351562,-63.30000305175781
1259812,-3.868788719177246,8.886012077331543,0.3355582058429718,-0.39634400606155396,1.067080020904541,-0.4420759975910187,134.70001220703125,-143.70001220703125,-63.900001525878906
1259832,-3.832900047302246,8.67247486114502,0.43664437532424927,-0.457319974899292,1.0747020244598389,-0.3887220025062561,139.5,-136.5,-63.900001525878906
1259852,-3.8831441402435303,8.65572738647461,0.5227769613265991,-0.3734779953956604,1.189031958580017,-0.25152599811553955,134.70001220703125,-138.90000915527344,-63.30000305175781
1259872,-3.9058735370635986,8.689821243286133,0.5233750939369202,-0.22103799879550934,1.2881180047988892,-0.23628199100494385,134.70001220703125,-141.3000030517578,-65.10000610351562
1259892,-3.9028828144073486,8.76399040222168,0.6956402659416199,-0.1295740008354187,1.4405579566955566,-0.36585599184036255,137.10000610351562,-136.5,-63.900001525878906
1259913,-4.083521842956543,8.583352088928223,0.903195858001709,-0.16768398880958557,1.806414008140564,-0.5640279650688171,132.3000030517578,-146.10000610351562,-63.900001525878906
1259933,-4.210328578948975,9.351964950561523,0.8816627264022827,-0.09146399796009064,2.7058098316192627,-0.6631140112876892,141.90000915527344,-146.10000610351562,-63.900001525878906
1259955,-4.322779178619385,9.174317359924316,0.8601295948028564,-0.1600620001554489,2.8734939098358154,-0.7926880121231079,137.10000610351562,-136.5,-63.30000305175781
1259975,-4.619458198547363,8.725709915161133,1.137069821357727,-0.007621999830007553,3.1402640342712402,-0.7088459730148315,144.3000030517578,-143.70001220703125,-63.30000305175781
1259996,-4.630822658538818,9.2760009765625,1.2614835500717163,0.38109999895095825,3.955817937850952,-0.1295740008354187,144.3000030517578,-146.10000610351562,-60.900001525878906
1260016,-4.887426376342773,9.566699028015137,1.094003438949585,0.571649968624115,4.725639820098877,-0.02286599949002266,139.5,-146.10000610351562,-62.70000076293945
1260039,-5.03038215637207,9.22635555267334,0.9259253144264221,1.0975680351257324,5.114361763000488,0.457319974899292,139.5,-146.10000610351562,-61.500003814697266
1260059,-4.73370361328125,9.23233699798584,0.8074930310249329,1.4862899780273438,5.198204040527344,1.2652519941329956,141.90000915527344,-143.70001220703125,-58.500003814697266
1260080,-4.760021686553955,9.30112361907959,0.2709587514400482,1.9054999351501465,5.442107677459717,1.9740979671478271,139.5,-141.3000030517578,-61.500003814697266
1260100,-4.319190502166748,9.555334091186523,-0.21892032027244568,2.042695999145508,4.969543933868408,2.378063917160034,144.3000030517578,-148.5,-59.70000076293945
1260121,-3.5541656017303467,9.00922966003418,-0.07297344505786896,1.882633924484253,4.32167387008667,2.637212038040161,141.90000915527344,-150.90000915527344,-58.500003814697266
1260141,-2.8064868450164795,9.229944229125977,0.02751457691192627,2.14178204536438,4.588443756103516,3.3231918811798096,144.3000030517578,-150.90000915527344,-56.70000076293945
1260161,-2.5235652923583984,10.3616304397583,-0.08254373073577881,2.378063917160034,5.541193962097168,3.2850818634033203,137.10000610351562,-153.3000030517578,-56.70000076293945
1260181,-3.2150185108184814,10.642757415771484,-0.42288708686828613,2.0198299884796143,5.640279769897461,1.9512319564819336,141.90000915527344,-153.3000030517578,-56.10000228881836
1260247,-3.893312692642212,9.503893852233887,0.09749730676412582,1.242385983467102,5.815586090087891,0.2896359860897064,139.5,-158.10000610351562,-54.900001525878906
1260268,-3.953126907348633,9.566699028015137,0.060412440448999405,1.1737879514694214,6.920775890350342,1.067080020904541,139.5,-155.70001220703125,-52.500003814697266
1260289,-4.30244255065918,9.117493629455566,-0.4001576602458954,1.2118979692459106,7.919257640838623,1.6692179441452026,137.10000610351562,-155.70001220703125,-51.900001525878906
1260309,-4.097877502441406,9.112110137939453,-0.4695422351360321,1.189031958580017,8.163162231445312,2.179892063140869,141.90000915527344,-162.90000915527344,-50.10000228881836
1260329,-3.5780911445617676,9.539782524108887,-0.5993392467498779,1.189031958580017,8.833897590637207,2.240867853164673,141.90000915527344,-162.90000915527344,-50.10000228881836
1260349,-3.6229519844055176,9.369909286499023,-0.9905247688293457,1.2118979692459106,9.405548095703125,1.600619912147522,132.3000030517578,-158.10000610351562,-48.900001525878906
1260370,-3.794020891189575,9.442883491516113,-1.5073202848434448,1.6311079263687134,9.512255668640137,1.4481799602508545,144.3000030517578,-160.5,-48.30000305175781
1260432,-3.6797754764556885,9.636083602905273,-1.8853466510772705,1.3490939140319824,8.811031341552734,0.8079319596290588,137.10000610351562,-158.10000610351562,-46.5
1260452,-3.9477436542510986,9.475780487060547,-2.26875638961792,1.196653962135315,9.093046188354492,1.371959924697876,139.5,-158.10000610351562,-45.900001525878906
1260472,-3.847853660583496,8.81303882598877,-2.4553768634796143,0.5792719721794128,8.864385604858398,2.3704419136047363,137.10000610351562,-165.3000030517578,-42.30000305175781
1260493,-3.606802225112915,8.92548942565918,-2.7729907035827637,0.739333987236023,8.948227882385254,2.843005895614624,137.10000610351562,-165.3000030517578,-44.10000228881836
1260513,-3.0475385189056396,8.83875846862793,-2.9667892456054688,0.6097599864006042,8.315601348876953,3.2850818634033203,137.10000610351562,-165.3000030517578,-41.70000076293945
1260534,-2.5355279445648193,8.603090286254883,-2.9817426204681396,0.6783579587936401,8.094563484191895,3.506119966506958,132.3000030517578,-170.10000610351562,-42.30000305175781
1260554,-1.8506543636322021,8.93745231628418,-3.4022371768951416,1.0823240280151367,8.376577377319336,3.559473991394043,127.50000762939453,-167.70001220703125,-41.10000228881836
1260577,-1.5360311269760132,8.64974594116211,-3.3854892253875732,0.914639949798584,8.650969505310059,2.1494040489196777,127.50000762939453,-165.3000030517578,-38.70000076293945
1260598,-1.2872036695480347,8.819618225097656,-3.3005528450012207,0.7850660085678101,9.542743682861328,1.3872039318084717,120.30000305175781,-172.5,-38.10000228881836
1260618,-0.7739970088005066,9.39862060546875,-3.2293739318847656,0.1295740008354187,10.32018756866455,1.0899460315704346,125.10000610351562,-167.70001220703125,-36.900001525878906
1260638,-1.131088376045227,8.263344764709473,-2.6569511890411377,-1.14329993724823,11.219583511352539,-0.09146399796009064,125.10000610351562,-172.5,-37.5
1260660,-1.4804039001464844,7.469609260559082,-3.0026776790618896,-0.9527499675750732,12.400993347167969,-0.08384199440479279,117.9000015258789,-167.70001220703125,-36.900001525878906
1260680,-1.6568560600280762,7.177117347717285,-3.236551523208618,-0.6478700041770935,12.408616065979004,0.3048799932003021,122.70000457763672,-170.10000610351562,-36.900001525878906
1260700,-1.737605333328247,7.2476983070373535,-3.4231722354888916,0.26677000522613525,11.440621376037598,0.8765299916267395,117.9000015258789,-170.10000610351562,-35.10000228881836
1260723,-1.3518030643463135,7.580265998840332,-3.0541179180145264,0.739333987236023,10.388785362243652,1.295740008354187,122.70000457763672,-167.70001220703125,-35.70000076293945
1260743,-0.9994968771934509,7.7991862297058105,-2.7975146770477295,-0.1448179930448532,9.52750015258789,1.8978779315948486,113.10000610351562,-165.3000030517578,-33.900001525878906
1260763,-0.8762794733047485,7.720231533050537,-2.856132745742798,-0.7469559907913208,10.03817367553711,1.7454379796981812,122.70000457763672,-172.5,-34.5
1260785,-0.5646469593048096,7.677762985229492,-3.2981603145599365,-0.8765299916267395,9.306461334228516,2.233245849609375,120.30000305175781,-167.70001220703125,-34.5
1260849,0.029907148331403732,8.131753921508789,-2.5732109546661377,-1.7683039903640747,6.89028787612915,1.4558019638061523,108.30000305175781,-174.90000915527344,-33.900001525878906
1260871,-0.30983805656433105,7.7333903312683105,-3.0152387619018555,-2.179892063140869,7.240900039672852,0.2743920087814331,108.30000305175781,-172.5,-32.70000076293945
1260911,0.11603973805904388,9.02298641204834,-3.6702053546905518,0.1295740008354187,4.939055919647217,0.4725639820098877,103.50000762939453,-172.5,-33.900001525878906
1260931,0.7871561646461487,9.234130859375,-3.3131139278411865,0.10670799762010574,3.6280720233917236,0.17530599236488342,105.9000015258789,-170.10000610351562,-32.70000076293945
1260951,1.5390218496322632,9.341796875,-3.063688278198242,0.228659987449646,3.163130044937134,0.8231759667396545,108.30000305175781,-177.3000030517578,-32.10000228881836
1260971,1.6604448556900024,8.72331714630127,-2.578594446182251,-0.2439039945602417,3.2622158527374268,1.3338500261306763,98.70000457763672,-177.3000030517578,-32.10000228881836
1261014,2.137763023376465,9.739562034606934,-2.2514102458953857,-0.571649968624115,3.346057891845703,2.9725799560546875,98.70000457763672,-170.10000610351562,-33.30000305175781
1261034,2.0761542320251465,9.089380264282227,-1.8578320741653442,-1.2195199728012085,3.1707520484924316,2.042695999145508,91.5,-177.3000030517578,-31.500001907348633
1261054,2.2813172340393066,9.499706268310547,-1.7543532848358154,-0.6631140112876892,3.0183119773864746,2.1036720275878906,89.10000610351562,-174.90000915527344,-32.10000228881836
1261074,2.47990083694458,10.688815116882324,-1.949347972869873,-0.2972579896450043,3.1707520484924316,2.080806016921997,86.70000457763672,-165.3000030517578,-32.10000228881836
1261096,3.7037012577056885,13.463600158691406,-2.610893964767456,0,2.5000159740448,3.650938034057617,81.9000015258789,-172.5,-29.700000762939453
1261116,3.482388496398926,11.467597007751465,-0.9857395887374878,-2.1494040489196777,1.0365920066833496,-1.5091559886932373,84.30000305175781,-177.3000030517578,-30.30000114440918
1261136,1.6718095541000366,8.198745727539062,-0.6364241242408752,-1.5167779922485352,2.538125991821289,-2.530503988265991,86.70000457763672,-170.10000610351562,-31.500001907348633
1261156,1.6921464204788208,10.13553237915039,-1.4905723333358765,-0.6402480006217957,3.0259339809417725,-0.030487999320030212,91.5,-177.3000030517578,-32.10000228881836
1261179,0.6226668357849121,8.702980041503906,-1.3835047483444214,-1.6844619512557983,2.591480016708374,-2.446661949157715,89.10000610351562,-177.3000030517578,-32.70000076293945
1261199,-0.1782466024160385,8.276504516601562,-1.9888253211975098,0.114329993724823,1.6844619512557983,-3.003067970275879,91.5,-165.3000030517578,-30.900001525878906
1261219,0.1339840292930603,8.080911636352539,-1.6670244932174683,1.0442140102386475,0.12195199728012085,-2.7134318351745605,89.10000610351562,-174.90000915527344,-30.30000114440918
1261239,0.29667890071868896,8.50918197631836,-1.6897538900375366,1.425313949584961,-0.2972579896450043,-1.935987949371338,89.10000610351562,-174.90000915527344,-32.10000228881836
1261261,0.43784064054489136,7.654435634613037,-1.496553659439087,0.8765299916267395,-0.8993960022926331,-0.8155539631843567,96.30000305175781,-172.5,-29.700000762939453
1261322,1.1185274124145508,8.750831604003906,-1.8979076147079468,0.7545779943466187,-1.5091559886932373,1.3948259353637695,91.5,-182.10000610351562,-30.900001525878906
1261344,1.4672447443008423,8.981715202331543,-1.84646737575531,0.6250039935112,-1.7911700010299683,1.4024479389190674,91.5,-174.90000915527344,-29.700000762939453
1261364,1.7645217180252075,9.21738338470459,-1.8398877382278442,0.4192099869251251,-1.7149499654769897,1.2500079870224,91.5,-170.10000610351562,-29.100000381469727
1261384,1.940375804901123,9.3477783203125,-1.7567459344863892,0.09146399796009064,-1.4481799602508545,0.8307979702949524,91.5,-170.10000610351562,-29.700000762939453
1261407,1.925422191619873,9.315478324890137,-1.6957353353500366,-0.17530599236488342,-0.914639949798584,0.28201398253440857,91.5,-174.90000915527344,-29.100000381469727
1261427,1.83749520778656,9.19046688079834,-1.6771929264068604,-0.3887220025062561,-0.46494197845458984,-0.4420759975910187,91.5,-172.5,-29.700000762939453
1261447,1.81656014919281,8.028873443603516,-1.2878018617630005,-0.800309956073761,0.36585599184036255,-0.8612859845161438,91.5,-172.5,-30.900001525878906
1261467,1.8973095417022705,8.056985855102539,-1.2794277667999268,-0.6250039935112,0.8689079880714417,-0.6097599864006042,89.10000610351562,-172.5,-31.500001907348633
1261487,2.23884916305542,9.01820182800293,-1.514497995376587,-0.1448179930448532,1.882633924484253,-0.1600620001554489,89.10000610351562,-170.10000610351562,-30.900001525878906
1261507,2.601922035217285,10.080503463745117,-2.000190019607544,-0.114329993724823,2.942091941833496,0.16768398880958557,84.30000305175781,-170.10000610351562,-29.700000762939453
1261530,2.3022522926330566,8.735877990722656,-2.071369171142578,-1.189031958580017,3.60520601272583,-0.8841519951820374,89.10000610351562,-167.70001220703125,-30.900001525878906
1261550,2.089911460876465,8.58694076538086,-2.5702202320098877,-0.2439039945602417,4.992409706115723,0.457319974899292,81.9000015258789,-167.70001220703125,-29.700000762939453
1261570,2.2155215740203857,9.69948673248291,-3.579287528991699,0.4192099869251251,5.998513698577881,1.2881180047988892,89.10000610351562,-174.90000915527344,-29.700000762939453
1261632,1.9660959243774414,10.925679206848145,-5.020812034606934,1.1204339265823364,5.190581798553467,1.8445239067077637,77.10000610351562,-174.90000915527344,-29.100000381469727
1261652,2.3142151832580566,11.024373054504395,-5.347398281097412,1.067080020904541,3.6814258098602295,0.7774440050125122,84.30000305175781,-172.5,-26.100000381469727
1261672,1.8476636409759521,9.73118782043457,-5.115318775177002,0.914639949798584,2.538125991821289,-0.5411620140075684,81.9000015258789,-172.5,-29.100000381469727
1261695,1.2692593336105347,8.168838500976562,-4.827611923217773,1.4558019638061523,1.9436099529266357,-0.853663980960846,81.9000015258789,-174.90000915527344,-27.900001525878906
1261715,1.030002236366272,7.975638389587402,-4.378406524658203,1.4481799602508545,1.14329993724823,-0.19054999947547913,74.70000457763672,-174.90000915527344,-26.700000762939453
1261777,1.3643641471862793,8.223867416381836,-3.758132219314575,-0.5259180068969727,1.9588539600372314,-1.1509219408035278,77.10000610351562,-167.70001220703125,-26.100000381469727
1261806,1.4134118556976318,8.044425010681152,-3.848451852798462,-0.7545779943466187,2.2180018424987793,-0.3201240003108978,84.30000305175781,-172.5,-24.900001525878906
1261846,1.6706132888793945,7.607780456542969,-3.395059585571289,-0.9756159782409668,2.2027578353881836,1.471045970916748,79.5,-174.90000915527344,-25.500001907348633
1261866,1.8201490640640259,7.878140926361084,-3.490164279937744,-0.8231759667396545,2.3551979064941406,2.14178204536438,67.5,-177.3000030517578,-26.100000381469727
1261888,1.9744699001312256,8.222073554992676,-3.615774154663086,-0.49542999267578125,1.8673899173736572,2.0960500240325928,69.9000015258789,-172.5,-25.500001907348633
1261928,2.1832218170166016,8.458937644958496,-3.954921245574951,0.05335399881005287,0.5945159792900085,1.3262280225753784,72.30000305175781,-172.5,-25.500001907348633
1261948,2.3297669887542725,8.412282943725586,-3.8376853466033936,0.07621999830007553,-0.08384199440479279,0.8993960022926331,62.70000076293945,-167.70001220703125,-24.30000114440918
1261968,2.5145931243896484,8.379384994506836,-3.8616111278533936,0.030487999320030212,-0.33536797761917114,0.5411620140075684,65.10000610351562,-170.10000610351562,-24.900001525878906
1261991,2.6096978187561035,8.263943672180176,-3.860414743423462,-0.05335399881005287,-0.5182960033416748,0.08384199440479279,62.70000076293945,-172.5,-24.900001525878906
1262011,2.7436819076538086,8.126370429992676,-3.7222437858581543,-0.228659987449646,-0.510673999786377,-0.09908600151538849,60.30000305175781,-172.5,-26.700000762939453
1262031,2.754448413848877,7.976236343383789,-3.5756986141204834,-0.46494197845458984,-0.3201240003108978,-0.13719600439071655,69.9000015258789,-167.70001220703125,-27.900001525878906
1262054,2.623455047607422,7.571293830871582,-3.386087417602539,-0.8460419774055481,-0.19817200303077698,-0.19054999947547913,69.9000015258789,-172.5,-26.700000762939453
1262074,2.5259578227996826,7.446281909942627,-3.1988685131073,-0.8079319596290588,0.12195199728012085,0.038109999150037766,65.10000610351562,-170.10000610351562,-26.100000381469727
1262094,2.8088793754577637,8.376992225646973,-3.3525912761688232,-0.6173819899559021,0.1600620001554489,0.342989981174469,67.5,-177.3000030517578,-24.900001525878906
1262179,2.999088764190674,8.77296257019043,-2.5702202320098877,-1.4405579566955566,-1.5015339851379395,1.2500079870224,57.900001525878906,-170.10000610351562,-26.700000762939453
1262279,2.8357958793640137,10.292245864868164,-1.5611531734466553,-1.4329359531402588,-2.278977870941162,-1.242385983467102,55.500003814697266,-172.5,-28.500001907348633
1262299,3.1312785148620605,11.133234977722168,-1.3571864366531372,-1.5701320171356201,-1.9512319564819336,-1.1737879514694214,55.500003814697266,-165.3000030517578,-30.900001525878906
1262319,3.3334507942199707,11.162544250488281,-1.0706759691238403,-2.2103798389434814,-1.4405579566955566,-1.3872039318084717,55.500003814697266,-174.90000915527344,-28.500001907348633
1262339,2.729924440383911,9.48415470123291,-0.6705182790756226,-2.7591638565063477,-0.7088459730148315,-1.417691946029663,65.10000610351562,-170.10000610351562,-30.30000114440918
1262361,2.6192681789398193,9.732982635498047,-0.9223364591598511,-1.6920839548110962,0.4039659798145294,-0.19817200303077698,60.30000305175781,-177.3000030517578,-29.700000762939453
1262381,2.1676700115203857,9.179699897766113,-1.0706759691238403,-1.5853760242462158,0.571649968624115,-0.3887220025062561,60.30000305175781,-179.70001220703125,-30.30000114440918
1262405,1.6999223232269287,8.846534729003906,-1.2052581310272217,-0.2743920087814331,0.41158798336982727,-0.3048799932003021,65.10000610351562,-174.90000915527344,-29.100000381469727
1262425,1.6323322057724,8.76698112487793,-1.3344569206237793,0.114329993724823,0.19054999947547913,-0.7012239694595337,60.30000305175781,-170.10000610351562,-31.500001907348633
1262508,1.8638135194778442,8.824402809143066,-2.0139474868774414,1.14329993724823,0.09146399796009064,-0.5259180068969727,67.5,-167.70001220703125,-30.30000114440918
1262528,1.8757764101028442,8.941040992736816,-2.1024725437164307,0.8460419774055481,0.08384199440479279,-0.4344539940357208,67.5,-172.5,-29.700000762939453
1262548,2.110248327255249,9.654027938842773,-2.2813172340393066,0.9070180058479309,0.2439039945602417,-0.1295740008354187,67.5,-174.90000915527344,-28.500001907348633
1262588,2.112640857696533,9.108521461486816,-2.137763023376465,-0.5945159792900085,0.25152599811553955,-0.2896359860897064,62.70000076293945,-172.5,-29.700000762939453
1262608,2.1533145904541016,9.484752655029297,-2.2579896450042725,-0.1448179930448532,0.5868939757347107,0.09146399796009064,67.5,-170.10000610351562,-27.30000114440918
1262631,2.2765321731567383,9.303515434265137,-1.9930124282836914,-0.8612859845161438,0.7850660085678101,0.16768398880958557,57.900001525878906,-177.3000030517578,-30.30000114440918
1262651,2.2047550678253174,8.98530387878418,-1.8321119546890259,-1.2118979692459106,1.2118979692459106,0.22103799879550934,67.5,-177.3000030517578,-29.100000381469727
1262692,2.313018798828125,8.388357162475586,-1.4134118556976318,-1.3567159175872803,1.7149499654769897,0.6554920077323914,62.70000076293945,-170.10000610351562,-30.900001525878906
1262775,2.9673871994018555,9.598400115966797,-1.6789872646331787,-0.07621999830007553,2.3628199100494385,-0.114329993724823,60.30000305175781,-172.5,-29.100000381469727
1262824,2.8890304565429688,8.190969467163086,-1.7005205154418945,0.3734779953956604,2.3475759029388428,0.2439039945602417,55.500003814697266,-174.90000915527344,-29.100000381469727
1262844,2.652764081954956,7.949918270111084,-1.7669143676757812,0.5564059615135193,2.378063917160034,0.7317119836807251,55.500003814697266,-172.5,-29.700000762939453
1262884,2.932694911956787,9.057679176330566,-2.540313243865967,0.967993974685669,2.8658719062805176,1.3033620119094849,53.10000228881836,-172.5,-29.100000381469727
1262904,3.8083763122558594,11.409577369689941,-3.925612211227417,1.5625100135803223,3.8491098880767822,2.03507399559021,55.500003814697266,-179.70001220703125,-27.900001525878906
1262924,3.2186074256896973,9.69529914855957,-3.8167502880096436,-0.3734779953956604,1.8369019031524658,-0.6631140112876892,53.10000228881836,-172.5,-29.100000381469727
1262944,1.940375804901123,6.76140832901001,-3.299356698989868,0.49542999267578125,2.233245849609375,-1.471045970916748,48.30000305175781,-172.5,-27.900001525878906
1262964,2.322589159011841,8.198147773742676,-4.341919898986816,1.9740979671478271,1.8369019031524658,0.9908599853515625,48.30000305175781,-170.10000610351562,-27.900001525878906
1262984,2.8896286487579346,9.387853622436523,-4.0284929275512695,1.4939119815826416,0.7317119836807251,0.26677000522613525,43.5,-174.90000915527344,-26.700000762939453
1263005,2.843571662902832,9.463818550109863,-4.218104362487793,0.8993960022926331,0.9908599853515625,-0.19054999947547913,50.70000076293945,-174.90000915527344,-26.700000762939453
1263025,3.0301923751831055,9.73537540435791,-4.133167743682861,0.4344539940357208,0.44969800114631653,-0.6173819899559021,50.70000076293945,-167.70001220703125,-25.500001907348633
1263045,2.5086116790771484,8.44039535522461,-3.938173294067383,-0.7240899801254272,0.2896359860897064,-1.3948259353637695,55.500003814697266,-172.5,-26.100000381469727
1263065,2.6551566123962402,8.192166328430176,-3.5727078914642334,-0.426831990480423,0.1295740008354187,-0.800309956073761,53.10000228881836,-170.10000610351562,-26.100000381469727
1263085,2.748466968536377,8.665895462036133,-3.49674391746521,-0.4725639820098877,0.6402480006217957,-0.7926880121231079,55.500003814697266,-172.5,-27.30000114440918
1263105,2.718559741973877,8.650343894958496,-3.3011510372161865,-0.8765299916267395,0.8689079880714417,-0.9756159782409668,48.30000305175781,-172.5,-26.700000762939453
1263125,2.512798547744751,8.25915813446045,-3.118119239807129,-1.0823240280151367,1.0747020244598389,-1.2347639799118042,53.10000228881836,-177.3000030517578,-27.900001525878906
1263145,2.5056209564208984,8.30282211303711,-3.011051654815674,-0.800309956073761,1.3262280225753784,-1.1661659479141235,55.500003814697266,-167.70001220703125,-26.100000381469727
1263165,2.4308531284332275,8.487051010131836,-3.075651168823242,-0.5259180068969727,1.4024479389190674,-1.3186060190200806,57.900001525878906,-170.10000610351562,-28.500001907348633
1263185,2.4135069847106934,8.52114486694336,-2.9727704524993896,-0.48018598556518555,1.2728739976882935,-1.4405579566955566,53.10000228881836,-172.5,-27.30000114440918
1263247,2.6192681789398193,8.128763198852539,-2.938676357269287,-0.15243999660015106,0.5030519962310791,-1.3872039318084717,62.70000076293945,-174.90000915527344,-28.500001907348633
1263307,2.868095636367798,7.941544055938721,-2.936283826828003,-0.46494197845458984,0.08384199440479279,0.3125019967556,55.500003814697266,-167.70001220703125,-27.900001525878906
1263349,3.060697555541992,7.982217788696289,-2.9201340675354004,-0.2972579896450043,-0.457319974899292,1.14329993724823,53.10000228881836,-172.5,-27.900001525878906
1263479,3.4566681385040283,9.77006721496582,-1.9200389385223389,-0.739333987236023,-1.242385983467102,1.5472660064697266,48.30000305175781,-174.90000915527344,-29.100000381469727
1263499,3.043351411819458,9.43331241607666,-1.7896437644958496,-1.2881180047988892,-0.8841519951820374,0.4725639820098877,45.900001525878906,-177.3000030517578,-27.30000114440918
1263562,2.7161672115325928,9.309496879577637,-1.2979702949523926,-0.9222619533538818,-0.7469559907913208,-1.478667974472046,43.5,-174.90000915527344,-27.900001525878906
1263606,2.23884916305542,8.700587272644043,-1.0497409105300903,-0.7317119836807251,-0.39634400606155396,-1.7149499654769897,48.30000305175781,-170.10000610351562,-29.100000381469727
1263628,2.089313507080078,8.680849075317383,-1.1550140380859375,-0.6783579587936401,-0.09146399796009064,-1.5167779922485352,48.30000305175781,-177.3000030517578,-27.900001525878906
1263668,1.9942086935043335,8.96137809753418,-1.3918787240982056,-0.17530599236488342,-0.1600620001554489,-1.067080020904541,53.10000228881836,-172.5,-26.700000762939453
1263690,1.8650097846984863,8.839356422424316,-1.4606651067733765,-0.2439039945602417,-0.41158798336982727,-1.242385983467102,60.30000305175781,-172.5,-27.30000114440918
1263710,1.7938307523727417,8.638978958129883,-1.4193933010101318,-0.09146399796009064,-0.7317119836807251,-1.371959924697876,55.500003814697266,-174.90000915527344,-28.500001907348633
1263730,2.0277047157287598,9.07801628112793,-1.4134118556976318,0.33536797761917114,-0.9451279640197754,-1.5396440029144287,55.500003814697266,-179.70001220703125,-27.30000114440918
1263773,2.1329777240753174,8.510377883911133,-1.2136321067810059,-0.18292799592018127,-0.5259180068969727,-2.225623846054077,55.500003814697266,-172.5,-28.500001907348633
1263833,2.6192681789398193,8.494826316833496,-1.8147658109664917,-2.233245849609375,0.04573199898004532,-6.189064025878906,60.30000305175781,-174.90000915527344,-27.900001525878906
1263873,2.7915332317352295,9.77006721496582,-2.6982228755950928,1.0747020244598389,0.6250039935112,-0.2134159952402115,72.30000305175781,-167.70001220703125,-27.900001525878906
1263904,1.7220536470413208,8.286672592163086,-2.843571662902832,0.10670799762010574,0.44969800114631653,-2.987823963165283,69.9000015258789,-172.5,-26.700000762939453
1263924,1.7890455722808838,8.559426307678223,-2.926713466644287,0.7774440050125122,-0.09908600151538849,-3.3384358882904053,79.5,-170.10000610351562,-28.500001907348633
1263965,1.5073202848434448,8.496621131896973,-3.3705356121063232,0.33536797761917114,-0.7545779943466187,-5.297289848327637,79.5,-167.70001220703125,-27.30000114440918
1263985,1.332662582397461,8.143118858337402,-3.470425605773926,0.8384199738502502,-1.2271419763565063,-5.25155782699585,89.10000610351562,-174.90000915527344,-28.500001907348633
1264005,1.2860074043273926,8.525331497192383,-3.6223537921905518,0.9375059604644775,-1.577754020690918,-4.626554012298584,93.9000015258789,-165.3000030517578,-26.100000381469727
1264025,1.3685511350631714,9.03614616394043,-3.568521022796631,0.6173819899559021,-2.088428020477295,-3.902463912963867,93.9000015258789,-167.70001220703125,-24.900001525878906
1264046,1.2351652383804321,9.067249298095703,-3.4058260917663574,-0.33536797761917114,-2.5152599811553955,-4.169233798980713,103.50000762939453,-165.3000030517578,-26.100000381469727
1264066,1.1454437971115112,9.075623512268066,-3.3220860958099365,-0.6631140112876892,-2.637212038040161,-4.275941848754883,105.9000015258789,-162.90000915527344,-26.100000381469727
1264086,0.9791600704193115,9.037342071533203,-3.24372935295105,-0.9298839569091797,-2.75154185295105,-4.8018598556518555,110.70000457763672,-165.3000030517578,-27.30000114440918
1264107,0.9869359135627747,9.14560604095459,-3.138456106185913,-0.800309956073761,-2.995445966720581,-5.312533855438232,113.10000610351562,-162.90000915527344,-27.900001525878906
1264127,1.028207778930664,9.09177303314209,-2.896806478500366,-0.8993960022926331,-3.0869100093841553,-5.823207855224609,125.10000610351562,-162.90000915527344,-26.100000381469727
1264147,1.0323947668075562,8.988892555236816,-2.7460744380950928,-1.2118979692459106,-2.7210538387298584,-5.807963848114014,122.70000457763672,-158.10000610351562,-29.100000381469727
1264168,0.8577370047569275,9.076221466064453,-2.7789721488952637,-1.5167779922485352,-2.1722700595855713,-5.472595691680908,129.90000915527344,-155.70001220703125,-28.500001907348633
1264209,0.14175988733768463,9.065454483032227,-2.647380828857422,-1.753059983253479,-1.4862899780273438,-5.548815727233887,144.3000030517578,-155.70001220703125,-27.30000114440918
1264233,-0.3235953450202942,9.145008087158203,-2.6096978187561035,-1.6234859228134155,-1.1661659479141235,-5.754610061645508,144.3000030517578,-148.5,-30.30000114440918
1264254,-0.715977132320404,9.203027725219727,-2.6031181812286377,-1.699705958366394,-0.914639949798584,-5.907049655914307,151.5,-160.5,-29.100000381469727
1264274,-1.0634982585906982,9.238916397094727,-2.6952321529388428,-1.6920839548110962,-0.7240899801254272,-5.998513698577881,151.5,-150.90000915527344,-29.100000381469727
1264294,-1.342831015586853,8.96018123626709,-2.554668664932251,-1.699705958366394,-0.7850660085678101,-5.929915904998779,151.5,-150.90000915527344,-30.30000114440918
1264314,-1.3685511350631714,9.057679176330566,-2.2244937419891357,-1.3872039318084717,-0.7012239694595337,-5.182960033416748,163.5,-148.5,-30.30000114440918
1264334,-1.424776554107666,9.204822540283203,-2.033087968826294,-1.5167779922485352,-0.20579399168491364,-4.329296112060547,163.5,-143.70001220703125,-32.10000228881836
1264354,-1.5761067867279053,9.072632789611816,-1.9020946025848389,-1.8902559280395508,0.3887220025062561,-3.6356940269470215,168.3000030517578,-146.10000610351562,-29.100000381469727
1264374,-1.8428784608840942,8.933265686035156,-2.0707709789276123,-1.8369019031524658,0.9375059604644775,-3.1707520484924316,173.10000610351562,-143.70001220703125,-31.500001907348633
1264397,-1.918244481086731,9.244897842407227,-2.2723450660705566,-1.1661659479141235,0.967993974685669,-2.39330792427063,170.70001220703125,-146.10000610351562,-33.30000305175781
1264418,-1.6072101593017578,8.894386291503906,-2.1096503734588623,-1.3262280225753784,0.9298839569091797,-2.0960500240325928,177.90000915527344,-136.5,-31.500001907348633
1264438,-1.7250443696975708,8.909339904785156,-2.2244937419891357,-0.7317119836807251,1.242385983467102,-1.5320219993591309,177.90000915527344,-138.90000915527344,-29.100000381469727
1264462,-1.6873613595962524,8.96735954284668,-2.220306634902954,-0.4420759975910187,1.3490939140319824,-1.0442140102386475,177.90000915527344,-138.90000915527344,-32.10000228881836
1264482,-1.8560376167297363,9.140222549438477,-2.43204927444458,-0.3125019967556,1.471045970916748,-0.6936019659042358,189.90000915527344,-141.3000030517578,-31.500001907348633
1264502,-1.8745800256729126,9.104333877563477,-2.4105162620544434,-0.3277460038661957,1.2804960012435913,-0.6326259970664978,185.10000610351562,-143.70001220703125,-30.30000114440918
1264522,-2.059406280517578,9.135437965393066,-2.3237855434417725,-0.342989981174469,0.967993974685669,-0.4878079891204834,175.5,-146.10000610351562,-30.900001525878906
1264542,-1.8219435214996338,9.052295684814453,-2.333355665206909,-0.342989981174469,0.49542999267578125,-0.23628199100494385,185.10000610351562,-136.5,-29.100000381469727
1264562,-1.499544382095337,9.141419410705566,-2.2221012115478516,-0.1600620001554489,0.07621999830007553,0.02286599949002266,180.3000030517578,-143.70001220703125,-32.10000228881836
1264624,-1.3075405359268188,9.022388458251953,-2.25380277633667,0.10670799762010574,-0.2439039945602417,-0.015243999660015106,177.90000915527344,-141.3000030517578,-32.10000228881836
1264685,-1.4953573942184448,9.00623893737793,-2.4099180698394775,0.44969800114631653,-0.1600620001554489,-0.4878079891204834,182.70001220703125,-141.3000030517578,-29.700000762939453
1264705,-1.5192831754684448,9.214990615844727,-2.417693853378296,0.6783579587936401,-0.114329993724823,-0.510673999786377,185.10000610351562,-141.3000030517578,-30.30000114440918
1264745,-1.496553659439087,9.116296768188477,-2.4577693939208984,0.4420759975910187,0.06859800219535828,-0.510673999786377,182.70001220703125,-138.90000915527344,-30.30000114440918
1264785,-1.546797752380371,9.28018856048584,-2.501433849334717,0.05335399881005287,0.6250039935112,0.13719600439071655,187.5,-136.5,-27.30000114440918
1264825,-1.4020471572875977,9.20242977142334,-2.381207227706909,-0.1448179930448532,0.7850660085678101,0.4878079891204834,177.90000915527344,-141.3000030517578,-30.30000114440918
1264885,-1.3619714975357056,9.10194206237793,-2.3806090354919434,0.15243999660015106,0.739333987236023,0.5564059615135193,177.90000915527344,-146.10000610351562,-31.500001907348633
1264981,-1.3858972787857056,9.106128692626953,-2.7281301021575928,0.4725639820098877,-0.007621999830007553,-0.2591480016708374,177.90000915527344,-138.90000915527344,-30.30000114440918
1265001,-1.4008508920669556,9.26822566986084,-2.730522632598877,0.44969800114631653,-0.16768398880958557,-0.6173819899559021,175.5,-141.3000030517578,-28.500001907348633
1265043,-1.2979702949523926,9.18448543548584,-2.518181800842285,-0.18292799592018127,-0.19817200303077698,-1.0442140102386475,177.90000915527344,-138.90000915527344,-27.900001525878906
1265063,-1.4014489650726318,9.12467098236084,-2.4523861408233643,-0.3582339882850647,0.08384199440479279,-0.739333987236023,182.70001220703125,-143.70001220703125,-28.500001907348633
1265083,-1.4546836614608765,9.155774116516113,-2.3656554222106934,-0.3734779953956604,0.3887220025062561,-0.342989981174469,180.3000030517578,-141.3000030517578,-28.500001907348633
1265104,-1.5061240196228027,9.12467098236084,-2.4063291549682617,-0.4039659798145294,0.6783579587936401,-0.12195199728012085,177.90000915527344,-143.70001220703125,-30.30000114440918
1265165,-1.535433053970337,9.006836891174316,-2.533733606338501,0.20579399168491364,0.6631140112876892,0.2134159952402115,175.5,-134.10000610351562,-29.100000381469727
1265187,-1.5755085945129395,9.03614616394043,-2.572014808654785,0.3734779953956604,0.41158798336982727,0.3125019967556,170.70001220703125,-141.3000030517578,-27.900001525878906
1265207,-1.5300496816635132,9.019397735595703,-2.6061089038848877,0.48018598556518555,0.10670799762010574,0.4344539940357208,173.10000610351562,-138.90000915527344,-27.900001525878906
1265227,-1.3978601694107056,9.06186580657959,-2.631829023361206,0.5868939757347107,-0.25152599811553955,0.510673999786377,173.10000610351562,-141.3000030517578,-28.500001907348633
1265247,-1.2943813800811768,9.10971736907959,-2.6862599849700928,0.7240899801254272,-0.3277460038661957,0.5259180068969727,170.70001220703125,-143.70001220703125,-27.900001525878906
1265267,-1.2985683679580688,9.014613151550293,-2.6731009483337402,0.510673999786377,-0.3048799932003021,0.6326259970664978,173.10000610351562,-141.3000030517578,-29.100000381469727
1265287,-1.226791262626648,9.3358154296875,-2.765813112258911,0.5335400104522705,-0.19817200303077698,0.6097599864006042,175.5,-148.5,-28.500001907348633
1265307,-1.2842129468917847,9.334619522094727,-2.870488166809082,0.04573199898004532,-0.26677000522613525,0.44969800114631653,168.3000030517578,-141.3000030517578,-26.700000762939453
1265327,-1.1592010259628296,8.932068824768066,-2.808281183242798,-0.4344539940357208,-0.23628199100494385,0.35061198472976685,173.10000610351562,-141.3000030517578,-28.500001907348633
1265349,-1.0910128355026245,9.093567848205566,-2.828019857406616,-0.08384199440479279,-0.426831990480423,0.2972579896450043,170.70001220703125,-138.90000915527344,-27.30000114440918
1265369,-1.0389742851257324,9.116296768188477,-2.7562427520751953,-0.19054999947547913,-0.28201398253440857,0.15243999660015106,170.70001220703125,-143.70001220703125,-28.500001907348633
1265389,-1.0892183780670166,9.127063751220703,-2.783757448196411,-0.3125019967556,-0.13719600439071655,-0.09146399796009064,177.90000915527344,-143.70001220703125,-27.900001525878906
1265409,-1.0317965745925903,9.018799781799316,-2.7532520294189453,-0.3734779953956604,0,-0.2591480016708374,175.5,-141.3000030517578,-29.700000762939453
1265449,-1.0389742851257324,8.995471954345703,-2.6611380577087402,-0.114329993724823,0.3201240003108978,-0.4039659798145294,170.70001220703125,-141.3000030517578,-27.30000114440918
1265512,-1.2525113821029663,8.978724479675293,-2.7042043209075928,0.10670799762010574,0.685979962348938,-0.6021379828453064,173.10000610351562,-143.70001220703125,-27.900001525878906
1265532,-1.3607752323150635,8.96616268157959,-2.7191579341888428,0.228659987449646,0.7926880121231079,-0.5335400104522705,182.70001220703125,-141.3000030517578,-27.900001525878906
1265552,-1.399654507637024,9.00205135345459,-2.841179132461548,0.2972579896450043,0.853663980960846,-0.46494197845458984,175.5,-136.5,-27.900001525878906
1265572,-1.4391319751739502,9.012818336486816,-2.871086359024048,0.3887220025062561,0.7545779943466187,-0.38109999895095825,168.3000030517578,-141.3000030517578,-29.700000762939453
1265592,-1.455880045890808,8.863282203674316,-2.9470503330230713,0.3887220025062561,0.5564059615135193,-0.2743920087814331,173.10000610351562,-146.10000610351562,-27.900001525878906
1265612,-1.409822940826416,8.868067741394043,-2.9817426204681396,0.6173819899559021,0.25152599811553955,0.05335399881005287,177.90000915527344,-146.10000610351562,-27.900001525878906
1265633,-1.3494105339050293,9.030762672424316,-3.034977436065674,0.6554920077323914,0.15243999660015106,0.35061198472976685,173.10000610351562,-138.90000915527344,-26.100000381469727
1265653,-1.2578946352005005,9.085193634033203,-3.1187174320220947,0.5335400104522705,-0.13719600439071655,0.4344539940357208,173.10000610351562,-146.10000610351562,-25.500001907348633
1265677,-1.0611056089401245,9.078614234924316,-2.8178515434265137,0.41158798336982727,-0.18292799592018127,0.6707359552383423,173.10000610351562,-143.70001220703125,-26.100000381469727
1265697,-0.9731786251068115,9.186279296875,-2.829216241836548,0.35061198472976685,0.060975998640060425,0.8841519951820374,173.10000610351562,-146.10000610351562,-28.500001907348633
1265717,-1.205856204032898,8.95539665222168,-2.863908529281616,-0.38109999895095825,0.6707359552383423,1.021347999572754,158.70001220703125,-143.70001220703125,-27.30000114440918
1265737,-1.22499680519104,9.00504207611084,-3.027799606323242,-0.20579399168491364,0.8155539631843567,0.9298839569091797,173.10000610351562,-143.70001220703125,-26.100000381469727
1265757,-1.2961758375167847,9.031360626220703,-3.150418996810913,-0.342989981174469,0.5792719721794128,0.7240899801254272,170.70001220703125,-141.3000030517578,-26.700000762939453
1265817,-1.0557223558425903,9.060669898986816,-3.0086591243743896,0.4420759975910187,0.5868939757347107,1.14329993724823,168.3000030517578,-146.10000610351562,-25.500001907348633
1265837,-1.0317965745925903,8.97035026550293,-3.106156349182129,0.06859800219535828,0.6936019659042358,1.1737879514694214,161.10000610351562,-148.5,-24.900001525878906
1265858,-0.9965062141418457,8.87165641784668,-3.165970802307129,0.1295740008354187,0.5640279650688171,1.3490939140319824,165.90000915527344,-150.90000915527344,-25.500001907348633
1265878,-0.918149471282959,8.99606990814209,-3.1701576709747314,0.22103799879550934,0.4192099869251251,1.6082419157028198,168.3000030517578,-146.10000610351562,-24.30000114440918
1265898,-0.8559426069259644,9.256860733032227,-3.1617836952209473,-0.09908600151538849,0.342989981174469,1.5929979085922241,163.5,-141.3000030517578,-25.500001907348633
1265918,-0.8338112831115723,9.143811225891113,-3.105558395385742,-0.4725639820098877,0.3048799932003021,1.1814099550247192,161.10000610351562,-153.3000030517578,-26.700000762939453
1265938,-0.9008033275604248,9.061267852783203,-3.120511770248413,-0.6326259970664978,0.3048799932003021,0.8384199738502502,156.3000030517578,-150.90000915527344,-24.30000114440918
1265958,-0.8942237496376038,9.073230743408203,-3.0511271953582764,-0.6936019659042358,0.2591480016708374,0.571649968624115,161.10000610351562,-148.5,-26.700000762939453
1265998,-0.8314187526702881,8.729896545410156,-2.957218885421753,-0.739333987236023,0.4039659798145294,0.5335400104522705,151.5,-146.10000610351562,-26.700000762939453
1266018,-0.8786720037460327,8.865077018737793,-2.9434616565704346,-0.4878079891204834,0.6326259970664978,0.800309956073761,158.70001220703125,-143.70001220703125,-26.100000381469727
1266038,-0.8547462821006775,9.078614234924316,-3.022416353225708,-0.4192099869251251,0.7164679765701294,0.7850660085678101,158.70001220703125,-146.10000610351562,-25.500001907348633
1266058,-0.7285381555557251,9.01102352142334,-3.014042377471924,-0.5182960033416748,0.6707359552383423,0.7164679765701294,156.3000030517578,-153.3000030517578,-27.30000114440918
1266079,-0.7046124339103699,8.958985328674316,-3.0128462314605713,-0.4725639820098877,0.7164679765701294,0.7088459730148315,149.10000610351562,-150.90000915527344,-26.700000762939453
1266099,-0.7512675523757935,9.03794002532959,-2.884843587875366,-0.35061198472976685,0.7164679765701294,0.6936019659042358,153.90000915527344,-153.3000030517578,-25.500001907348633
1266119,-0.6723126769065857,9.240711212158203,-2.814262628555298,-0.39634400606155396,0.853663980960846,0.41158798336982727,156.3000030517578,-153.3000030517578,-25.500001907348633
1266139,-0.6047225594520569,9.129456520080566,-2.778374195098877,-0.6021379828453064,1.0061039924621582,-0.07621999830007553,151.5,-141.3000030517578,-26.100000381469727
1266159,-0.2739494740962982,9.026576042175293,-2.932694911956787,-0.5335400104522705,1.1509219408035278,0.02286599949002266,153.90000915527344,-150.90000915527344,-26.700000762939453
1266182,-0.022729432210326195,9.099549293518066,-2.8962082862854004,-0.5564059615135193,1.2500079870224,0.38109999895095825,153.90000915527344,-150.90000915527344,-27.30000114440918
1266203,-0.08912330120801926,9.038537979125977,-2.9817426204681396,-0.8231759667396545,1.1356779336929321,0.6936019659042358,151.5,-153.3000030517578,-26.100000381469727
1266223,-0.14774131774902344,8.909339904785156,-2.978153944015503,-0.49542999267578125,0.8689079880714417,1.0289700031280518,146.70001220703125,-148.5,-26.100000381469727
1266245,-0.3343619108200073,8.99606990814209,-3.1851112842559814,-0.35061198472976685,0.6250039935112,1.2118979692459106,144.3000030517578,-146.10000610351562,-26.100000381469727
1266265,-0.37862449884414673,8.957191467285156,-3.2096352577209473,-0.2743920087814331,0.07621999830007553,1.2804960012435913,146.70001220703125,-150.90000915527344,-25.500001907348633
1266285,-0.36307278275489807,9.162354469299316,-3.165970802307129,-0.15243999660015106,-0.20579399168491364,1.4481799602508545,146.70001220703125,-148.5,-27.30000114440918
1266305,-0.2972770631313324,9.219776153564453,-3.0840251445770264,-0.426831990480423,-0.3048799932003021,1.3033620119094849,139.5,-158.10000610351562,-27.900001525878906
1266326,-0.20037789642810822,9.04511833190918,-2.9937055110931396,-0.7164679765701294,-0.2439039945602417,1.295740008354187,141.90000915527344,-148.5,-26.100000381469727
1266390,-0.03768300637602806,9.040332794189453,-2.9255173206329346,-0.7850660085678101,0.4039659798145294,2.027451992034912,139.5,-158.10000610351562,-26.700000762939453
1266440,-0.07596416026353836,9.185681343078613,-2.8513474464416504,-0.8231759667396545,0.5868939757347107,1.806414008140564,132.3000030517578,-160.5,-27.30000114440918
1266480,0.0705808699131012,8.984705924987793,-2.7287282943725586,-0.6554920077323914,0.7926880121231079,1.9588539600372314,125.10000610351562,-160.5,-27.30000114440918
1266504,0.12860073149204254,9.115100860595703,-2.7077932357788086,-0.6097599864006042,0.9375059604644775,2.073184013366699,125.10000610351562,-160.5,-26.100000381469727
1266546,0.4617663621902466,9.02418327331543,-2.652764081954956,-0.5564059615135193,1.3186060190200806,2.278977870941162,117.9000015258789,-160.5,-28.500001907348633
1266626,0.9313086271286011,9.201831817626953,-2.753850221633911,-0.7926880121231079,1.3262280225753784,2.896359920501709,108.30000305175781,-170.10000610351562,-29.100000381469727
1266744,1.022226333618164,8.92249870300293,-2.7083914279937744,-0.5868939757347107,1.7301939725875854,1.9054999351501465,98.70000457763672,-170.10000610351562,-27.30000114440918
1267081,1.943366527557373,8.82201099395752,-2.6425955295562744,-0.5868939757347107,0.4039659798145294,0.8612859845161438,69.9000015258789,-170.10000610351562,-29.700000762939453
1267101,2.1150336265563965,9.01222038269043,-2.7143728733062744,-0.2972579896450043,0.342989981174469,0.853663980960846,69.9000015258789,-170.10000610351562,-27.30000114440918
1267141,2.0528266429901123,8.92848014831543,-2.685662031173706,-0.13719600439071655,0.22103799879550934,0.49542999267578125,65.10000610351562,-177.3000030517578,-27.900001525878906
1267161,2.077948570251465,8.825599670410156,-2.665325164794922,-0.2439039945602417,0.10670799762010574,0.426831990480423,67.5,-170.10000610351562,-29.100000381469727
1267202,2.0468451976776123,9.00623893737793,-2.6880545616149902,-0.20579399168491364,0.007621999830007553,0.5182960033416748,62.70000076293945,-172.5,-27.30000114440918
1267223,1.9672921895980835,9.04511833190918,-2.6940360069274902,-0.4192099869251251,-0.05335399881005287,0.3201240003108978,69.9000015258789,-172.5,-27.900001525878906
1267243,1.9200389385223389,8.99128532409668,-2.723942995071411,-0.5945159792900085,-0.15243999660015106,0.2439039945602417,65.10000610351562,-177.3000030517578,-28.500001907348633
1267263,1.9032909870147705,8.96137809753418,-2.7281301021575928,-0.6173819899559021,-0.2743920087814331,0.19817200303077698,62.70000076293945,-179.70001220703125,-29.100000381469727
1267283,1.946357250213623,8.828590393066406,-2.706596851348877,-0.6783579587936401,-0.4192099869251251,0.23628199100494385,57.900001525878906,-172.5,-28.500001907348633
1267327,1.9798532724380493,8.890198707580566,-2.611492156982422,-0.6021379828453064,-0.6478700041770935,0.7088459730148315,60.30000305175781,-174.90000915527344,-26.700000762939453
1267347,2.0163400173187256,8.950611114501953,-2.6306328773498535,-0.6478700041770935,-0.8231759667396545,0.8384199738502502,60.30000305175781,-172.5,-28.500001907348633
1267367,2.0695745944976807,8.984705924987793,-2.583977699279785,-0.7545779943466187,-0.9527499675750732,0.8689079880714417,65.10000610351562,-167.70001220703125,-27.30000114440918
1267389,2.1539127826690674,8.88481616973877,-2.548089027404785,-0.9375059604644775,-1.1204339265823364,0.8079319596290588,62.70000076293945,-167.70001220703125,-27.900001525878906
1267409,2.190399646759033,8.878235816955566,-2.5618462562561035,-0.8689079880714417,-1.1356779336929321,0.8079319596290588,62.70000076293945,-174.90000915527344,-29.700000762939453
1267450,2.220306634902954,8.851319313049316,-2.551079750061035,-0.8155539631843567,-1.1356779336929321,0.5792719721794128,55.500003814697266,-167.70001220703125,-29.100000381469727
1267470,2.3237855434417725,9.07083797454834,-2.6001274585723877,-0.685979962348938,-1.1737879514694214,0.426831990480423,57.900001525878906,-177.3000030517578,-28.500001907348633
1267491,2.2783265113830566,8.77116870880127,-2.564239025115967,-0.9984819889068604,-1.1814099550247192,0.16768398880958557,60.30000305175781,-172.5,-29.700000762939453
1267511,2.2765321731567383,8.702980041503906,-2.527752161026001,-0.6783579587936401,-1.067080020904541,0.23628199100494385,57.900001525878906,-170.10000610351562,-29.100000381469727
1267531,2.372235059738159,8.81602954864502,-2.506817102432251,-0.426831990480423,-0.8384199738502502,0.2743920087814331,53.10000228881836,-170.10000610351562,-29.100000381469727
1267551,2.3112244606018066,8.939845085144043,-2.546294689178467,-0.3582339882850647,-0.4725639820098877,0.18292799592018127,55.500003814697266,-174.90000915527344,-29.100000381469727
1267573,2.4182920455932617,8.957789421081543,-2.542705774307251,-0.39634400606155396,-0.3201240003108978,0.114329993724823,55.500003814697266,-179.70001220703125,-30.900001525878906
1267593,2.4733211994171143,8.664100646972656,-2.495452404022217,-0.5487840175628662,0.05335399881005287,0.3734779953956604,53.10000228881836,-167.70001220703125,-29.700000762939453
1267613,2.420684576034546,8.54806137084961,-2.4362363815307617,-0.571649968624115,0.18292799592018127,0.5945159792900085,62.70000076293945,-172.5,-28.500001907348633
1267676,2.2974672317504883,8.88182544708252,-2.5732109546661377,-0.4725639820098877,0.2972579896450043,0.5945159792900085,48.30000305175781,-172.5,-30.900001525878906
1267696,2.3351502418518066,8.862086296081543,-2.6162774562835693,-0.2591480016708374,0.02286599949002266,0.28201398253440857,50.70000076293945,-174.90000915527344,-28.500001907348633
1267716,2.4045348167419434,8.942835807800293,-2.6701102256774902,-0.1295740008354187,-0.17530599236488342,0,48.30000305175781,-170.10000610351562,-29.100000381469727
1267740,2.4691340923309326,8.813636779785156,-2.6120903491973877,-0.114329993724823,-0.457319974899292,-0.2134159952402115,55.500003814697266,-170.10000610351562,-29.100000381469727
1267760,2.390777349472046,8.727503776550293,-2.6001274585723877,-0.18292799592018127,-0.4344539940357208,-0.1600620001554489,50.70000076293945,-177.3000030517578,-29.100000381469727
1267820,2.3094301223754883,9.06904411315918,-2.625847578048706,-0.4878079891204834,-0.2972579896450043,-0.8155539631843567,55.500003814697266,-174.90000915527344,-29.700000762939453
1267885,2.2872986793518066,8.807655334472656,-2.5235652923583984,-0.7317119836807251,0.19817200303077698,-0.7621999979019165,48.30000305175781,-172.5,-32.10000228881836
1267923,2.3321595191955566,8.83098316192627,-2.4697322845458984,-1.14329993724823,0.5335400104522705,-0.4192099869251251,57.900001525878906,-174.90000915527344,-29.700000762939453
1267943,2.3237855434417725,8.77296257019043,-2.3082337379455566,-0.914639949798584,0.6021379828453064,-0.19054999947547913,50.70000076293945,-174.90000915527344,-30.30000114440918
1267983,2.2364566326141357,8.763392448425293,-2.363861083984375,-0.5411620140075684,0.7545779943466187,-0.19817200303077698,57.900001525878906,-177.3000030517578,-29.100000381469727
1268003,2.2729432582855225,8.90455436706543,-2.4123106002807617,-0.19054999947547913,0.6554920077323914,-0.2972579896450043,57.900001525878906,-177.3000030517578,-29.700000762939453
1268023,2.3028504848480225,8.96616268157959,-2.378216505050659,-0.15243999660015106,0.510673999786377,-0.4039659798145294,50.70000076293945,-170.10000610351562,-30.900001525878906
1268043,2.292083978652954,9.01222038269043,-2.3919737339019775,-0.19054999947547913,0.4878079891204834,-0.426831990480423,55.500003814697266,-172.5,-30.30000114440918
1268106,2.0127511024475098,8.88182544708252,-2.512798547744751,-0.426831990480423,0.038109999150037766,-0.7088459730148315,50.70000076293945,-179.70001220703125,-30.30000114440918
1268161,2.277728319168091,8.917115211486816,-2.3734312057495117,-0.4192099869251251,-0.09146399796009064,-0.36585599184036255,55.500003814697266,-174.90000915527344,-29.700000762939453
1268181,2.292681932449341,8.878235816955566,-2.3441224098205566,-0.4878079891204834,0.09908600151538849,-0.28201398253440857,55.500003814697266,-170.10000610351562,-29.100000381469727
1268221,2.387188673019409,8.87584400177002,-2.363262891769409,-0.3201240003108978,0.48018598556518555,-0.25152599811553955,50.70000076293945,-172.5,-28.500001907348633
1268264,2.515789270401001,8.858497619628906,-2.387188673019409,-0.038109999150037766,0.6783579587936401,-0.3582339882850647,55.500003814697266,-172.5,-32.10000228881836
1268284,2.551079750061035,8.836365699768066,-2.4631526470184326,0.06859800219535828,0.6326259970664978,-0.4039659798145294,60.30000305175781,-172.5,-29.100000381469727
1268306,2.6186699867248535,9.07981014251709,-2.515191078186035,0.22103799879550934,0.4878079891204834,-0.2896359860897064,60.30000305175781,-179.70001220703125,-29.700000762939453
1268326,2.5624444484710693,9.21439266204834,-2.5558648109436035,0.1295740008354187,0.3201240003108978,-0.4039659798145294,50.70000076293945,-172.5,-29.100000381469727
1268392,2.20894193649292,8.799281120300293,-2.48588228225708,-0.4725639820098877,-0.19817200303077698,-0.36585599184036255,53.10000228881836,-172.5,-28.500001907348633
1268412,2.0289008617401123,8.728700637817383,-2.4374325275421143,-0.36585599184036255,-0.07621999830007553,0,53.10000228881836,-174.90000915527344,-27.900001525878906
1268432,1.921235203742981,8.83098316192627,-2.5409114360809326,-0.28201398253440857,-0.07621999830007553,0.1295740008354187,55.500003814697266,-172.5,-29.700000762939453
1268452,1.9080760478973389,8.661109924316406,-2.3686461448669434,-0.48018598556518555,-0.10670799762010574,0.15243999660015106,57.900001525878906,-174.90000915527344,-31.500001907348633
1268476,1.9499460458755493,9.070240020751953,-2.4009459018707275,-0.41158798336982727,0.1295740008354187,-0.114329993724823,55.500003814697266,-177.3000030517578,-31.500001907348633
1268496,1.9032909870147705,9.113306045532227,-2.3351502418518066,-0.5792719721794128,0.2972579896450043,-0.4725639820098877,55.500003814697266,-174.90000915527344,-29.100000381469727
1268516,1.7842605113983154,8.85371208190918,-2.295672655105591,-0.7621999979019165,0.4725639820098877,-0.8993960022926331,53.10000228881836,-174.90000915527344,-29.700000762939453
1268538,1.7764846086502075,8.837562561035156,-2.277130365371704,-0.5335400104522705,0.7088459730148315,-1.1356779336929321,57.900001525878906,-174.90000915527344,-30.30000114440918
1268558,1.9110667705535889,8.848328590393066,-2.3201966285705566,-0.35061198472976685,0.9451279640197754,-1.2347639799118042,57.900001525878906,-172.5,-29.100000381469727
1268578,1.936188817024231,8.67845630645752,-2.4009459018707275,-0.2439039945602417,1.1661659479141235,-1.0442140102386475,60.30000305175781,-174.90000915527344,-30.900001525878906
1268600,2.002582550048828,8.706568717956543,-2.503826379776001,0.06859800219535828,1.2652519941329956,-0.5030519962310791,57.900001525878906,-179.70001220703125,-29.100000381469727
1268641,2.1802310943603516,8.843544006347656,-2.4822933673858643,0.2134159952402115,1.2652519941329956,0.3277460038661957,55.500003814697266,-177.3000030517578,-30.900001525878906
1268661,2.2872986793518066,8.850123405456543,-2.4374325275421143,0.10670799762010574,1.2652519941329956,0.46494197845458984,57.900001525878906,-167.70001220703125,-29.700000762939453
1268681,2.4153013229370117,8.930274963378906,-2.4631526470184326,0.04573199898004532,1.2576299905776978,0.426831990480423,57.900001525878906,-170.10000610351562,-29.700000762939453
1268704,2.598931312561035,8.985901832580566,-2.4673397541046143,0.1448179930448532,1.0518360137939453,0.16768398880958557,55.500003814697266,-172.5,-28.500001907348633
1268766,2.730522632598877,8.820216178894043,-2.4990413188934326,0.12195199728012085,0.8155539631843567,-0.4344539940357208,62.70000076293945,-170.10000610351562,-29.100000381469727
1268826,2.8860397338867188,9.189868927001953,-2.637810468673706,0.5411620140075684,0.36585599184036255,-0.49542999267578125,57.900001525878906,-174.90000915527344,-27.900001525878906
1268884,2.872880697250366,8.815430641174316,-2.4164977073669434,-0.3734779953956604,-0.5259180068969727,-0.7088459730148315,57.900001525878906,-172.5,-29.100000381469727
1268904,2.957218885421753,8.81483268737793,-2.3052430152893066,-0.6783579587936401,-0.7621999979019165,-0.7926880121231079,65.10000610351562,-170.10000610351562,-28.500001907348633
1268944,3.0511271953582764,8.22326946258545,-1.9971994161605835,-1.021347999572754,-1.0518360137939453,-0.7088459730148315,62.70000076293945,-172.5,-29.700000762939453
1268986,2.842973470687866,7.378691673278809,-1.639509916305542,-1.2500079870224,-1.2576299905776978,-0.510673999786377,62.70000076293945,-172.5,-29.100000381469727
1269006,2.429656744003296,6.087301254272461,-1.0706759691238403,-1.600619912147522,-1.4024479389190674,-0.8079319596290588,67.5,-172.5,-29.100000381469727
1269027,1.9469553232192993,5.0004754066467285,-0.6830793023109436,-1.646351933479309,-1.2118979692459106,-1.0289700031280518,60.30000305175781,-172.5,-28.500001907348633
1269068,0.2823234796524048,2.0462470054626465,0.17764846980571747,-2.0579400062561035,-0.4725639820098877,-2.4237959384918213,62.70000076293945,-174.90000915527344,-30.30000114440918
1269089,0.20336860418319702,3.5906522274017334,-0.4683459401130676,-1.7149499654769897,1.6692179441452026,2.3170878887176514,62.70000076293945,-172.5,-31.500001907348633
1269109,0.16149860620498657,4.4968390464782715,-0.7680155634880066,-1.5548880100250244,2.2637338638305664,2.888737916946411,67.5,-170.10000610351562,-29.700000762939453
1269129,0.8619239926338196,9.466809272766113,-3.192289113998413,-0.571649968624115,4.28356409072876,6.356747627258301,62.70000076293945,-174.90000915527344,-30.30000114440918
1269149,-0.7165752649307251,11.089570999145508,-4.106849670410156,-0.5640279650688171,3.407033920288086,4.153989791870117,45.900001525878906,-177.3000030517578,-30.900001525878906
1269169,-0.6932476758956909,11.877325057983398,-4.4878668785095215,0.39634400606155396,1.1585439443588257,3.2622158527374268,48.30000305175781,-177.3000030517578,-30.900001525878906
1269192,1.546797752380371,15.19103717803955,-4.388575077056885,0.3277460038661957,0.8307979702949524,6.714982032775879,41.10000228881836,-174.90000915527344,-31.500001907348633
1269232,9.597204208374023,19.56705093383789,-10.736666679382324,3.6356940269470215,9.756159782409668,16.013822555541992,12.300000190734863,-174.90000915527344,-30.30000114440918
1269254,11.405988693237305,19.599349975585938,-10.055381774902344,-1.4939119815826416,-4.077769756317139,-0.3201240003108978,14.700000762939453,-172.5,-31.500001907348633
1269274,9.07681941986084,19.599349975585938,-7.048516750335693,2.530503988265991,-6.852177619934082,-6.775958061218262,24.30000114440918,-172.5,-29.700000762939453
1269294,8.403310775756836,19.599349975585938,-7.26923131942749,-1.189031958580017,-1.7454379796981812,-0.09146399796009064,24.30000114440918,-172.5,-31.500001907348633
1269314,6.700397491455078,18.770923614501953,-5.409605026245117,-2.75154185295105,-5.083873748779297,-5.015275955200195,19.5,-170.10000610351562,-30.30000114440918
1269334,4.1032609939575195,11.386249542236328,-2.349505662918091,-1.5091559886932373,-6.981751918792725,-11.272937774658203,31.500001907348633,-174.90000915527344,-30.900001525878906
1269357,3.001481533050537,5.079430103302002,-0.29966962337493896,-3.3231918811798096,-4.17685604095459,-10.053418159484863,43.5,-170.10000610351562,-30.30000114440918
1269418,-1.0174411535263062,-1.711287021636963,-0.3840077817440033,1.2881180047988892,1.1585439443588257,-0.41158798336982727,60.30000305175781,-170.10000610351562,-34.5
1269438,0.8039041757583618,2.7939257621765137,-0.28890305757522583,2.995445966720581,-1.1051899194717407,1.2195199728012085,62.70000076293945,-172.5,-33.900001525878906
1269458,0.515599250793457,2.0289008617401123,-0.23028504848480225,1.2652519941329956,-1.9131219387054443,-3.399411916732788,60.30000305175781,-174.90000915527344,-30.900001525878906
1269478,-0.06280501186847687,0.02751457691192627,0.22011661529541016,0.4878079891204834,-2.682943820953369,-4.016793727874756,62.70000076293945,-170.10000610351562,-30.30000114440918
1269498,-0.37324121594429016,-0.5132066607475281,0.4001576602458954,0,-2.1722700595855713,-2.9802019596099854,62.70000076293945,-172.5,-32.70000076293945
1269518,-0.5048326849937439,-0.5365342497825623,0.33496007323265076,-0.4039659798145294,-1.3795819282531738,-1.8902559280395508,74.70000457763672,-172.5,-32.10000228881836
1269541,-0.4946642518043518,-0.2607903480529785,0.3343619108200073,-0.7317119836807251,-0.7317119836807251,-0.9222619533538818,72.30000305175781,-174.90000915527344,-29.100000381469727
1269621,-0.04844957962632179,-0.6824811100959778,0.6573591232299805,-2.4695279598236084,0.8765299916267395,1.707327961921692,72.30000305175781,-172.5,-32.70000076293945
1269782,17.537551879882812,19.598154067993164,-11.786407470703125,7.583889961242676,12.362883567810059,16.631202697753906,-6.900000095367432,-165.3000030517578,-31.500001907348633
1269802,19.104087829589844,19.599349975585938,-11.817510604858398,-3.5289859771728516,-2.378063917160034,1.3490939140319824,-18.900001525878906,-167.70001220703125,-33.30000305175781
1269842,13.026357650756836,19.599349975585938,-7.20762300491333,-0.9984819889068604,-5.754610061645508,-4.413137912750244,-9.300000190734863,-177.3000030517578,-30.900001525878906
1269865,7.116106986999512,16.235395431518555,-4.812658309936523,-0.49542999267578125,-7.118947982788086,-15.876626014709473,7.500000476837158,-167.70001220703125,-31.500001907348633
1269905,-0.031701575964689255,1.0317965745925903,0.4575793743133545,-5.099117755889893,-4.131124019622803,-20.66324234008789,45.900001525878906,-174.90000915527344,-32.10000228881836
1269925,-2.4721248149871826,-3.260477304458618,0.7949320077896118,-4.504601955413818,-2.134160041809082,-14.276005744934082,57.900001525878906,-179.70001220703125,-30.30000114440918
1269947,-2.119220495223999,-3.7162623405456543,1.3685511350631714,-2.736297845840454,-0.5564059615135193,-4.626554012298584,69.9000015258789,-165.3000030517578,-32.70000076293945
1269967,0.39058735966682434,0.9671971797943115,0.1381710320711136,0.685979962348938,0.1600620001554489,2.4085519313812256,72.30000305175781,-170.10000610351562,-32.70000076293945
1270032,0.17705032229423523,-0.4755236506462097,0.8487648963928223,-1.5320219993591309,0.2972579896450043,0.3201240003108978,67.5,-179.70001220703125,-31.500001907348633
1270082,-0.3648672103881836,-0.8577370047569275,0.6352278590202332,-0.685979962348938,1.9207439422607422,0.800309956073761,60.30000305175781,-177.3000030517578,-33.30000305175781
1270103,-0.3313712179660797,-0.6083114147186279,0.4677478075027466,-0.3201240003108978,1.9664759635925293,0.8841519951820374,62.70000076293945,-174.90000915527344,-33.30000305175781
1270144,-0.16748003661632538,-0.4677478075027466,0.2577996253967285,0.28201398253440857,1.5853760242462158,0.49542999267578125,67.5,-172.5,-32.10000228881836
1270164,0.20875190198421478,-0.18781688809394836,0.32718420028686523,0.6478700041770935,1.6082419157028198,1.0061039924621582,60.30000305175781,-174.90000915527344,-32.10000228881836
1270206,-0.008972144685685635,1.2961758375167847,-0.7596415877342224,1.4329359531402588,3.0335559844970703,3.5442299842834473,53.10000228881836,-174.90000915527344,-32.10000228881836
1270325,18.319324493408203,19.555686950683594,-10.756404876708984,-8.620481491088867,2.088428020477295,14.46655559539795,-6.900000095367432,-170.10000610351562,-31.500001907348633
1270345,13.06164836883545,19.599349975585938,-7.860196590423584,7.164680004119873,-4.474113941192627,-10.75464153289795,-14.100000381469727,-170.10000610351562,-32.10000228881836
1270385,6.961786270141602,19.173473358154297,-7.193267345428467,-0.5564059615135193,-6.318637847900391,-6.646383762359619,9.90000057220459,-172.5,-29.700000762939453
1270425,1.312923789024353,6.928289890289307,-2.4428157806396484,-0.5335400104522705,-6.539675712585449,-16.9284610748291,33.900001525878906,-172.5,-27.900001525878906
1270520,1.2441374063491821,3.3436191082000732,-0.3989613652229309,-0.9984819889068604,-1.5396440029144287,2.134160041809082,62.70000076293945,-172.5,-28.500001907348633
1270581,0.2015741765499115,-0.5389268398284912,0.8493630290031433,-2.240867853164673,0.10670799762010574,1.8216580152511597,65.10000610351562,-177.3000030517578,-32.10000228881836
1270646,-0.09390844404697418,-0.6322371363639832,0.5502915382385254,-1.2271419763565063,0.571649968624115,0.1448179930448532,57.900001525878906,-174.90000915527344,-32.70000076293945
1270681,0.4444202184677124,-0.9606176018714905,0.7416973114013672,-0.3125019967556,0.6631140112876892,0.9603719711303711,55.500003814697266,-170.10000610351562,-32.10000228881836
1270701,0.9564306139945984,-0.7530620098114014,1.2644742727279663,-0.3582339882850647,1.1356779336929321,2.75154185295105,50.70000076293945,-174.90000915527344,-30.900001525878906
1270744,3.2467200756073,9.347180366516113,-2.20894193649292,4.39027214050293,7.9497456550598145,17.78212547302246,41.10000228881836,-174.90000915527344,-31.500001907348633
1270764,7.30511999130249,19.39059829711914,-5.06926155090332,-2.1494040489196777,9.016825675964355,21.936115264892578,12.300000190734863,-177.3000030517578,-30.900001525878906
1270786,9.203625679016113,19.535348892211914,-6.986907958984375,-1.1737879514694214,6.897909641265869,8.117429733276367,5.100000381469727,-170.10000610351562,-32.70000076293945
1270806,9.799376487731934,19.599349975585938,-6.982720851898193,2.7667858600616455,-1.6158639192581177,-3.5975840091705322,0.30000001192092896,-167.70001220703125,-32.10000228881836
1270828,14.33329963684082,19.598752975463867,-9.41536808013916,6.089977741241455,6.196685791015625,13.170815467834473,-9.300000190734863,-174.90000915527344,-30.900001525878906
1270848,19.599349975585938,19.599349975585938,-10.24618911743164,-9.878111839294434,1.8902559280395508,11.532085418701172,-26.100000381469727,-162.90000915527344,-33.30000305175781
1270868,15.02176284790039,19.599349975585938,-7.142425060272217,-0.39634400606155396,-5.121984004974365,-10.266833305358887,-23.700000762939453,-170.10000610351562,-32.70000076293945
1270931,2.638408660888672,6.174031734466553,-0.5754135251045227,-2.7591638565063477,-3.346057891845703,-20.838546752929688,12.300000190734863,-172.5,-33.30000305175781
1271040,1.6885576248168945,1.0407687425613403,-0.43604621291160583,0.1295740008354187,1.0289700031280518,-0.7698220014572144,48.30000305175781,-179.70001220703125,-32.10000228881836
1271060,1.5420125722885132,-0.1692744642496109,0.11544159054756165,-0.41158798336982727,-0.10670799762010574,0.16768398880958557,43.5,-177.3000030517578,-30.900001525878906
1271103,0.7482768297195435,-1.0922091007232666,0.48748651146888733,-1.7987920045852661,0.685979962348938,1.478667974472046,43.5,-174.90000915527344,-32.10000228881836
1271125,0.7710062861442566,-1.1699676513671875,0.8613258600234985,-2.0960500240325928,0.9298839569091797,2.3475759029388428,43.5,-179.70001220703125,-33.30000305175781
1271146,0.4617663621902466,-0.8499611616134644,1.1185274124145508,-2.1646480560302734,1.8445239067077637,2.637212038040161,31.500001907348633,-174.90000915527344,-34.5
1271166,0.1926020383834839,0.08912330120801926,0.6513776779174805,-1.4939119815826416,2.538125991821289,2.0655620098114014,36.30000305175781,-177.3000030517578,-33.30000305175781
1271226,0.059814296662807465,0.06400129944086075,0.509617805480957,1.6615959405899048,0.6936019659042358,-0.685979962348938,38.70000076293945,-177.3000030517578,-33.30000305175781
1271250,1.0539278984069824,5.452073097229004,-0.806296706199646,4.725639820098877,3.2850818634033203,4.817103862762451,33.900001525878906,-174.90000915527344,-31.500001907348633
1271271,4.026698589324951,14.919480323791504,-4.373621463775635,7.286632061004639,8.079319953918457,19.72573471069336,17.100000381469727,-172.5,-30.900001525878906
1271291,9.128857612609863,19.599349975585938,-6.615461349487305,-4.161612033843994,4.1921000480651855,13.03361988067627,9.90000057220459,-172.5,-32.70000076293945
1271311,6.51437520980835,19.314634323120117,-5.011241912841797,1.9893419742584229,0.36585599184036255,-7.271388053894043,5.100000381469727,-182.10000610351562,-32.70000076293945
1271331,9.556529998779297,19.599349975585938,-7.850626468658447,9.74091625213623,7.0351057052612305,2.7591638565063477,5.100000381469727,-167.70001220703125,-30.900001525878906
1271353,19.599349975585938,19.586191177368164,-12.129741668701172,-3.0869100093841553,11.89031982421875,15.152535438537598,-6.900000095367432,-167.70001220703125,-30.900001525878906
1271374,12.633378028869629,19.599349975585938,-8.179006576538086,-0.38109999895095825,-11.897941589355469,-11.85221004486084,-9.300000190734863,-170.10000610351562,-33.900001525878906
1271394,11.626105308532715,19.599349975585938,-6.420466423034668,1.021347999572754,-5.579303741455078,-9.57323169708252,0.30000001192092896,-172.5,-31.500001907348633
1271454,1.4959555864334106,5.4771952629089355,-0.8320168852806091,-0.16768398880958557,-6.394857883453369,-20.23641014099121,45.900001525878906,-170.10000610351562,-29.700000762939453
1271474,-0.7704081535339355,-0.19320018589496613,0.20635932683944702,-2.2180018424987793,-3.0335559844970703,-16.494007110595703,60.30000305175781,-170.10000610351562,-30.30000114440918
1271494,-2.555266857147217,-3.1073527336120605,0.8696998953819275,-2.240867853164673,-1.2881180047988892,-8.811031341552734,69.9000015258789,-172.5,-29.700000762939453
1271514,-1.711287021636963,-1.9170482158660889,0.29368820786476135,0.1600620001554489,1.577754020690918,-0.6250039935112,74.70000457763672,-177.3000030517578,-30.900001525878906
1271534,0.23447205126285553,2.2406435012817383,-0.7207622528076172,2.896359920501709,1.2042759656906128,2.2713558673858643,74.70000457763672,-170.10000610351562,-28.500001907348633
1271577,0.26976248621940613,-0.14893759787082672,-0.059814296662807465,0.7774440050125122,-0.12195199728012085,-0.48018598556518555,72.30000305175781,-174.90000915527344,-28.500001907348633
1271597,0.2811271846294403,-0.5616562366485596,0.3989613652229309,0.4878079891204834,0.04573199898004532,0.6021379828453064,72.30000305175781,-167.70001220703125,-27.900001525878906
1271637,0.176452174782753,-0.6136946678161621,0.4545886516571045,-1.1128119230270386,1.1204339265823364,1.875011920928955,74.70000457763672,-174.90000915527344,-30.30000114440918
1271697,0.32180091738700867,-0.8451760411262512,0.4504016637802124,-2.378063917160034,1.8673899173736572,3.666181802749634,69.9000015258789,-170.10000610351562,-29.700000762939453
1271717,0.20217232406139374,-0.5742172598838806,0.4312610924243927,-2.1189160346984863,2.294221878051758,4.199721813201904,57.900001525878906,-174.90000915527344,-31.500001907348633
1271737,1.012057900428772,3.493155002593994,-0.6980328559875488,1.425313949584961,3.8491098880767822,7.362851619720459,48.30000305175781,-177.3000030517578,-32.70000076293945
1271758,2.2693543434143066,10.646347045898438,-2.831010580062866,6.821690082550049,10.335432052612305,17.073280334472656,45.900001525878906,-179.70001220703125,-30.30000114440918
1271778,12.952187538146973,19.599349975585938,-9.913022994995117,0.6783579587936401,13.734843254089355,29.375186920166016,9.90000057220459,-172.5,-27.900001525878906
1271798,8.91950798034668,18.212257385253906,-4.731310844421387,-8.589993476867676,-14.25313949584961,-11.722635269165039,12.300000190734863,-179.70001220703125,-29.700000762939453
1271818,3.266458749771118,8.144912719726562,-1.2770352363586426,8.010722160339355,-1.9893419742584229,-16.905595779418945,24.30000114440918,-177.3000030517578,-30.30000114440918
1271878,6.077730655670166,19.133995056152344,-3.48478102684021,-0.6173819899559021,-6.981751918792725,-8.993959426879883,12.300000190734863,-170.10000610351562,-31.500001907348633
1271938,1.9026927947998047,7.905057430267334,-2.4003477096557617,-1.5167779922485352,-3.612828016281128,-6.768335819244385,38.70000076293945,-177.3000030517578,-32.10000228881836
1271958,1.296773910522461,5.826510906219482,-1.3260829448699951,-3.1859958171844482,-2.4619059562683105,-4.199721813201904,45.900001525878906,-177.3000030517578,-30.30000114440918
1271978,0.7602397203445435,4.8569207191467285,-1.0096653699874878,-3.7424018383026123,-0.1448179930448532,-2.027451992034912,50.70000076293945,-179.70001220703125,-32.10000228881836
1272001,0.814670741558075,4.16486930847168,-0.8589333295822144,-2.4161739349365234,-0.19817200303077698,-0.8993960022926331,50.70000076293945,-174.90000915527344,-33.30000305175781
1272021,1.2435392141342163,3.756337881088257,-0.3403433561325073,-2.0960500240325928,-0.1295740008354187,0.6097599864006042,45.900001525878906,-174.90000915527344,-32.10000228881836
1272041,1.6281452178955078,4.140345573425293,-0.5347397923469543,-0.9984819889068604,0.3582339882850647,1.7378159761428833,45.900001525878906,-172.5,-33.30000305175781
1272061,1.9290111064910889,4.569214344024658,-0.8714942932128906,-0.7317119836807251,0.39634400606155396,2.073184013366699,43.5,-174.90000915527344,-31.500001907348633
1272081,1.7764846086502075,5.062084197998047,-1.306942343711853,0.25152599811553955,-0.007621999830007553,1.6768399477005005,43.5,-172.5,-31.500001907348633
1272102,1.906281590461731,6.078927040100098,-1.6000324487686157,1.5929979085922241,-0.5945159792900085,1.471045970916748,38.70000076293945,-174.90000915527344,-32.10000228881836
1272122,2.539715051651001,8.022293090820312,-1.7633254528045654,2.2637338638305664,-1.2576299905776978,1.417691946029663,36.30000305175781,-177.3000030517578,-33.900001525878906
1272182,3.383694887161255,11.379670143127441,-2.8836472034454346,-0.2743920087814331,-0.12195199728012085,-0.739333987236023,36.30000305175781,-179.70001220703125,-32.10000228881836
1272202,3.460257053375244,11.742144584655762,-2.8950119018554688,-0.5868939757347107,-0.228659987449646,-0.9451279640197754,38.70000076293945,-174.90000915527344,-30.30000114440918
1272222,3.41001296043396,12.069927215576172,-2.7705981731414795,-1.0061039924621582,-0.25152599811553955,-1.6768399477005005,33.900001525878906,-174.90000915527344,-30.900001525878906
1272242,2.8722825050354004,11.542365074157715,-2.647380828857422,-1.1051899194717407,0.3048799932003021,-2.698187828063965,43.5,-177.3000030517578,-31.500001907348633
1272264,2.363262891769409,10.423837661743164,-2.2340641021728516,-1.3109840154647827,0.3277460038661957,-2.942091941833496,48.30000305175781,-170.10000610351562,-32.70000076293945
1272284,1.9900217056274414,9.426135063171387,-1.8961132764816284,-1.0899460315704346,0.5182960033416748,-2.7744078636169434,48.30000305175781,-177.3000030517578,-30.30000114440918
1272305,1.8841503858566284,8.936854362487793,-1.739399790763855,-0.6783579587936401,0.8460419774055481,-2.0122079849243164,50.70000076293945,-177.3000030517578,-31.500001907348633
1272326,1.5862751007080078,8.246597290039062,-1.5192831754684448,-0.39634400606155396,0.9908599853515625,-1.5625100135803223,45.900001525878906,-172.5,-32.70000076293945
1272346,1.4564781188964844,7.982217788696289,-1.4433189630508423,0.19054999947547913,1.2118979692459106,-0.853663980960846,50.70000076293945,-179.70001220703125,-31.500001907348633
1272366,1.496553659439087,8.051004409790039,-1.4786094427108765,0.5868939757347107,1.196653962135315,-0.44969800114631653,53.10000228881836,-177.3000030517578,-31.500001907348633
1272388,1.5551717281341553,7.955301284790039,-1.4606651067733765,0.7774440050125122,0.967993974685669,-0.5335400104522705,48.30000305175781,-177.3000030517578,-32.10000228881836
1272408,1.8548413515090942,8.115005493164062,-1.423580288887024,1.0747020244598389,0.6936019659042358,-0.2591480016708374,50.70000076293945,-172.5,-32.10000228881836
1272428,2.068378448486328,8.288467407226562,-1.4720298051834106,0.914639949798584,0.6097599864006042,-0.13719600439071655,50.70000076293945,-179.70001220703125,-31.500001907348633
1272448,2.18800687789917,8.38656234741211,-1.4271690845489502,0.7774440050125122,0.6021379828453064,-0.030487999320030212,55.500003814697266,-172.5,-30.30000114440918
1272489,2.5833795070648193,8.640174865722656,-1.7130814790725708,-0.13719600439071655,0.3201240003108978,-0.19817200303077698,53.10000228881836,-179.70001220703125,-30.30000114440918
1272509,2.7550466060638428,8.695204734802246,-1.6413042545318604,0.5259180068969727,0.13719600439071655,0.2591480016708374,55.500003814697266,-172.5,-29.700000762939453
1272529,3.115128517150879,9.213794708251953,-1.7370071411132812,0.9451279640197754,0.41158798336982727,0.2439039945602417,53.10000228881836,-177.3000030517578,-30.30000114440918
1272569,2.962602138519287,8.605483055114746,-1.8913280963897705,0.33536797761917114,0.9451279640197754,-0.2896359860897064,53.10000228881836,-167.70001220703125,-29.100000381469727
1272621,2.349505662918091,9.50030517578125,-3.986024856567383,1.417691946029663,2.2180018424987793,-1.3109840154647827,48.30000305175781,-172.5,-30.30000114440918
1272666,2.518779993057251,9.375292778015137,-4.4459967613220215,2.195136070251465,0.5182960033416748,-2.4771499633789062,55.500003814697266,-170.10000610351562,-28.500001907348633
1272686,2.548687219619751,9.561315536499023,-4.733105182647705,2.4542839527130127,0.2439039945602417,-2.538125991821289,55.500003814697266,-179.70001220703125,-29.100000381469727
1272727,2.5893609523773193,8.773561477661133,-4.26356315612793,1.1814099550247192,-0.2134159952402115,-2.187514066696167,55.500003814697266,-167.70001220703125,-25.500001907348633
1272747,2.486480236053467,8.381178855895996,-4.103858947753906,0.2743920087814331,0.09146399796009064,-1.600619912147522,65.10000610351562,-172.5,-26.700000762939453
1272767,2.4547786712646484,8.177810668945312,-3.7629175186157227,-0.510673999786377,0.2972579896450043,-1.2195199728012085,65.10000610351562,-172.5,-26.700000762939453
1272787,2.5259578227996826,7.966666221618652,-3.5308380126953125,-1.3643379211425781,0.5792719721794128,-1.3186060190200806,62.70000076293945,-174.90000915527344,-27.30000114440918
1272847,2.6276421546936035,7.281792640686035,-3.293375253677368,-1.3567159175872803,0.3048799932003021,-1.8140360116958618,72.30000305175781,-174.90000915527344,-29.100000381469727
1272867,2.869889974594116,7.621537685394287,-3.389078140258789,-0.5868939757347107,0.02286599949002266,-1.242385983467102,67.5,-172.5,-28.500001907348633
1272890,3.082230806350708,8.058181762695312,-3.3962557315826416,-0.2591480016708374,-0.6631140112876892,-1.067080020904541,74.70000457763672,-167.70001220703125,-27.30000114440918
1272910,3.359170913696289,8.144912719726562,-3.395657539367676,-0.41158798336982727,-1.2042759656906128,-0.9298839569091797,69.9000015258789,-170.10000610351562,-28.500001907348633
1272934,3.5093047618865967,8.093472480773926,-3.2861974239349365,-0.19817200303077698,-1.3033620119094849,-0.5335400104522705,74.70000457763672,-172.5,-27.900001525878906
1272954,3.6379055976867676,8.58993148803711,-3.4118075370788574,0.3048799932003021,-1.1509219408035278,-0.1448179930448532,69.9000015258789,-167.70001220703125,-29.100000381469727
1272974,3.8460593223571777,9.649840354919434,-3.4297518730163574,0.571649968624115,-0.9603719711303711,0.28201398253440857,74.70000457763672,-167.70001220703125,-27.900001525878906
1272994,4.19178581237793,9.869359016418457,-3.5727078914642334,-1.021347999572754,-2.187514066696167,-1.6311079263687134,72.30000305175781,-177.3000030517578,-27.900001525878906
1273014,2.9978926181793213,7.122686386108398,-2.26875638961792,-2.134160041809082,-2.736297845840454,-3.971061944961548,81.9000015258789,-172.5,-27.900001525878906
1273034,3.0092573165893555,7.26923131942749,-2.3237855434417725,0.2591480016708374,-0.6707359552383423,-0.08384199440479279,81.9000015258789,-172.5,-28.500001907348633
1273058,2.7699999809265137,9.133045196533203,-2.3261780738830566,-1.5091559886932373,-0.19817200303077698,-0.7621999979019165,77.10000610351562,-165.3000030517578,-27.30000114440918
1273079,2.587566375732422,9.48834228515625,-2.5648369789123535,-0.6936019659042358,0.015243999660015106,-0.9908599853515625,72.30000305175781,-170.10000610351562,-27.30000114440918
1273099,2.241241693496704,9.76408576965332,-2.363861083984375,-0.9070180058479309,-0.7240899801254272,-1.478667974472046,77.10000610351562,-170.10000610351562,-26.700000762939453
1273120,1.1920989751815796,8.489442825317383,-1.5479940176010132,-1.2804960012435913,-0.8917739987373352,-2.240867853164673,81.9000015258789,-172.5,-27.900001525878906
1273140,0.503636360168457,9.670177459716797,-2.0079660415649414,-0.5564059615135193,-0.4420759975910187,-0.9222619533538818,81.9000015258789,-170.10000610351562,-27.900001525878906
1273160,-0.18422803282737732,9.537389755249023,-1.8189527988433838,-1.7149499654769897,-0.3734779953956604,-1.5701320171356201,79.5,-167.70001220703125,-29.100000381469727
1273183,-0.6226668357849121,8.97214412689209,-1.955329418182373,-1.0442140102386475,-0.3048799932003021,-1.5015339851379395,79.5,-165.3000030517578,-29.700000762939453
1273203,-0.6238631010055542,9.628905296325684,-2.056415557861328,-0.22103799879550934,-0.6631140112876892,-0.9527499675750732,81.9000015258789,-167.70001220703125,-29.700000762939453
1273223,-1.0246188640594482,9.771263122558594,-2.24782133102417,-0.46494197845458984,-0.5564059615135193,-1.2042759656906128,89.10000610351562,-165.3000030517578,-28.500001907348633
1273245,-1.3452235460281372,9.281384468078613,-2.5235652923583984,-0.18292799592018127,-0.7621999979019165,-1.7378159761428833,91.5,-167.70001220703125,-29.700000762939453
1273266,-1.24294114112854,9.627111434936523,-2.658745527267456,0.8765299916267395,-0.9908599853515625,-1.2728739976882935,84.30000305175781,-165.3000030517578,-30.30000114440918
1273286,-1.2596890926361084,9.875340461730957,-2.8752732276916504,0.8993960022926331,-1.0823240280151367,-1.5167779922485352,96.30000305175781,-165.3000030517578,-28.500001907348633
1273326,-0.92173832654953,9.285571098327637,-2.6641287803649902,0.6554920077323914,-1.1204339265823364,-1.189031958580017,98.70000457763672,-167.70001220703125,-28.500001907348633
1273346,-0.7010235786437988,9.578661918640137,-2.656352996826172,0.39634400606155396,-0.44969800114631653,-0.5868939757347107,93.9000015258789,-172.5,-27.900001525878906
1273366,-0.7578471302986145,9.507482528686523,-2.7795703411102295,-0.426831990480423,-0.06859800219535828,-0.5868939757347107,86.70000457763672,-160.5,-27.900001525878906
1273386,-0.5419175028800964,9.28916072845459,-2.626445770263672,-0.7850660085678101,0.08384199440479279,-0.36585599184036255,98.70000457763672,-172.5,-27.900001525878906
1273406,-0.30624920129776,9.203027725219727,-2.4212827682495117,-0.8231759667396545,0.4420759975910187,-0.15243999660015106,89.10000610351562,-170.10000610351562,-29.700000762939453
1273427,-0.21892032027244568,9.069642066955566,-2.0851263999938965,-1.2042759656906128,1.242385983467102,0.33536797761917114,96.30000305175781,-167.70001220703125,-29.100000381469727
1273447,-0.22968690097332,9.27121639251709,-2.116827964782715,-1.4634239673614502,1.6311079263687134,0.4039659798145294,91.5,-162.90000915527344,-28.500001907348633
1273510,0.3373526334762573,9.438695907592773,-1.7041093111038208,-0.9603719711303711,1.0289700031280518,-0.030487999320030212,91.5,-170.10000610351562,-30.900001525878906
1273530,0.4043446481227875,9.31787109375,-1.7920362949371338,-1.4862899780273438,1.4405579566955566,-0.44969800114631653,96.30000305175781,-170.10000610351562,-29.700000762939453
1273550,0.4432239532470703,9.119287490844727,-1.7627273797988892,-1.2881180047988892,1.3414719104766846,-0.8307979702949524,93.9000015258789,-172.5,-30.30000114440918
1273570,0.5879745483398438,9.03016471862793,-1.735212802886963,-1.013725996017456,1.2500079870224,-0.967993974685669,93.9000015258789,-167.70001220703125,-27.900001525878906
1273590,0.811680018901825,9.417162895202637,-1.9248241186141968,-0.48018598556518555,1.2195199728012085,-0.853663980960846,93.9000015258789,-170.10000610351562,-30.900001525878906
1273610,0.6406111121177673,9.08878231048584,-1.8985058069229126,-0.6326259970664978,1.0518360137939453,-1.2118979692459106,89.10000610351562,-162.90000915527344,-29.700000762939453
1273631,0.6310408115386963,8.977527618408203,-1.8835521936416626,-0.1295740008354187,0.9451279640197754,-1.4481799602508545,93.9000015258789,-170.10000610351562,-29.100000381469727
1273691,0.8140726089477539,9.682140350341797,-2.504424571990967,0.6021379828453064,1.0518360137939453,-1.8521459102630615,101.10000610351562,-165.3000030517578,-30.30000114440918
1273711,0.821250319480896,8.748438835144043,-2.351300001144409,1.14329993724823,1.0365920066833496,-1.6768399477005005,93.9000015258789,-170.10000610351562,-28.500001907348633
1273732,0.9522436261177063,8.566603660583496,-2.5624444484710693,2.134160041809082,1.2728739976882935,-1.021347999572754,96.30000305175781,-170.10000610351562,-29.700000762939453
1273752,1.0916109085083008,8.442788124084473,-2.9733686447143555,2.637212038040161,1.471045970916748,-0.2896359860897064,103.50000762939453,-167.70001220703125,-27.30000114440918
1273775,1.6580523252487183,9.69828987121582,-3.791628360748291,3.0792880058288574,1.4481799602508545,0.36585599184036255,98.70000457763672,-165.3000030517578,-27.30000114440918
1273795,1.6652300357818604,9.22216796875,-3.771291494369507,2.2637338638305664,0.7164679765701294,-0.33536797761917114,101.10000610351562,-165.3000030517578,-26.100000381469727
1273815,1.9571237564086914,9.423144340515137,-3.9399678707122803,1.8445239067077637,0.5945159792900085,-0.23628199100494385,98.70000457763672,-165.3000030517578,-26.700000762939453
1273838,2.205353021621704,9.03794002532959,-3.940565824508667,0.6554920077323914,0.5182960033416748,-0.7088459730148315,93.9000015258789,-167.70001220703125,-26.700000762939453
1273858,2.283709764480591,8.63180160522461,-4.086512565612793,0.7240899801254272,0.5411620140075684,-0.7088459730148315,93.9000015258789,-172.5,-26.100000381469727
1273878,2.43803071975708,8.88481616973877,-3.899294137954712,0.2134159952402115,-0.05335399881005287,-0.22103799879550934,91.5,-165.3000030517578,-25.500001907348633
1273898,2.6515676975250244,8.692214012145996,-3.7150659561157227,-0.49542999267578125,0.1600620001554489,-0.44969800114631653,101.10000610351562,-162.90000915527344,-24.30000114440918
1273918,2.7233450412750244,8.237625122070312,-3.529641628265381,-0.8689079880714417,0.510673999786377,-0.5792719721794128,98.70000457763672,-160.5,-24.900001525878906
1273981,2.953629970550537,8.438002586364746,-3.377713441848755,-1.1051899194717407,1.14329993724823,0.16768398880958557,108.30000305175781,-160.5,-24.900001525878906
1274001,3.058305025100708,8.37160873413086,-3.284403085708618,-1.4939119815826416,1.2500079870224,0.05335399881005287,103.50000762939453,-165.3000030517578,-24.900001525878906
1274021,3.0218183994293213,8.41946029663086,-3.4171907901763916,-1.425313949584961,1.2271419763565063,-0.007621999830007553,101.10000610351562,-160.5,-25.500001907348633
1274044,2.9829390048980713,8.542677879333496,-3.3454136848449707,-0.8765299916267395,0.7088459730148315,0.02286599949002266,101.10000610351562,-167.70001220703125,-27.30000114440918
1274065,3.0062665939331055,8.641969680786133,-3.168363332748413,-0.800309956073761,0.4878079891204834,-0.2896359860897064,98.70000457763672,-160.5,-25.500001907348633
1274085,3.064286470413208,9.269421577453613,-3.249112606048584,-0.6173819899559021,0.6173819899559021,-0.3048799932003021,96.30000305175781,-165.3000030517578,-27.900001525878906
1274105,2.6958303451538086,9.247888565063477,-3.3226842880249023,-0.9070180058479309,0.457319974899292,-0.9527499675750732,93.9000015258789,-162.90000915527344,-27.30000114440918
1274125,2.0037789344787598,7.858402252197266,-2.726933717727661,-1.4024479389190674,0.15243999660015106,-1.471045970916748,103.50000762939453,-160.5,-25.500001907348633
1274188,1.2106413841247559,10.17142105102539,-2.6120903491973877,-1.5320219993591309,0.6326259970664978,-1.0975680351257324,103.50000762939453,-165.3000030517578,-27.30000114440918
1274287,-0.4324573576450348,9.267626762390137,-2.331561326980591,-0.2439039945602417,-0.17530599236488342,-2.088428020477295,108.30000305175781,-165.3000030517578,-29.100000381469727
1274307,-0.7853617072105408,8.213699340820312,-2.1688663959503174,-0.41158798336982727,-0.967993974685669,-2.782029867172241,113.10000610351562,-167.70001220703125,-26.700000762939453
1274347,-0.9677953124046326,8.894386291503906,-2.3231873512268066,0.6326259970664978,-0.6097599864006042,-1.6692179441452026,108.30000305175781,-167.70001220703125,-25.500001907348633
1274367,-0.9977024793624878,9.128857612609863,-2.516387462615967,0.6097599864006042,-0.6402480006217957,-1.92836594581604,120.30000305175781,-162.90000915527344,-26.700000762939453
1274390,-0.8780738711357117,8.972743034362793,-2.5415093898773193,0.5335400104522705,-0.9070180058479309,-2.080806016921997,117.9000015258789,-160.5,-27.30000114440918
1274410,-0.7733988761901855,9.11270809173584,-2.6043145656585693,0.7088459730148315,-0.800309956073761,-1.753059983253479,117.9000015258789,-155.70001220703125,-25.500001907348633
1274430,-0.8810645937919617,8.983509063720703,-2.8334033489227295,0.5792719721794128,-0.9603719711303711,-1.4024479389190674,120.30000305175781,-158.10000610351562,-25.500001907348633
1274470,-0.36426907777786255,9.700682640075684,-3.076847553253174,0.28201398253440857,-0.6478700041770935,-0.5259180068969727,120.30000305175781,-162.90000915527344,-26.100000381469727
1274491,-0.32897862792015076,9.4195556640625,-3.1701576709747314,-0.09908600151538849,-0.5259180068969727,-0.5945159792900085,122.70000457763672,-155.70001220703125,-26.700000762939453
1274511,-0.30565106868743896,9.067249298095703,-3.2353553771972656,0,-0.5182960033416748,-0.5030519962310791,125.10000610351562,-160.5,-27.900001525878906
1274532,-0.09809544682502747,9.095361709594727,-3.3107213973999023,0.2134159952402115,-0.4420759975910187,-0.1295740008354187,122.70000457763672,-165.3000030517578,-26.700000762939453
1274552,0.016748003661632538,9.195850372314453,-3.2568883895874023,0.38109999895095825,-0.457319974899292,-0.05335399881005287,120.30000305175781,-158.10000610351562,-26.100000381469727
1274572,0.07716044038534164,9.24729061126709,-3.3669466972351074,0.20579399168491364,-0.2896359860897064,-0.22103799879550934,125.10000610351562,-165.3000030517578,-27.900001525878906
1274595,0.22191104292869568,9.075623512268066,-3.26765513420105,0.015243999660015106,-0.25152599811553955,-0.35061198472976685,120.30000305175781,-160.5,-27.900001525878906
1274615,0.40554094314575195,9.01820182800293,-3.2473182678222656,-0.1600620001554489,-0.015243999660015106,-0.3201240003108978,122.70000457763672,-162.90000915527344,-26.100000381469727
1274635,0.5138047933578491,8.620436668395996,-3.186307668685913,-0.48018598556518555,0.2972579896450043,-0.05335399881005287,120.30000305175781,-158.10000610351562,-26.700000762939453
1274656,0.5909652709960938,8.908143043518066,-3.222196102142334,-0.3734779953956604,0.3125019967556,0.10670799762010574,125.10000610351562,-160.5,-27.900001525878906
1274677,0.7524638772010803,9.052295684814453,-3.2706458568573,-0.4420759975910187,0.2591480016708374,-0.05335399881005287,122.70000457763672,-165.3000030517578,-27.900001525878906
1274697,0.7542582750320435,8.589333534240723,-3.028995990753174,-0.7545779943466187,0.36585599184036255,0.1295740008354187,122.70000457763672,-158.10000610351562,-25.500001907348633
1274757,0.7076031565666199,9.23712158203125,-3.034379243850708,-0.3887220025062561,0.4878079891204834,-0.15243999660015106,122.70000457763672,-155.70001220703125,-26.700000762939453
1274777,0.7919412851333618,9.14859676361084,-3.0571086406707764,-0.7164679765701294,0.4039659798145294,-0.5792719721794128,125.10000610351562,-155.70001220703125,-25.500001907348633
1274797,0.9444677233695984,9.798778533935547,-3.1546061038970947,-0.015243999660015106,0.3582339882850647,-0.6783579587936401,117.9000015258789,-160.5,-28.500001907348633
1274817,0.7763895988464355,9.198841094970703,-2.9608078002929688,-0.6707359552383423,0.2439039945602417,-1.1661659479141235,120.30000305175781,-162.90000915527344,-26.100000381469727
1274839,0.8679054379463196,8.84294605255127,-2.6659231185913086,-0.5945159792900085,0.09146399796009064,-0.9298839569091797,122.70000457763672,-158.10000610351562,-26.700000762939453
1274859,0.7728007435798645,8.806459426879883,-2.572014808654785,-0.685979962348938,0.2896359860897064,-0.6783579587936401,129.90000915527344,-162.90000915527344,-25.500001907348633
1274879,0.5467026829719543,9.173718452453613,-2.828618049621582,-0.3582339882850647,0.36585599184036255,-0.8612859845161438,125.10000610351562,-160.5,-27.30000114440918
1274900,0.20516303181648254,9.002650260925293,-2.853142023086548,-0.2134159952402115,-0.16768398880958557,-1.3795819282531738,125.10000610351562,-158.10000610351562,-25.500001907348633
1274920,0.1058713048696518,9.124073028564453,-2.732915163040161,0.2972579896450043,-0.5640279650688171,-1.3795819282531738,127.50000762939453,-158.10000610351562,-26.100000381469727
1274940,0.1591060310602188,9.988987922668457,-2.9488449096679688,0.4192099869251251,-0.5640279650688171,-1.3186060190200806,122.70000457763672,-153.3000030517578,-24.900001525878906
1275003,-0.8679054379463196,8.820216178894043,-2.9009933471679688,0.030487999320030212,-0.6402480006217957,-2.3628199100494385,129.90000915527344,-160.5,-27.30000114440918
1275024,-1.1861175298690796,8.061172485351562,-2.9045822620391846,-0.18292799592018127,-0.7012239694595337,-2.4161739349365234,137.10000610351562,-155.70001220703125,-26.100000381469727
1275044,-1.4768149852752686,7.6981000900268555,-3.2096352577209473,0.3887220025062561,-0.6783579587936401,-1.6692179441452026,144.3000030517578,-153.3000030517578,-27.900001525878906
1275064,-1.23396897315979,8.3100004196167,-3.43393874168396,0.7240899801254272,-1.2347639799118042,-0.9451279640197754,137.10000610351562,-153.3000030517578,-27.900001525878906
1275124,-0.18721875548362732,9.102540016174316,-3.368741273880005,-0.17530599236488342,-1.4634239673614502,-0.48018598556518555,141.90000915527344,-155.70001220703125,-26.100000381469727
1275147,0.06998272985219955,9.198841094970703,-3.362759828567505,-0.8689079880714417,-0.33536797761917114,-0.13719600439071655,146.70001220703125,-155.70001220703125,-27.30000114440918
1275168,0.0065795728005468845,9.1922607421875,-3.4261629581451416,-0.7850660085678101,-0.20579399168491364,-0.3582339882850647,144.3000030517578,-155.70001220703125,-27.900001525878906
1275188,0.023925717920064926,9.147400856018066,-3.237149715423584,-0.3201240003108978,-0.08384199440479279,-0.2896359860897064,139.5,-158.10000610351562,-27.30000114440918
1275208,0.21832218766212463,9.724010467529297,-3.3334507942199707,-0.08384199440479279,0.16768398880958557,-0.44969800114631653,146.70001220703125,-158.10000610351562,-27.30000114440918
1275232,0.35828763246536255,9.673168182373047,-3.2233924865722656,-0.38109999895095825,0.38109999895095825,-0.6554920077323914,137.10000610351562,-146.10000610351562,-26.700000762939453
1275252,0.0795530155301094,9.197046279907227,-3.2293739318847656,-0.571649968624115,0.6402480006217957,-0.8155539631843567,139.5,-148.5,-26.100000381469727
1275295,-0.3415396511554718,9.04093074798584,-3.168363332748413,-0.5640279650688171,1.577754020690918,-0.3887220025062561,141.90000915527344,-153.3000030517578,-27.30000114440918
1275360,-0.3828114867210388,9.062463760375977,-2.8567309379577637,-0.15243999660015106,0.7545779943466187,-0.1295740008354187,146.70001220703125,-148.5,-26.700000762939453
1275380,-0.3887929320335388,9.01401424407959,-2.825029134750366,-0.4420759975910187,0.6936019659042358,-0.09146399796009064,139.5,-150.90000915527344,-27.30000114440918
1275402,-0.45638307929039,8.774757385253906,-2.8130664825439453,-0.44969800114631653,0.571649968624115,-0.07621999830007553,146.70001220703125,-155.70001220703125,-27.900001525878906
1275422,-0.5191881060600281,8.72929859161377,-2.920732021331787,-0.2591480016708374,0.48018598556518555,0.1295740008354187,134.70001220703125,-150.90000915527344,-26.700000762939453
1275442,-0.6160872578620911,8.77415943145752,-3.1546061038970947,-0.030487999320030212,0.22103799879550934,0.10670799762010574,144.3000030517578,-155.70001220703125,-26.700000762939453
1275462,-0.45817750692367554,8.938648223876953,-3.192289113998413,0.2134159952402115,-0.2134159952402115,0.25152599811553955,141.90000915527344,-150.90000915527344,-26.700000762939453
1275484,-0.34811919927597046,9.241907119750977,-3.326871156692505,0.2591480016708374,-0.46494197845458984,0.18292799592018127,141.90000915527344,-150.90000915527344,-24.900001525878906
1275504,-0.37623193860054016,9.21319580078125,-3.2987585067749023,-0.10670799762010574,-0.6021379828453064,-0.060975998640060425,139.5,-153.3000030517578,-27.900001525878906
1275524,-0.36606350541114807,8.91352653503418,-3.299954891204834,-0.3734779953956604,-0.7317119836807251,-0.3201240003108978,137.10000610351562,-155.70001220703125,-27.30000114440918
1275544,-0.506627082824707,8.804664611816406,-3.1133341789245605,-0.48018598556518555,-0.6936019659042358,-0.1600620001554489,139.5,-153.3000030517578,-25.500001907348633
1275564,-0.8673073053359985,8.725709915161133,-3.046940326690674,-0.8917739987373352,-0.3582339882850647,-0.060975998640060425,146.70001220703125,-153.3000030517578,-26.700000762939453
1275588,-2.167072057723999,8.86687183380127,-3.109147071838379,-1.0061039924621582,0.7469559907913208,0.49542999267578125,137.10000610351562,-148.5,-26.100000381469727
1275608,-3.3196935653686523,9.5272216796875,-3.4716217517852783,-1.1585439443588257,1.425313949584961,0.46494197845458984,144.3000030517578,-153.3000030517578,-27.30000114440918
1275630,-4.4280524253845215,9.86457347869873,-3.8460593223571777,-1.371959924697876,1.8521459102630615,0.030487999320030212,137.10000610351562,-153.3000030517578,-28.500001907348633
1275650,-5.389268398284912,9.372302055358887,-4.0942888259887695,-1.6920839548110962,1.6844619512557983,-0.6554920077323914,137.10000610351562,-155.70001220703125,-27.30000114440918
1275670,-6.904364109039307,8.609071731567383,-4.036268711090088,-1.5320219993591309,1.3338500261306763,-0.6783579587936401,137.10000610351562,-150.90000915527344,-26.100000381469727
1275713,-7.2297539710998535,10.07392406463623,-4.60809326171875,-1.707327961921692,1.0747020244598389,2.995445966720581,137.10000610351562,-158.10000610351562,-27.900001525878906
1275733,-6.7889227867126465,8.709559440612793,-3.7031030654907227,-2.75154185295105,0.9603719711303711,2.0960500240325928,129.90000915527344,-155.70001220703125,-27.30000114440918
1275753,-6.109432220458984,7.273418426513672,-3.7688989639282227,-2.7591638565063477,1.6692179441452026,1.242385983467102,137.10000610351562,-155.70001220703125,-29.100000381469727
1275773,-5.048924922943115,5.850436210632324,-3.0953898429870605,-1.3643379211425781,0.16768398880958557,0.6936019659042358,132.3000030517578,-158.10000610351562,-29.100000381469727
1275793,-3.2861974239349365,5.523850440979004,-2.000190019607544,-1.4329359531402588,-0.6783579587936401,2.195136070251465,122.70000457763672,-160.5,-29.700000762939453
1275813,-0.020935004577040672,5.446690082550049,-1.2243986129760742,-2.5228819847106934,0.8993960022926331,5.259180068969727,120.30000305175781,-155.70001220703125,-30.900001525878906
1275833,0.7052105665206909,5.085411548614502,-0.8906348943710327,-3.6433160305023193,1.3567159175872803,6.082355976104736,115.50000762939453,-160.5,-29.700000762939453
1275853,2.113837242126465,5.745163440704346,-0.5891708135604858,-3.6738038063049316,3.041177988052368,10.25158977508545,108.30000305175781,-165.3000030517578,-30.900001525878906
1275873,2.7502613067626953,6.166255950927734,-0.6041244268417358,-4.00154972076416,3.0640439987182617,10.769886016845703,101.10000610351562,-162.90000915527344,-31.500001907348633
1275893,3.770693302154541,6.476692199707031,-0.6962383985519409,-3.7805118560791016,2.9268479347229004,11.234827995300293,93.9000015258789,-165.3000030517578,-32.70000076293945
1275913,4.406519412994385,6.952814102172852,-0.8015115857124329,-2.682943820953369,1.8140360116958618,10.929947853088379,81.9000015258789,-174.90000915527344,-35.10000228881836
1275953,7.3254570960998535,9.14859676361084,-1.2752407789230347,-1.8216580152511597,0.7240899801254272,11.806477546691895,53.10000228881836,-172.5,-32.70000076293945
1275973,7.7274088859558105,9.317273139953613,-1.6933428049087524,-1.0594580173492432,-0.038109999150037766,10.937569618225098,38.70000076293945,-170.10000610351562,-32.70000076293945
1275993,9.24729061126709,10.911922454833984,-1.217819094657898,-0.8841519951820374,-1.0061039924621582,10.945191383361816,33.900001525878906,-179.70001220703125,-35.10000228881836
1276013,10.18936538696289,11.531598091125488,-1.3464198112487793,-0.800309956073761,0.10670799762010574,7.6982197761535645,17.100000381469727,-174.90000915527344,-33.30000305175781
1276033,9.593615531921387,10.06495189666748,-1.8853466510772705,-0.19817200303077698,-0.3734779953956604,4.961921691894531,17.100000381469727,-170.10000610351562,-33.900001525878906
1276053,10.819210052490234,11.408380508422852,-1.6777909994125366,0.2439039945602417,-0.5945159792900085,5.434485912322998,9.90000057220459,-177.3000030517578,-33.30000305175781
1276076,10.862276077270508,12.944412231445312,-2.20296049118042,0.36585599184036255,0.2439039945602417,3.620450019836426,5.100000381469727,-174.90000915527344,-33.900001525878906
1276096,11.184675216674805,12.160246849060059,-1.3912805318832397,-0.6326259970664978,-1.4024479389190674,0.060975998640060425,7.500000476837158,-172.5,-33.900001525878906
1276118,11.078206062316895,11.140413284301758,-0.9331030249595642,0.10670799762010574,-0.06859800219535828,-1.3490939140319824,7.500000476837158,-170.10000610351562,-32.70000076293945
1276138,11.103925704956055,11.797173500061035,-1.916450023651123,1.2271419763565063,0.685979962348938,-2.682943820953369,7.500000476837158,-172.5,-31.500001907348633
1276158,10.326340675354004,11.786407470703125,-2.6073052883148193,2.2027578353881836,0.5487840175628662,-4.245453834533691,12.300000190734863,-170.10000610351562,-33.900001525878906
1276178,9.941136360168457,10.546457290649414,-2.857927083969116,1.8369019031524658,-0.800309956073761,-5.221069812774658,14.700000762939453,-172.5,-32.70000076293945
1276198,10.18936538696289,9.968650817871094,-2.497844934463501,0.8993960022926331,-1.6920839548110962,-5.922293663024902,19.5,-172.5,-32.10000228881836
1276218,10.228842735290527,9.01222038269043,-1.7944289445877075,0.5868939757347107,-0.7621999979019165,-6.6387619972229,26.700000762939453,-174.90000915527344,-32.70000076293945
1276238,8.409292221069336,7.891300201416016,-2.115631580352783,2.0655620098114014,1.1814099550247192,-7.1418137550354,33.900001525878906,-170.10000610351562,-31.500001907348633
1276258,5.961690902709961,6.672883033752441,-2.166473865509033,2.446661949157715,1.021347999572754,-8.323224067687988,41.10000228881836,-167.70001220703125,-29.700000762939453
1276279,5.246312141418457,6.190181732177734,-2.041461944580078,2.1722700595855713,0.9603719711303711,-8.673835754394531,48.30000305175781,-172.5,-30.900001525878906
1276299,4.366443634033203,5.959896564483643,-2.2185122966766357,1.7149499654769897,0.8155539631843567,-8.902495384216309,50.70000076293945,-174.90000915527344,-29.100000381469727
1276322,2.4643490314483643,4.37601375579834,-1.5641438961029053,-0.8993960022926331,-0.9984819889068604,-8.498529434204102,65.10000610351562,-172.5,-29.100000381469727
1276342,0.7704081535339355,4.681066989898682,-1.1274994611740112,-0.7088459730148315,0.007621999830007553,-7.67535400390625,81.9000015258789,-172.5,-29.100000381469727
1276362,-1.708296298980713,4.259974479675293,-0.9881321787834167,-0.685979962348938,0.7698220014572144,-8.64334774017334,84.30000305175781,-177.3000030517578,-29.700000762939453
1276382,-3.6414945125579834,5.574692726135254,-2.342926025390625,0.1600620001554489,3.0335559844970703,-7.019861698150635,89.10000610351562,-170.10000610351562,-30.900001525878906
1276402,-4.189991474151611,6.215901851654053,-3.132474660873413,0.2591480016708374,1.3109840154647827,-6.821690082550049,98.70000457763672,-167.70001220703125,-29.700000762939453
1276422,-4.3622565269470215,6.447981357574463,-2.3291687965393066,1.1509219408035278,-0.3734779953956604,-5.640279769897461,98.70000457763672,-165.3000030517578,-28.500001907348633
1276442,-4.844359874725342,8.317177772521973,-3.0744547843933105,0.6326259970664978,0.5259180068969727,-3.4375219345092773,103.50000762939453,-167.70001220703125,-29.700000762939453
1276462,-4.771386623382568,9.62651252746582,-3.71386981010437,0.038109999150037766,0.8307979702949524,-2.896359920501709,110.70000457763672,-162.90000915527344,-29.100000381469727
1276483,-4.348499298095703,9.449462890625,-3.6373074054718018,-0.007621999830007553,-0.7012239694595337,-3.8795979022979736,113.10000610351562,-160.5,-29.700000762939453
1276507,-4.219300746917725,9.018799781799316,-3.085221529006958,-0.6021379828453064,-1.0061039924621582,-3.4222779273986816,115.50000762939453,-162.90000915527344,-31.500001907348633
1276527,-3.8011984825134277,9.88550853729248,-3.9148457050323486,-0.6402480006217957,1.0518360137939453,-2.324709892272949,117.9000015258789,-158.10000610351562,-29.100000381469727
1276547,-3.5721099376678467,9.728795051574707,-4.045838832855225,0.038109999150037766,0.2972579896450043,-2.7058098316192627,120.30000305175781,-160.5,-27.900001525878906
1276567,-2.810673713684082,9.378881454467773,-3.70190691947937,0.7850660085678101,-1.92836594581604,-2.4542839527130127,120.30000305175781,-160.5,-29.700000762939453
1276588,-2.3596739768981934,9.480566024780273,-2.7137746810913086,0.7164679765701294,-1.9436099529266357,-1.295740008354187,122.70000457763672,-158.10000610351562,-31.500001907348633
1276608,-1.5916584730148315,9.905247688293457,-3.0475385189056396,0.08384199440479279,-0.15243999660015106,-0.5182960033416748,127.50000762939453,-160.5,-30.900001525878906
1276631,-1.6359210014343262,8.95838737487793,-2.980546474456787,0.33536797761917114,0.19054999947547913,-0.8689079880714417,129.90000915527344,-158.10000610351562,-29.100000381469727
1276673,-0.7668192982673645,9.334619522094727,-2.814262628555298,0.48018598556518555,0.007621999830007553,-0.9603719711303711,122.70000457763672,-162.90000915527344,-27.900001525878906
1276693,-0.518589973449707,9.069642066955566,-2.619866132736206,0.1600620001554489,0.19054999947547913,-0.9298839569091797,127.50000762939453,-160.5,-26.700000762939453
1276713,-0.2470330446958542,8.86268424987793,-2.524761438369751,-0.114329993724823,0.4878079891204834,-0.7088459730148315,132.3000030517578,-162.90000915527344,-29.100000381469727
1276736,-0.1591060310602188,9.002650260925293,-2.5319392681121826,-0.22103799879550934,0.9222619533538818,-0.2972579896450043,132.3000030517578,-155.70001220703125,-27.900001525878906
1276756,-0.5383286476135254,8.997864723205566,-2.8214404582977295,-0.15243999660015106,1.2804960012435913,-0.38109999895095825,129.90000915527344,-160.5,-27.30000114440918
1276776,-0.60352623462677,9.11270809173584,-2.969181776046753,0.12195199728012085,0.7012239694595337,-0.3201240003108978,127.50000762939453,-155.70001220703125,-28.500001907348633
1276796,-0.4444202184677124,8.897377014160156,-2.8064868450164795,0.3277460038661957,0.1600620001554489,-0.39634400606155396,132.3000030517578,-158.10000610351562,-27.30000114440918
1276816,-0.15312460064888,9.13663387298584,-2.7460744380950928,0.36585599184036255,0.10670799762010574,0.060975998640060425,132.3000030517578,-162.90000915527344,-28.500001907348633
1276838,0.07716044038534164,9.149792671203613,-2.7921314239501953,0.030487999320030212,0.16768398880958557,0.007621999830007553,127.50000762939453,-160.5,-26.700000762939453
1276858,0.008972144685685635,9.007434844970703,-2.744878053665161,0.04573199898004532,0.06859800219535828,-0.3125019967556,129.90000915527344,-158.10000610351562,-28.500001907348633
1276879,0.16807816922664642,9.165943145751953,-2.954228162765503,0.3201240003108978,0.06859800219535828,-0.36585599184036255,125.10000610351562,-155.70001220703125,-29.100000381469727
1276919,0.4402332305908203,9.30411434173584,-2.7472705841064453,0.007621999830007553,-0.33536797761917114,-0.46494197845458984,132.3000030517578,-162.90000915527344,-27.900001525878906
1276939,0.35110992193222046,9.078614234924316,-2.665325164794922,-0.2134159952402115,-0.1295740008354187,-0.5259180068969727,125.10000610351562,-158.10000610351562,-27.30000114440918
1276959,0.4324573576450348,9.316675186157227,-2.6216607093811035,-0.342989981174469,0.09146399796009064,-0.26677000522613525,122.70000457763672,-160.5,-27.900001525878906
1276979,0.32000648975372314,9.1922607421875,-2.551079750061035,-0.8079319596290588,0.3125019967556,-0.49542999267578125,127.50000762939453,-160.5,-27.30000114440918
1277000,0.20935003459453583,9.05109977722168,-2.539116859436035,-0.6631140112876892,0.41158798336982727,-0.5868939757347107,129.90000915527344,-158.10000610351562,-28.500001907348633
1277020,0.22849062085151672,8.81902027130127,-2.4757137298583984,-0.7698220014572144,0.49542999267578125,-0.5335400104522705,125.10000610351562,-155.70001220703125,-29.100000381469727
1277041,0.2661736309528351,8.850123405456543,-2.286102533340454,-0.7469559907913208,0.5182960033416748,0.02286599949002266,132.3000030517578,-165.3000030517578,-27.900001525878906
1277061,0.2763420641422272,9.2760009765625,-2.5110042095184326,-0.8231759667396545,0.6707359552383423,0.25152599811553955,125.10000610351562,-155.70001220703125,-27.30000114440918
1277081,0.1088620200753212,9.056482315063477,-2.543303966522217,-0.6631140112876892,0.4344539940357208,0.06859800219535828,125.10000610351562,-158.10000610351562,-29.100000381469727
1277101,0.19798532128334045,9.271814346313477,-2.6754934787750244,0.038109999150037766,0.06859800219535828,0.15243999660015106,127.50000762939453,-155.70001220703125,-27.30000114440918
1277121,0.40554094314575195,9.22934627532959,-2.6210625171661377,0.23628199100494385,-0.1448179930448532,0.2972579896450043,125.10000610351562,-155.70001220703125,-30.30000114440918
1277141,0.47731807827949524,9.03195858001709,-2.552276134490967,0.3125019967556,-0.09908600151538849,0.4420759975910187,125.10000610351562,-160.5,-29.100000381469727
1277164,0.5658432245254517,9.132447242736816,-2.777776002883911,0.5411620140075684,0.05335399881005287,0.6326259970664978,120.30000305175781,-153.3000030517578,-27.30000114440918
1277184,0.47193479537963867,9.108521461486816,-2.930302381515503,0.7088459730148315,0.05335399881005287,0.457319974899292,127.50000762939453,-160.5,-28.500001907348633
1277204,0.5024400949478149,9.014613151550293,-2.9913129806518555,0.8079319596290588,-0.09908600151538849,0.26677000522613525,125.10000610351562,-160.5,-29.700000762939453
1277224,0.7285381555557251,9.242505073547363,-2.9470503330230713,0.6173819899559021,-0.1295740008354187,0.2439039945602417,127.50000762939453,-160.5,-27.30000114440918
1277264,0.5688339471817017,9.12168025970459,-3.040360689163208,0.05335399881005287,0.571649968624115,-0.36585599184036255,120.30000305175781,-153.3000030517578,-28.500001907348633
1277285,0.403148353099823,8.996668815612793,-3.076249361038208,-0.19817200303077698,0.6250039935112,-0.7317119836807251,127.50000762939453,-162.90000915527344,-26.700000762939453
1277306,0.2769401967525482,9.009827613830566,-2.930302381515503,-0.35061198472976685,0.8689079880714417,-0.8079319596290588,127.50000762939453,-162.90000915527344,-27.30000114440918
1277347,-0.03708486258983612,9.001453399658203,-3.0535199642181396,-0.18292799592018127,0.8307979702949524,-1.067080020904541,122.70000457763672,-153.3000030517578,-26.100000381469727
1277368,0.010766573250293732,9.008631706237793,-3.084623336791992,0.08384199440479279,0.6783579587936401,-0.9451279640197754,134.70001220703125,-158.10000610351562,-27.900001525878906
1277388,0.022729432210326195,9.018799781799316,-2.9919111728668213,-0.05335399881005287,0.6250039935112,-0.853663980960846,129.90000915527344,-162.90000915527344,-27.30000114440918
1277408,-0.18602246046066284,8.905152320861816,-3.2048499584198,-0.07621999830007553,0.571649968624115,-0.685979962348938,125.10000610351562,-158.10000610351562,-25.500001907348633
1277428,-0.16508746147155762,8.983509063720703,-3.150418996810913,-0.04573199898004532,0.2591480016708374,-0.46494197845458984,125.10000610351562,-155.70001220703125,-24.30000114440918
1277472,-0.10467501729726791,9.156970977783203,-3.138456106185913,-0.28201398253440857,0.030487999320030212,-0.35061198472976685,125.10000610351562,-158.10000610351562,-24.900001525878906
1277492,0.01973871886730194,9.012818336486816,-2.975163221359253,-0.342989981174469,0.007621999830007553,-0.3887220025062561,129.90000915527344,-153.3000030517578,-27.30000114440918
1277512,0.042468149214982986,9.23831844329834,-2.8920211791992188,-0.38109999895095825,0.2972579896450043,-0.46494197845458984,129.90000915527344,-155.70001220703125,-26.100000381469727
1277535,-0.12381559610366821,8.725709915161133,-2.9470503330230713,-0.39634400606155396,0.48018598556518555,-0.4344539940357208,129.90000915527344,-158.10000610351562,-27.900001525878906
1277555,-0.14295616745948792,8.97812557220459,-3.1785316467285156,0.038109999150037766,0.5487840175628662,-0.12195199728012085,132.3000030517578,-158.10000610351562,-26.100000381469727
1277575,-0.0795530155301094,9.09895133972168,-3.1587929725646973,0.060975998640060425,0.4192099869251251,-0.015243999660015106,129.90000915527344,-158.10000610351562,-25.500001907348633
1277595,-0.06699201464653015,9.158764839172363,-3.135465383529663,-0.12195199728012085,0.3582339882850647,-0.04573199898004532,132.3000030517578,-162.90000915527344,-26.700000762939453
1277618,0.009570287540555,9.174915313720703,-3.192289113998413,-0.36585599184036255,0.3201240003108978,-0.1295740008354187,129.90000915527344,-155.70001220703125,-26.100000381469727
1277638,0.07895487546920776,9.07681941986084,-3.1791298389434814,-0.33536797761917114,0.228659987449646,-0.19817200303077698,127.50000762939453,-160.5,-27.900001525878906
1277659,0.23207947611808777,9.06007194519043,-2.9937055110931396,-0.2896359860897064,0.19817200303077698,-0.23628199100494385,122.70000457763672,-153.3000030517578,-27.30000114440918
1277679,0.25959405303001404,9.156373023986816,-2.9285080432891846,-0.35061198472976685,0.46494197845458984,-0.342989981174469,127.50000762939453,-158.10000610351562,-27.900001525878906
1277699,0.3176139295101166,9.080408096313477,-2.9608078002929688,-0.6173819899559021,0.7012239694595337,-0.5030519962310791,129.90000915527344,-155.70001220703125,-26.100000381469727
1277722,0.2781364917755127,9.13364315032959,-2.945255994796753,-0.5259180068969727,0.8765299916267395,-0.5564059615135193,129.90000915527344,-160.5,-27.30000114440918
1277742,0.15312460064888,9.17252254486084,-2.9111618995666504,-0.49542999267578125,0.8841519951820374,-0.5487840175628662,132.3000030517578,-158.10000610351562,-26.100000381469727
1277763,0.11364716291427612,8.98410701751709,-2.795720338821411,-0.6478700041770935,0.7545779943466187,-0.510673999786377,134.70001220703125,-158.10000610351562,-26.700000762939453
1277783,0.08912330120801926,9.03494930267334,-2.8190479278564453,-0.6173819899559021,0.7469559907913208,-0.46494197845458984,134.70001220703125,-153.3000030517578,-25.500001907348633
1277825,-0.009570287540555,8.97334098815918,-2.8088793754577637,-0.2743920087814331,0.3125019967556,-0.5945159792900085,132.3000030517578,-150.90000915527344,-27.30000114440918
1277846,0.04725329577922821,9.02119255065918,-2.8363940715789795,0.007621999830007553,0.1295740008354187,-0.5030519962310791,127.50000762939453,-162.90000915527344,-28.500001907348633
1277866,0.09390844404697418,8.927882194519043,-2.7550466060638428,-0.1295740008354187,-0.015243999660015106,-0.3201240003108978,129.90000915527344,-160.5,-26.700000762939453
1277886,0.12860073149204254,9.091175079345703,-2.859123468399048,-0.015243999660015106,0.06859800219535828,-0.2743920087814331,132.3000030517578,-158.10000610351562,-27.900001525878906
1277906,0.10407687723636627,9.00025749206543,-2.893815755844116,-0.09146399796009064,0.007621999830007553,-0.36585599184036255,137.10000610351562,-155.70001220703125,-27.30000114440918
1277926,0.21293890476226807,8.921302795410156,-2.872880697250366,0.015243999660015106,-0.015243999660015106,-0.3887220025062561,127.50000762939453,-155.70001220703125,-24.900001525878906
1277946,0.19080761075019836,8.871058464050293,-2.8746750354766846,0.015243999660015106,0.09146399796009064,-0.3048799932003021,127.50000762939453,-160.5,-26.700000762939453
1277966,0.12680630385875702,9.305908203125,-3.010453462600708,0.114329993724823,0.23628199100494385,-0.4344539940357208,132.3000030517578,-153.3000030517578,-27.900001525878906
1277987,-0.03828115016222,8.857300758361816,-3.046940326690674,-0.36585599184036255,0.02286599949002266,-0.8689079880714417,129.90000915527344,-160.5,-27.30000114440918
1278011,-0.0927121639251709,8.944031715393066,-3.1647744178771973,0.342989981174469,-0.09908600151538849,-0.5868939757347107,134.70001220703125,-155.70001220703125,-25.500001907348633
1278031,-0.052636582404375076,9.080408096313477,-3.1456339359283447,0.18292799592018127,-0.3277460038661957,-0.3887220025062561,134.70001220703125,-148.5,-25.500001907348633
1278055,-0.008972144685685635,9.113306045532227,-3.085221529006958,0.12195199728012085,-0.19817200303077698,-0.46494197845458984,134.70001220703125,-158.10000610351562,-26.700000762939453
1278075,0.008972144685685635,9.200634956359863,-3.1522135734558105,-0.2439039945602417,-0.05335399881005287,-0.7012239694595337,137.10000610351562,-153.3000030517578,-25.500001907348633
1278095,-0.09091772884130478,9.113306045532227,-3.174344778060913,-0.07621999830007553,0.1600620001554489,-0.9527499675750732,134.70001220703125,-155.70001220703125,-27.30000114440918
1278115,-0.10228244960308075,8.83576774597168,-3.070267915725708,-0.228659987449646,0.2972579896450043,-0.9298839569091797,132.3000030517578,-155.70001220703125,-26.700000762939453
1278137,-0.07536601275205612,9.018799781799316,-3.0541179180145264,-0.1600620001554489,0.5487840175628662,-0.6783579587936401,139.5,-153.3000030517578,-27.900001525878906
1278157,-0.17346146702766418,9.049304962158203,-3.0888102054595947,-0.2743920087814331,0.8155539631843567,-0.6478700041770935,134.70001220703125,-158.10000610351562,-24.900001525878906
1278177,-0.14235801994800568,9.042725563049316,-3.1007730960845947,-0.39634400606155396,0.8231759667396545,-0.6783579587936401,139.5,-153.3000030517578,-27.30000114440918
1278198,-0.2237054705619812,8.905750274658203,-3.0774455070495605,-0.4039659798145294,0.8079319596290588,-0.5564059615135193,137.10000610351562,-153.3000030517578,-26.700000762939453
