time,sensor_accX[g],sensor_accY[g],sensor_accZ[g],sensor_gyroX[°/s],sensor_gyroY[°/s],sensor_gyroZ[°/s],sensor_magX[µT],sensor_magY[µT],sensor_magZ[µT]
1000009,-3.3196935653686523,9.152185440063477,-2.372235059738159,1.0823240280151367,-2.439039945602417,1.5701320171356201,189.90000915527344,-136.5,-25.500001907348633
1000032,-3.228177547454834,9.512866020202637,-2.522368907928467,1.3033620119094849,-3.49849796295166,1.6082419157028198,185.10000610351562,-134.10000610351562,-24.900001525878906
1000052,-2.9338912963867188,9.40938663482666,-2.172455310821533,2.0045859813690186,-5.350644111633301,2.0655620098114014,182.70001220703125,-141.3000030517578,-24.900001525878906
1000074,-2.4045348167419434,7.978031158447266,-1.0264133214950562,1.8369019031524658,-7.96498966217041,2.7210538387298584,185.10000610351562,-136.5,-24.900001525878906
1000094,-2.119818687438965,6.564021110534668,0.8834571838378906,1.9131219387054443,-10.099149703979492,3.7957558631896973,175.5,-136.5,-24.900001525878906
1000114,-1.7711013555526733,6.916925430297852,1.85543954372406,3.0869100093841553,-9.809514045715332,4.5427117347717285,175.5,-141.3000030517578,-26.100000381469727
1000134,-2.1180243492126465,7.134649276733398,1.0455539226531982,4.771371841430664,-10.381163597106934,2.6067240238189697,175.5,-141.3000030517578,-27.900001525878906
1000197,-1.6999223232269287,6.518562316894531,-1.4020471572875977,10.487872123718262,-16.70742416381836,2.949713945388794,175.5,-143.70001220703125,-25.500001907348633
1000217,-2.7729907035827637,6.227266311645508,-3.0828287601470947,8.506152153015137,-15.495525360107422,2.439039945602417,177.90000915527344,-143.70001220703125,-26.100000381469727
1000237,-3.4949493408203125,5.679367542266846,-4.658935546875,8.00309944152832,-15.983333587646484,2.1036720275878906,170.70001220703125,-138.90000915527344,-24.900001525878906
1000299,-2.125201940536499,11.072822570800781,-11.099739074707031,5.403997898101807,-16.44827651977539,12.233309745788574,163.5,-138.90000915527344,-26.100000381469727
1000340,-2.0402655601501465,9.866368293762207,-8.99008846282959,1.5625100135803223,-14.298871994018555,3.254593849182129,153.90000915527344,-146.10000610351562,-27.30000114440918
1000375,-1.6119953393936157,12.593900680541992,-9.22037410736084,-0.3201240003108978,-8.247003555297852,3.666181802749634,151.5,-143.70001220703125,-28.500001907348633
1000399,-1.0796480178833008,13.348158836364746,-8.694007873535156,-1.2881180047988892,-6.029001712799072,1.0594580173492432,158.70001220703125,-148.5,-29.700000762939453
1000441,-2.840580940246582,10.803060531616211,-9.127063751220703,0,5.282045841217041,-2.545747995376587,158.70001220703125,-148.5,-27.30000114440918
1000461,-2.3740293979644775,11.498700141906738,-10.09366226196289,0.2134159952402115,5.914671897888184,-1.2042759656906128,153.90000915527344,-148.5,-27.900001525878906
1000483,-2.24183988571167,11.383856773376465,-8.942835807800293,-2.591480016708374,5.4573516845703125,-1.7301939725875854,156.3000030517578,-143.70001220703125,-28.500001907348633
1000503,-2.6922414302825928,10.417258262634277,-8.647353172302246,-3.6280720233917236,10.78512954711914,-1.189031958580017,161.10000610351562,-146.10000610351562,-28.500001907348633
1000563,-2.5415093898773193,9.254467964172363,-5.5280375480651855,-6.486321926116943,10.82323932647705,0.9451279640197754,156.3000030517578,-143.70001220703125,-29.700000762939453
1000618,-1.5880695581436157,6.786530017852783,-3.675588607788086,-5.137228012084961,15.304975509643555,0.6021379828453064,144.3000030517578,-148.5,-28.500001907348633
1000638,-0.9570287466049194,7.119097709655762,-2.522368907928467,-5.1067399978637695,15.92997932434082,0.7164679765701294,144.3000030517578,-155.70001220703125,-30.30000114440918
1000681,-0.5455064177513123,7.32605504989624,-2.990116596221924,-4.413137912750244,18.590057373046875,-1.699705958366394,146.70001220703125,-150.90000915527344,-27.30000114440918
1000701,-0.5891708135604858,6.8098578453063965,-2.7341115474700928,-3.9481959342956543,17.340049743652344,-3.1859958171844482,149.10000610351562,-155.70001220703125,-27.30000114440918
1000721,-0.5724228024482727,6.363044738769531,-2.316607713699341,-3.2317278385162354,16.044309616088867,-4.032037734985352,149.10000610351562,-155.70001220703125,-26.700000762939453
1000741,-0.6567609906196594,5.978438854217529,-2.024115800857544,-2.957335948944092,14.88576602935791,-4.78661584854126,153.90000915527344,-143.70001220703125,-26.700000762939453
1000764,-0.37144678831100464,6.68664026260376,-1.5545735359191895,-1.9436099529266357,13.224169731140137,-4.496979713439941,151.5,-155.70001220703125,-24.900001525878906
1000784,-0.1985834687948227,7.37689733505249,-1.5796955823898315,-2.942091941833496,12.698251724243164,-5.083873748779297,156.3000030517578,-143.70001220703125,-24.30000114440918
1000804,-1.21303391456604,6.015523910522461,-2.164679527282715,-3.4756319522857666,12.477213859558105,-5.739366054534912,158.70001220703125,-143.70001220703125,-23.700000762939453
1000824,-1.1891082525253296,6.904364109039307,-2.2286806106567383,-1.7149499654769897,9.885733604431152,-3.8491098880767822,158.70001220703125,-146.10000610351562,-23.100000381469727
1000844,-1.6251544952392578,7.413981914520264,-2.23884916305542,-1.6158639192581177,8.437553405761719,-3.559473991394043,163.5,-143.70001220703125,-23.700000762939453
1000867,-2.253204584121704,7.40680456161499,-2.528350353240967,-1.242385983467102,7.042727947235107,-3.361301898956299,161.10000610351562,-141.3000030517578,-23.100000381469727
1000887,-1.9116649627685547,8.219680786132812,-2.846562385559082,-0.4344539940357208,4.939055919647217,-2.743919849395752,165.90000915527344,-138.90000915527344,-23.100000381469727
1000909,-1.7788771390914917,8.60069751739502,-2.7400929927825928,-0.3582339882850647,3.5823400020599365,-2.599102020263672,170.70001220703125,-138.90000915527344,-21.900001525878906
1000929,-1.7489700317382812,8.954200744628906,-3.1318767070770264,-0.2743920087814331,2.591480016708374,-2.278977870941162,168.3000030517578,-134.10000610351562,-21.900001525878906
1000950,-1.727436900138855,9.01820182800293,-2.920732021331787,0.09146399796009064,1.1509219408035278,-2.225623846054077,170.70001220703125,-141.3000030517578,-20.700000762939453
1000971,-1.6472856998443604,10.09067153930664,-2.963200330734253,-0.571649968624115,0.46494197845458984,-1.600619912147522,173.10000610351562,-136.5,-20.700000762939453
1000991,-1.8859448432922363,9.96326732635498,-2.9500410556793213,-0.7317119836807251,0.36585599184036255,-2.1189160346984863,170.70001220703125,-136.5,-20.700000762939453
1001011,-1.933198094367981,10.136130332946777,-2.843571662902832,-0.18292799592018127,-0.7698220014572144,-1.8597679138183594,170.70001220703125,-136.5,-22.5
1001031,-1.7609329223632812,9.95429515838623,-2.5026302337646484,-1.067080020904541,-1.0442140102386475,-1.6692179441452026,180.3000030517578,-136.5,-20.700000762939453
1001093,-1.7076982259750366,9.73118782043457,-2.489470958709717,-0.9222619533538818,-1.478667974472046,-0.08384199440479279,180.3000030517578,-138.90000915527344,-21.30000114440918
1001113,-1.532442331314087,9.685131072998047,-2.5708184242248535,-0.6478700041770935,-1.9893419742584229,-0.3201240003108978,180.3000030517578,-134.10000610351562,-22.5
1001133,-1.3392421007156372,9.36273193359375,-2.3680479526519775,-0.5182960033416748,-2.4085519313812256,-0.4192099869251251,180.3000030517578,-138.90000915527344,-23.100000381469727
1001153,-1.2255949974060059,9.29215145111084,-2.3919737339019775,-0.3048799932003021,-2.492393970489502,-0.3277460038661957,182.70001220703125,-131.70001220703125,-24.900001525878906
1001173,-1.1956877708435059,8.794496536254883,-2.1539127826690674,-0.3125019967556,-2.75154185295105,-0.19054999947547913,170.70001220703125,-131.70001220703125,-24.30000114440918
1001193,-1.1723601818084717,8.540285110473633,-2.173053503036499,-0.3048799932003021,-2.439039945602417,0.2134159952402115,180.3000030517578,-131.70001220703125,-24.900001525878906
1001213,-1.2471281290054321,8.71733570098877,-2.543303966522217,0,-2.2027578353881836,0.3734779953956604,180.3000030517578,-136.5,-23.700000762939453
1001235,-1.3392421007156372,8.838160514831543,-2.834001302719116,0.2896359860897064,-2.332331895828247,0.2591480016708374,182.70001220703125,-134.10000610351562,-25.500001907348633
1001255,-1.3440272808074951,8.63180160522461,-2.787346363067627,0.36585599184036255,-2.690565824508667,0.1600620001554489,185.10000610351562,-141.3000030517578,-24.900001525878906
1001276,-1.3224941492080688,8.60787582397461,-2.8657028675079346,0.4039659798145294,-2.5152599811553955,0.342989981174469,180.3000030517578,-141.3000030517578,-24.900001525878906
1001296,-1.4481041431427002,8.870460510253906,-3.1737465858459473,0.46494197845458984,-2.195136070251465,0.36585599184036255,173.10000610351562,-136.5,-24.30000114440918
1001316,-1.6239581108093262,9.167737007141113,-3.493155002593994,0.7240899801254272,-2.339953899383545,0.12195199728012085,182.70001220703125,-129.3000030517578,-24.900001525878906
1001336,-1.741194248199463,8.93147087097168,-3.317898988723755,0.5411620140075684,-2.797273874282837,-0.26677000522613525,175.5,-136.5,-25.500001907348633
1001356,-1.636519193649292,8.788515090942383,-3.2233924865722656,0.46494197845458984,-2.5762360095977783,-0.1600620001554489,173.10000610351562,-136.5,-24.30000114440918
1001376,-1.741194248199463,8.83277702331543,-3.2239906787872314,0.19054999947547913,-2.073184013366699,0.08384199440479279,177.90000915527344,-136.5,-25.500001907348633
1001396,-1.84347665309906,8.926685333251953,-3.270047664642334,0.1448179930448532,-1.653973937034607,0.06859800219535828,180.3000030517578,-131.70001220703125,-24.900001525878906
1001420,-1.8769726753234863,9.02597713470459,-3.4506866931915283,0.23628199100494385,-1.2804960012435913,0.1448179930448532,180.3000030517578,-138.90000915527344,-26.100000381469727
1001440,-1.6981278657913208,8.902161598205566,-3.2622718811035156,0.2743920087814331,-1.2271419763565063,0.26677000522613525,177.90000915527344,-136.5,-26.700000762939453
1001460,-1.5713216066360474,8.95240592956543,-3.2293739318847656,0.07621999830007553,-0.7545779943466187,0.6021379828453064,175.5,-138.90000915527344,-24.30000114440918
1001480,-1.5581624507904053,8.956592559814453,-3.386685609817505,-0.07621999830007553,-0.48018598556518555,0.6021379828453064,180.3000030517578,-136.5,-24.900001525878906
1001500,-1.4074304103851318,9.078614234924316,-3.2353553771972656,0,-0.49542999267578125,0.6478700041770935,177.90000915527344,-141.3000030517578,-26.700000762939453
1001520,-1.126901388168335,9.276598930358887,-3.1707558631896973,-0.4039659798145294,-0.3734779953956604,0.4725639820098877,175.5,-141.3000030517578,-24.900001525878906
1001540,-1.1586029529571533,8.888404846191406,-3.0385663509368896,-0.853663980960846,-0.04573199898004532,0.2743920087814331,175.5,-138.90000915527344,-25.500001907348633
1001562,-1.0868257284164429,9.019397735595703,-3.0331830978393555,-0.6707359552383423,0.22103799879550934,0.342989981174469,180.3000030517578,-138.90000915527344,-27.30000114440918
1001582,-1.120919942855835,9.008631706237793,-2.9470503330230713,-0.6478700041770935,0.5182960033416748,0.10670799762010574,175.5,-141.3000030517578,-26.100000381469727
1001602,-1.1304901838302612,9.01102352142334,-2.897404670715332,-0.5945159792900085,0.685979962348938,0,177.90000915527344,-141.3000030517578,-25.500001907348633
1001622,-1.019235610961914,8.926685333251953,-2.7729907035827637,-0.6326259970664978,0.8231759667396545,-0.09146399796009064,180.3000030517578,-141.3000030517578,-27.30000114440918
1001642,-1.0096653699874878,8.88182544708252,-2.7412891387939453,-0.6783579587936401,1.1661659479141235,-0.09146399796009064,175.5,-138.90000915527344,-27.30000114440918
1001666,-1.0491427183151245,8.918312072753906,-2.769402027130127,-0.6097599864006042,1.2881180047988892,-0.17530599236488342,175.5,-131.70001220703125,-28.500001907348633
1001686,-1.135873556137085,8.829188346862793,-2.756840944290161,-0.5792719721794128,1.371959924697876,-0.2896359860897064,177.90000915527344,-138.90000915527344,-25.500001907348633
1001708,-1.1538177728652954,8.776552200317383,-2.863908529281616,-0.36585599184036255,1.3338500261306763,-0.3734779953956604,175.5,-138.90000915527344,-24.900001525878906
1001728,-1.0742647647857666,8.959583282470703,-2.8686935901641846,-0.228659987449646,1.2728739976882935,-0.3201240003108978,173.10000610351562,-129.3000030517578,-26.100000381469727
1001748,-1.104171872138977,9.003846168518066,-2.858525276184082,-0.35061198472976685,1.3186060190200806,-0.5182960033416748,175.5,-134.10000610351562,-29.100000381469727
1001768,-1.0712740421295166,8.942237854003906,-2.859123468399048,-0.41158798336982727,1.3338500261306763,-0.7164679765701294,173.10000610351562,-138.90000915527344,-25.500001907348633
1001789,-1.018039345741272,9.055286407470703,-2.8543381690979004,-0.342989981174469,1.524399995803833,-0.8231759667396545,175.5,-136.5,-25.500001907348633
1001809,-1.0874239206314087,9.200634956359863,-2.9111618995666504,-0.3582339882850647,1.7301939725875854,-1.1128119230270386,177.90000915527344,-131.70001220703125,-26.700000762939453
1001831,-1.21901535987854,9.07083797454834,-2.984135389328003,-0.46494197845458984,1.8902559280395508,-1.3033620119094849,180.3000030517578,-141.3000030517578,-25.500001907348633
1001851,-1.4014489650726318,8.794496536254883,-2.9494431018829346,-0.426831990480423,1.882633924484253,-1.3567159175872803,180.3000030517578,-136.5,-27.30000114440918
1001871,-1.5150961875915527,8.88062858581543,-2.911760091781616,-0.16768398880958557,1.8216580152511597,-1.1585439443588257,175.5,-136.5,-26.700000762939453
1001931,-1.6269488334655762,8.945228576660156,-3.028397798538208,-0.15243999660015106,1.2881180047988892,-0.7469559907913208,175.5,-136.5,-26.100000381469727
1001952,-1.5880695581436157,8.923694610595703,-2.960209608078003,-0.12195199728012085,1.1356779336929321,-0.571649968624115,177.90000915527344,-136.5,-25.500001907348633
1001994,-1.6269488334655762,8.96317195892334,-2.8920211791992188,-0.1448179930448532,0.8079319596290588,-0.3582339882850647,180.3000030517578,-136.5,-24.30000114440918
1002034,-1.732222080230713,8.701186180114746,-2.902787923812866,-0.39634400606155396,0.12195199728012085,-0.2439039945602417,180.3000030517578,-131.70001220703125,-26.100000381469727
1002120,-1.7549514770507812,9.66838264465332,-2.3620665073394775,-0.02286599949002266,-0.510673999786377,-0.18292799592018127,175.5,-136.5,-24.30000114440918
1002141,-2.2197086811065674,10.10861587524414,-2.5145931243896484,-0.6554920077323914,0.36585599184036255,-1.0975680351257324,180.3000030517578,-134.10000610351562,-24.900001525878906
1002181,-2.0402655601501465,9.290356636047363,-2.540313243865967,-1.3872039318084717,-1.8140360116958618,-1.3795819282531738,177.90000915527344,-134.10000610351562,-26.100000381469727
1002201,-2.3590757846832275,7.293755531311035,-1.4110193252563477,-2.1036720275878906,-2.652456045150757,0.342989981174469,182.70001220703125,-134.10000610351562,-27.30000114440918
1002221,-2.21791410446167,7.975040435791016,-1.196884036064148,-1.9054999351501465,-2.987823963165283,2.7286758422851562,182.70001220703125,-136.5,-27.900001525878906
1002245,-3.2090370655059814,7.591630458831787,-0.8696998953819275,0.3201240003108978,-6.036623954772949,2.4542839527130127,177.90000915527344,-136.5,-28.500001907348633
1002307,-2.5881645679473877,6.62981653213501,0.7979227304458618,5.007653713226318,-16.128150939941406,0.4725639820098877,177.90000915527344,-141.3000030517578,-29.700000762939453
1002327,-2.2753357887268066,6.925897598266602,1.1520233154296875,6.737847805023193,-17.652551651000977,0.7926880121231079,182.70001220703125,-143.70001220703125,-29.700000762939453
1002347,-2.4003477096557617,6.4192705154418945,1.2674649953842163,6.74547004699707,-18.155603408813477,-0.09146399796009064,177.90000915527344,-141.3000030517578,-30.30000114440918
1002367,-2.6336236000061035,5.497531890869141,1.0204318761825562,7.56864595413208,-19.077865600585938,-0.8917739987373352,180.3000030517578,-141.3000030517578,-30.30000114440918
1002387,-3.1097452640533447,4.341919898986816,1.0323947668075562,8.437553405761719,-19.512319564819336,-0.7850660085678101,180.3000030517578,-136.5,-30.30000114440918
1002410,-3.0242109298706055,5.005858421325684,-0.24523861706256866,9.077801704406738,-17.484867095947266,1.4481799602508545,187.5,-141.3000030517578,-31.500001907348633
1002433,-3.484182834625244,6.357063293457031,-1.9828439950942993,9.443657875061035,-16.989437103271484,1.9207439422607422,187.5,-141.3000030517578,-31.500001907348633
1002453,-4.0554094314575195,5.379697799682617,-2.8447680473327637,7.690598011016846,-16.53211784362793,1.478667974472046,182.70001220703125,-138.90000915527344,-28.500001907348633
1002473,-5.218199253082275,4.018324375152588,-4.323975563049316,6.631139755249023,-12.919289588928223,0.38109999895095825,180.3000030517578,-134.10000610351562,-32.10000228881836
1002493,-5.773275852203369,4.547680854797363,-7.025189399719238,10.525981903076172,-11.242449760437012,2.995445966720581,180.3000030517578,-136.5,-29.100000381469727
1002533,-3.3430211544036865,12.718912124633789,-8.954200744628906,4.67990779876709,-6.699738025665283,3.2164838314056396,165.90000915527344,-146.10000610351562,-29.700000762939453
1002595,-2.6013238430023193,14.787290573120117,-10.346078872680664,2.225623846054077,-1.417691946029663,1.7454379796981812,168.3000030517578,-138.90000915527344,-30.30000114440918
1002660,-3.228177547454834,12.505972862243652,-11.861773490905762,-1.9969639778137207,1.371959924697876,-0.09908600151538849,168.3000030517578,-134.10000610351562,-27.30000114440918
1002681,-3.237149715423584,11.163740158081055,-10.365219116210938,-3.7728898525238037,3.048799991607666,-2.1189160346984863,165.90000915527344,-143.70001220703125,-26.700000762939453
1002721,-3.6552517414093018,9.141419410705566,-10.572176933288574,-5.952781677246094,10.297321319580078,0.49542999267578125,163.5,-136.5,-26.100000381469727
1002741,-3.5691192150115967,8.738868713378906,-9.326245307922363,-7.347607612609863,5.838451862335205,1.417691946029663,161.10000610351562,-141.3000030517578,-26.700000762939453
1002761,-3.3902742862701416,8.230446815490723,-6.406111240386963,-8.788166046142578,4.4436259269714355,1.646351933479309,158.70001220703125,-141.3000030517578,-28.500001907348633
1002781,-3.505715847015381,7.2148003578186035,-4.980138301849365,-8.224138259887695,10.678421974182129,1.3033620119094849,158.70001220703125,-146.10000610351562,-29.100000381469727
1002841,-2.2071475982666016,6.750641345977783,-2.5319392681121826,-7.78206205368042,11.844587326049805,1.753059983253479,156.3000030517578,-148.5,-29.700000762939453
1002861,-2.170062780380249,6.154891014099121,-2.9075729846954346,-7.378095626831055,15.228755950927734,0.6173819899559021,151.5,-155.70001220703125,-30.900001525878906
1002904,-1.5061240196228027,6.65374231338501,-2.0522284507751465,-5.426863670349121,12.766849517822266,0.02286599949002266,141.90000915527344,-153.3000030517578,-32.10000228881836
1002926,-1.3135219812393188,6.370222568511963,-1.9290111064910889,-4.900945663452148,12.050381660461426,-0.7545779943466187,149.10000610351562,-155.70001220703125,-30.900001525878906
1002947,-0.6782941222190857,6.980926513671875,-1.2883999347686768,-3.871975898742676,10.617445945739746,-0.6097599864006042,151.5,-158.10000610351562,-32.10000228881836
1002967,0.4797106683254242,8.47628402709961,-0.5754135251045227,-4.664663791656494,9.725671768188477,-0.6554920077323914,146.70001220703125,-150.90000915527344,-30.30000114440918
1002987,-0.3505117893218994,6.223677635192871,-1.1334809064865112,-4.8552141189575195,12.774471282958984,-2.5533699989318848,149.10000610351562,-150.90000915527344,-30.900001525878906
1003008,-0.14833945035934448,7.003655910491943,-0.9671971797943115,-4.047281742095947,12.080869674682617,-1.7149499654769897,153.90000915527344,-148.5,-29.700000762939453
1003028,0.1561153084039688,8.028873443603516,-1.010263442993164,-3.6356940269470215,11.89031982421875,-1.9512319564819336,153.90000915527344,-150.90000915527344,-29.700000762939453
1003051,-0.4707385301589966,7.575480937957764,-1.1729583740234375,-3.2774598598480225,11.448244094848633,-2.7744078636169434,151.5,-148.5,-30.30000114440918
1003071,-0.7004254460334778,7.21360445022583,-1.009067177772522,-2.6219680309295654,10.480249404907227,-3.102154016494751,151.5,-146.10000610351562,-29.100000381469727
1003092,-0.503038227558136,8.335122108459473,-0.9594213366508484,-1.5701320171356201,9.504633903503418,-2.698187828063965,153.90000915527344,-148.5,-29.700000762939453
1003153,-1.4074304103851318,8.92848014831543,-1.412813663482666,-1.2042759656906128,6.448211669921875,-3.612828016281128,165.90000915527344,-148.5,-29.100000381469727
1003198,-1.9954049587249756,9.65641975402832,-2.0043771266937256,-0.5030519962310791,5.25155782699585,-2.789651870727539,165.90000915527344,-141.3000030517578,-26.700000762939453
1003218,-2.1981754302978516,9.878331184387207,-2.4015440940856934,-0.1600620001554489,3.955817937850952,-2.682943820953369,168.3000030517578,-143.70001220703125,-27.30000114440918
1003258,-1.9415720701217651,10.05777359008789,-2.563042640686035,0.26677000522613525,1.4862899780273438,-2.1112940311431885,173.10000610351562,-138.90000915527344,-27.900001525878906
1003278,-1.8913280963897705,9.79399299621582,-2.501433849334717,0.19817200303077698,0.6326259970664978,-1.1509219408035278,170.70001220703125,-138.90000915527344,-27.30000114440918
1003298,-1.9660959243774414,9.73238468170166,-2.589959144592285,0.030487999320030212,0.510673999786377,-1.0061039924621582,175.5,-138.90000915527344,-25.500001907348633
1003322,-1.845271110534668,9.327441215515137,-2.6031181812286377,-0.060975998640060425,-0.09908600151538849,-0.49542999267578125,173.10000610351562,-143.70001220703125,-26.100000381469727
1003342,-1.7705031633377075,8.930274963378906,-2.4703304767608643,-0.09146399796009064,-0.4725639820098877,-0.28201398253440857,177.90000915527344,-134.10000610351562,-27.30000114440918
1003362,-1.508516550064087,8.77715015411377,-2.357879638671875,0.030487999320030212,-0.7164679765701294,0.18292799592018127,173.10000610351562,-141.3000030517578,-25.500001907348633
1003382,-1.2740445137023926,8.709559440612793,-2.292083978652954,0.2439039945602417,-0.8155539631843567,0.44969800114631653,173.10000610351562,-138.90000915527344,-24.30000114440918
1003402,-1.0957978963851929,8.769373893737793,-2.2944765090942383,0.35061198472976685,-0.6478700041770935,0.6554920077323914,175.5,-141.3000030517578,-26.100000381469727
1003422,-0.9875340461730957,9.021790504455566,-2.4188902378082275,0.6173819899559021,-0.571649968624115,0.6173819899559021,170.70001220703125,-136.5,-26.700000762939453
1003443,-0.8302224278450012,9.29693603515625,-2.6330254077911377,0.8689079880714417,-0.5335400104522705,0.3277460038661957,177.90000915527344,-136.5,-25.500001907348633
1003464,-1.0826387405395508,9.22934627532959,-2.7855517864227295,0.853663980960846,-0.5411620140075684,0.06859800219535828,175.5,-138.90000915527344,-24.900001525878906
1003484,-1.2584928274154663,8.805262565612793,-2.903385877609253,0.9527499675750732,-0.7621999979019165,-0.09146399796009064,177.90000915527344,-141.3000030517578,-27.30000114440918
1003507,-1.117929220199585,9.3836669921875,-2.8011035919189453,1.4481799602508545,-1.196653962135315,0.19054999947547913,168.3000030517578,-141.3000030517578,-27.30000114440918
1003527,-1.1789398193359375,9.494921684265137,-3.088212251663208,0.8384199738502502,-1.1585439443588257,-0.2439039945602417,175.5,-138.90000915527344,-24.900001525878906
1003567,-1.2393522262573242,9.09895133972168,-2.780766725540161,0.4420759975910187,-1.5472660064697266,-0.33536797761917114,170.70001220703125,-136.5,-26.700000762939453
1003587,-1.2590909004211426,8.70836353302002,-2.5863702297210693,0.16768398880958557,-1.3109840154647827,-0.07621999830007553,175.5,-138.90000915527344,-26.100000381469727
1003608,-1.3655604124069214,8.942237854003906,-2.6479790210723877,0.06859800219535828,-0.8460419774055481,0.1448179930448532,170.70001220703125,-136.5,-26.100000381469727
1003628,-1.4510948657989502,8.98530387878418,-2.6479790210723877,0.038109999150037766,-0.853663980960846,0.02286599949002266,180.3000030517578,-138.90000915527344,-27.30000114440918
1003650,-1.4624595642089844,9.102540016174316,-2.667717695236206,0.060975998640060425,-0.800309956073761,0.060975998640060425,177.90000915527344,-143.70001220703125,-26.100000381469727
1003670,-1.4654502868652344,9.123475074768066,-2.655754804611206,0.02286599949002266,-0.7240899801254272,0.038109999150037766,170.70001220703125,-143.70001220703125,-25.500001907348633
1003690,-1.532442331314087,9.127063751220703,-2.780766725540161,0.07621999830007553,-0.6326259970664978,0.08384199440479279,175.5,-136.5,-25.500001907348633
1003710,-1.5946491956710815,9.02597713470459,-2.7981128692626953,0.1295740008354187,-0.6936019659042358,0.20579399168491364,170.70001220703125,-138.90000915527344,-26.700000762939453
1003730,-1.4522911310195923,9.28916072845459,-2.962602138519287,0.3887220025062561,-0.6173819899559021,0.2439039945602417,170.70001220703125,-138.90000915527344,-25.500001907348633
1003792,-1.0922091007232666,8.99606990814209,-2.9380781650543213,0.114329993724823,-0.342989981174469,0.38109999895095825,175.5,-143.70001220703125,-26.100000381469727
1003814,-0.9887303113937378,8.98231315612793,-2.956620693206787,0,-0.04573199898004532,0.19817200303077698,175.5,-136.5,-26.700000762939453
1003834,-0.9307104349136353,8.98410701751709,-3.0421552658081055,-0.030487999320030212,0.060975998640060425,-0.05335399881005287,170.70001220703125,-141.3000030517578,-26.100000381469727
1003854,-0.9002051949501038,8.749635696411133,-2.9793500900268555,-0.13719600439071655,0.2134159952402115,-0.23628199100494385,173.10000610351562,-143.70001220703125,-26.100000381469727
1003874,-0.9049903154373169,8.900965690612793,-2.9913129806518555,-0.12195199728012085,0.4039659798145294,-0.26677000522613525,168.3000030517578,-138.90000915527344,-26.100000381469727
1003914,-1.006076455116272,8.92848014831543,-3.1288859844207764,-0.038109999150037766,0.5792719721794128,-0.6402480006217957,165.90000915527344,-141.3000030517578,-26.700000762939453
1003934,-1.0569186210632324,9.05588436126709,-3.103165626525879,-0.06859800219535828,0.5792719721794128,-0.7774440050125122,170.70001220703125,-136.5,-26.700000762939453
1003955,-1.0946016311645508,8.935059547424316,-3.063688278198242,-0.3048799932003021,0.7317119836807251,-0.853663980960846,173.10000610351562,-141.3000030517578,-26.700000762939453
1003975,-1.0898164510726929,8.894386291503906,-3.0451457500457764,-0.4344539940357208,0.9603719711303711,-0.8765299916267395,170.70001220703125,-138.90000915527344,-27.30000114440918
1004038,-1.529451608657837,8.298635482788086,-2.5325372219085693,-0.16768398880958557,0.9298839569091797,-1.1661659479141235,175.5,-141.3000030517578,-26.700000762939453
1004060,-1.2854092121124268,8.677260398864746,-2.2514102458953857,0.7698220014572144,1.0442140102386475,-0.5487840175628662,177.90000915527344,-131.70001220703125,-24.900001525878906
1004081,-1.3613734245300293,9.062463760375977,-2.372235059738159,0.8155539631843567,1.7149499654769897,-0.7698220014572144,173.10000610351562,-129.3000030517578,-26.700000762939453
1004101,-1.4540855884552002,9.203027725219727,-2.5624444484710693,0.7774440050125122,1.9664759635925293,-1.1661659479141235,177.90000915527344,-134.10000610351562,-26.100000381469727
1004121,-1.6299395561218262,8.83397388458252,-2.4816951751708984,0.7774440050125122,2.1494040489196777,-1.3948259353637695,180.3000030517578,-134.10000610351562,-24.30000114440918
1004141,-1.82553231716156,8.994874000549316,-2.632427215576172,0.7088459730148315,2.378063917160034,-1.1128119230270386,173.10000610351562,-136.5,-25.500001907348633
1004161,-2.104266881942749,9.213794708251953,-2.4721248149871826,0.7621999979019165,2.0655620098114014,-0.8231759667396545,175.5,-136.5,-24.900001525878906
1004221,-2.6671195030212402,9.017603874206543,-1.8051954507827759,0.1600620001554489,0.4878079891204834,-0.10670799762010574,180.3000030517578,-131.70001220703125,-23.100000381469727
1004241,-3.2646644115448,8.329140663146973,-1.3404383659362793,0.19817200303077698,-0.9375059604644775,0.2439039945602417,175.5,-134.10000610351562,-21.900001525878906
1004261,-3.4686310291290283,8.010330200195312,-0.903195858001709,0.6478700041770935,-2.835383892059326,1.2118979692459106,177.90000915527344,-134.10000610351562,-21.900001525878906
1004281,-3.789235830307007,7.15378999710083,0.517991840839386,0.3201240003108978,-5.388753890991211,1.8445239067077637,177.90000915527344,-138.90000915527344,-23.100000381469727
1004301,-3.3842928409576416,7.930179595947266,0.38759663701057434,0.9908599853515625,-5.182960033416748,3.2317278385162354,173.10000610351562,-138.90000915527344,-24.30000114440918
1004321,-3.305338144302368,7.19865083694458,-0.012561002746224403,2.080806016921997,-7.629621982574463,2.4619059562683105,168.3000030517578,-138.90000915527344,-23.700000762939453
1004341,-3.148026466369629,6.069954872131348,0.0675901547074318,4.771371841430664,-10.868971824645996,2.942091941833496,173.10000610351562,-141.3000030517578,-23.100000381469727
1004364,-2.107257604598999,5.195469856262207,0.050244010984897614,7.332363605499268,-14.733325958251953,4.405515670776367,173.10000610351562,-138.90000915527344,-23.100000381469727
1004384,-2.0737617015838623,4.9915032386779785,0.03708486258983612,8.35371208190918,-15.3507080078125,5.411619663238525,168.3000030517578,-143.70001220703125,-24.30000114440918
1004407,-1.9828439950942993,7.414580345153809,-1.094003438949585,8.864385604858398,-16.128150939941406,5.571681976318359,161.10000610351562,-138.90000915527344,-23.100000381469727
1004427,-2.9171433448791504,7.1878838539123535,-1.919440746307373,8.193650245666504,-16.715045928955078,1.981719970703125,158.70001220703125,-131.70001220703125,-23.100000381469727
1004491,-5.8408660888671875,2.751457691192627,-6.088497161865234,6.417723655700684,-12.873558044433594,-3.6433160305023193,173.10000610351562,-136.5,-24.30000114440918
1004518,-2.4182920455932617,7.338615894317627,-10.359237670898438,9.260729789733887,-20.876657485961914,8.132674217224121,168.3000030517578,-131.70001220703125,-24.30000114440918
1004537,-1.619771122932434,9.402209281921387,-6.370820999145508,5.03814172744751,-24.306556701660156,5.907049655914307,173.10000610351562,-141.3000030517578,-25.500001907348633
1004580,-3.21980357170105,9.18328857421875,-10.883211135864258,9.436036109924316,-2.4695279598236084,3.056421995162964,163.5,-141.3000030517578,-21.900001525878906
1004600,-1.6664263010025024,11.200825691223145,-12.7835111618042,5.746987819671631,-2.179892063140869,4.992409706115723,163.5,-134.10000610351562,-23.100000381469727
1004640,-1.6299395561218262,12.227238655090332,-13.52161979675293,3.361301898956299,-0.25152599811553955,-0.7240899801254272,158.70001220703125,-136.5,-21.30000114440918
1004663,-1.0844331979751587,12.303202629089355,-14.311766624450684,-0.9984819889068604,3.0792880058288574,0.6478700041770935,158.70001220703125,-138.90000915527344,-20.100000381469727
1004684,-1.5641438961029053,12.038823127746582,-14.333898544311523,-3.1783738136291504,4.740883827209473,-0.342989981174469,153.90000915527344,-138.90000915527344,-22.5
1004704,-1.5934529304504395,11.526214599609375,-13.468385696411133,-5.823207855224609,1.4558019638061523,-1.1280559301376343,153.90000915527344,-138.90000915527344,-21.30000114440918
1004724,-2.339337110519409,10.515951156616211,-11.039326667785645,-9.344572067260742,1.242385983467102,-1.981719970703125,165.90000915527344,-136.5,-22.5
1004744,-3.3454136848449707,8.703577995300293,-9.856200218200684,-8.993959426879883,4.78661584854126,-2.179892063140869,161.10000610351562,-141.3000030517578,-24.900001525878906
1004765,-3.9064717292785645,7.902066707611084,-8.603090286254883,-9.436036109924316,4.916189670562744,-0.38109999895095825,163.5,-143.70001220703125,-25.500001907348633
1004785,-2.4284603595733643,8.85490894317627,-6.2906694412231445,-10.716531753540039,4.382649898529053,1.3948259353637695,163.5,-138.90000915527344,-27.30000114440918
1004827,-2.536724328994751,6.4814772605896,-5.469419479370117,-10.0000638961792,16.715045928955078,-1.425313949584961,161.10000610351562,-148.5,-29.100000381469727
1004847,-2.6838674545288086,5.816342353820801,-4.451379776000977,-9.588476181030273,14.222651481628418,0.1295740008354187,156.3000030517578,-148.5,-27.30000114440918
1004867,-2.2304751873016357,6.655536651611328,-2.929704189300537,-9.100667953491211,13.330877304077148,1.4329359531402588,156.3000030517578,-150.90000915527344,-29.700000762939453
1004887,-2.1892032623291016,5.938363552093506,-2.518779993057251,-8.064075469970703,14.397957801818848,-1.067080020904541,156.3000030517578,-143.70001220703125,-29.100000381469727
1004907,-2.152118444442749,5.388669967651367,-2.2633728981018066,-7.637243747711182,13.262279510498047,-1.3795819282531738,151.5,-148.5,-30.30000114440918
1004928,-1.6628375053405762,5.389866352081299,-1.1526215076446533,-6.326260089874268,11.227205276489258,-0.7469559907913208,151.5,-148.5,-31.500001907348633
1004948,-0.6806867122650146,6.936065673828125,-0.44681280851364136,-5.625035762786865,10.586957931518555,0.25152599811553955,151.5,-146.10000610351562,-30.900001525878906
1004968,-0.6477888226509094,6.2822957038879395,-0.409129798412323,-6.905531883239746,13.78819751739502,-2.3475759029388428,153.90000915527344,-153.3000030517578,-31.500001907348633
1005028,-0.827829897403717,6.925299167633057,-0.40673720836639404,-4.839970111846924,12.804959297180176,-1.2576299905776978,153.90000915527344,-146.10000610351562,-32.70000076293945
1005078,-0.8828590512275696,7.601201057434082,-0.41690564155578613,-3.0259339809417725,9.763781547546387,-2.6600780487060547,156.3000030517578,-153.3000030517578,-29.700000762939453
1005178,-2.045050859451294,7.949918270111084,-0.7201641201972961,-0.9298839569091797,5.449729919433594,-2.9649579524993896,163.5,-141.3000030517578,-29.100000381469727
1005198,-2.348309278488159,8.752626419067383,-1.3799158334732056,0.09908600151538849,4.870458126068115,-2.1112940311431885,170.70001220703125,-138.90000915527344,-28.500001907348633
1005241,-2.050434112548828,10.2838716506958,-2.0408637523651123,1.1204339265823364,2.179892063140869,-0.8841519951820374,180.3000030517578,-141.3000030517578,-27.900001525878906
1005261,-1.9660959243774414,10.40649127960205,-2.3656554222106934,0.9603719711303711,1.3033620119094849,-1.3109840154647827,175.5,-141.3000030517578,-27.30000114440918
1005281,-2.3626646995544434,9.71743106842041,-2.2669618129730225,1.0289700031280518,0.3734779953956604,-1.425313949584961,173.10000610351562,-141.3000030517578,-26.700000762939453
1005301,-2.244232416152954,10.720516204833984,-2.664726972579956,1.3262280225753784,-0.030487999320030212,-0.8307979702949524,177.90000915527344,-141.3000030517578,-27.900001525878906
1005321,-2.3626646995544434,10.224058151245117,-2.595940589904785,0.3277460038661957,-1.189031958580017,-1.5396440029144287,173.10000610351562,-141.3000030517578,-26.700000762939453
1005341,-2.196381092071533,9.318469047546387,-2.387786626815796,0.3048799932003021,-1.6844619512557983,-1.3109840154647827,180.3000030517578,-141.3000030517578,-25.500001907348633
1005362,-2.035480499267578,9.05588436126709,-2.471526861190796,0.35061198472976685,-1.5015339851379395,-0.4725639820098877,180.3000030517578,-136.5,-26.700000762939453
1005382,-1.9068797826766968,8.685035705566406,-2.238250970840454,0.5868939757347107,-1.6158639192581177,0.228659987449646,173.10000610351562,-136.5,-26.700000762939453
1005402,-1.5695271492004395,9.037342071533203,-2.226288080215454,0.8993960022926331,-1.295740008354187,0.8993960022926331,180.3000030517578,-141.3000030517578,-26.700000762939453
1005422,-1.332662582397461,9.03016471862793,-2.292681932449341,0.8765299916267395,-1.0442140102386475,0.8765299916267395,175.5,-131.70001220703125,-27.30000114440918
1005444,-0.9570287466049194,8.88661003112793,-2.339935302734375,0.9908599853515625,-0.853663980960846,0.9603719711303711,173.10000610351562,-138.90000915527344,-27.30000114440918
1005464,-0.7584452629089355,8.90156364440918,-2.2998597621917725,1.2271419763565063,-0.6326259970664978,1.2271419763565063,173.10000610351562,-141.3000030517578,-26.100000381469727
1005484,-0.9821507334709167,8.861488342285156,-2.555266857147217,1.1204339265823364,-0.342989981174469,1.1128119230270386,170.70001220703125,-141.3000030517578,-26.700000762939453
1005504,-0.8505592942237854,9.241907119750977,-2.599529266357422,1.2652519941329956,-0.5564059615135193,1.2728739976882935,177.90000915527344,-141.3000030517578,-27.30000114440918
1005547,-1.1717621088027954,8.814234733581543,-3.0600993633270264,0.4192099869251251,-0.8079319596290588,0.510673999786377,173.10000610351562,-143.70001220703125,-27.900001525878906
1005571,-0.8924292922019958,9.23831844329834,-3.117521047592163,0.7698220014572144,-1.2500079870224,0.6097599864006042,165.90000915527344,-143.70001220703125,-26.100000381469727
1005591,-0.805698573589325,9.333422660827637,-2.9524338245391846,0.5411620140075684,-1.3338500261306763,0.2743920087814331,170.70001220703125,-146.10000610351562,-27.900001525878906
1005613,-0.7763895988464355,9.215588569641113,-2.8686935901641846,0.23628199100494385,-1.14329993724823,0.02286599949002266,165.90000915527344,-143.70001220703125,-24.900001525878906
1005633,-0.724351167678833,8.893189430236816,-2.724541187286377,0.09908600151538849,-0.7240899801254272,-0.23628199100494385,173.10000610351562,-146.10000610351562,-27.30000114440918
1005653,-0.7261455655097961,9.04691219329834,-2.8118700981140137,0.20579399168491364,-0.18292799592018127,-0.015243999660015106,170.70001220703125,-141.3000030517578,-26.700000762939453
1005675,-0.8822608590126038,9.076221466064453,-2.8986008167266846,0.22103799879550934,0.20579399168491364,-0.16768398880958557,163.5,-138.90000915527344,-27.30000114440918
1005695,-0.9761693477630615,8.999659538269043,-2.993107318878174,0.342989981174469,0.3048799932003021,-0.18292799592018127,173.10000610351562,-138.90000915527344,-27.30000114440918
1005715,-0.9953098893165588,8.869263648986816,-2.8627121448516846,0.19054999947547913,0.26677000522613525,-0.1600620001554489,168.3000030517578,-143.70001220703125,-26.100000381469727
1005735,-0.9971043467521667,9.04392147064209,-3.070267915725708,0.08384199440479279,0.46494197845458984,0.06859800219535828,175.5,-141.3000030517578,-27.30000114440918
1005755,-1.1388641595840454,9.147400856018066,-3.2156167030334473,-0.015243999660015106,0.510673999786377,-0.1448179930448532,170.70001220703125,-134.10000610351562,-25.500001907348633
1005775,-1.1173310279846191,8.976929664611816,-3.1845130920410156,0,0.2591480016708374,-0.2896359860897064,173.10000610351562,-141.3000030517578,-26.100000381469727
1005795,-1.0216281414031982,8.973938941955566,-3.0505292415618896,0.038109999150037766,0.114329993724823,-0.25152599811553955,165.90000915527344,-141.3000030517578,-26.100000381469727
1005815,-0.8302224278450012,9.06784725189209,-2.899797201156616,-0.228659987449646,0.3277460038661957,-0.20579399168491364,170.70001220703125,-138.90000915527344,-25.500001907348633
1005835,-0.903195858001709,9.032556533813477,-2.9548263549804688,-0.457319974899292,0.7164679765701294,-0.3582339882850647,158.70001220703125,-141.3000030517578,-26.100000381469727
1005855,-0.9474584460258484,9.067249298095703,-2.942265272140503,-0.36585599184036255,0.7469559907913208,-0.39634400606155396,175.5,-143.70001220703125,-24.900001525878906
1005875,-0.9983006119728088,8.99726676940918,-2.902787923812866,-0.46494197845458984,0.8231759667396545,-0.5259180068969727,170.70001220703125,-138.90000915527344,-25.500001907348633
1005898,-0.8852515816688538,9.226953506469727,-2.8567309379577637,-0.2439039945602417,0.8460419774055481,-0.7012239694595337,173.10000610351562,-138.90000915527344,-26.100000381469727
1005960,-1.003085732460022,9.170727729797363,-2.9757611751556396,-0.15243999660015106,0.9451279640197754,-0.967993974685669,173.10000610351562,-143.70001220703125,-25.500001907348633
1005982,-1.032992959022522,9.054688453674316,-2.8986008167266846,-0.2972579896450043,0.7621999979019165,-1.1051899194717407,173.10000610351562,-138.90000915527344,-25.500001907348633
1006003,-0.9372900128364563,9.076221466064453,-2.7921314239501953,-0.41158798336982727,0.6783579587936401,-1.1509219408035278,168.3000030517578,-138.90000915527344,-26.100000381469727
1006027,-1.0036839246749878,8.602492332458496,-2.7107839584350586,-0.8460419774055481,0.5182960033416748,-1.2271419763565063,173.10000610351562,-136.5,-25.500001907348633
1006048,-1.0365817546844482,8.82679557800293,-2.7293264865875244,-0.3277460038661957,0.39634400606155396,-0.8993960022926331,175.5,-134.10000610351562,-26.100000381469727
1006068,-1.111947774887085,8.877039909362793,-2.7083914279937744,-0.39634400606155396,0.4039659798145294,-1.1051899194717407,168.3000030517578,-138.90000915527344,-26.100000381469727
1006088,-1.1035737991333008,9.316675186157227,-2.7071950435638428,-0.12195199728012085,0.4420759975910187,-1.2576299905776978,175.5,-136.5,-24.900001525878906
1006111,-1.2848111391067505,8.944031715393066,-2.5445001125335693,-0.6021379828453064,0.5030519962310791,-1.6844619512557983,177.90000915527344,-134.10000610351562,-26.100000381469727
1006132,-1.448702335357666,8.784327507019043,-2.498443126678467,-0.5640279650688171,0.7317119836807251,-1.5167779922485352,182.70001220703125,-136.5,-25.500001907348633
1006152,-1.6131916046142578,9.008631706237793,-2.583977699279785,-0.26677000522613525,0.8155539631843567,-1.3948259353637695,180.3000030517578,-138.90000915527344,-24.30000114440918
1006172,-1.6915483474731445,9.289758682250977,-2.5594537258148193,-0.16768398880958557,0.800309956073761,-1.3490939140319824,180.3000030517578,-131.70001220703125,-24.900001525878906
1006192,-1.6724077463150024,9.19525146484375,-2.5325372219085693,-0.3201240003108978,0.7317119836807251,-1.417691946029663,182.70001220703125,-134.10000610351562,-27.30000114440918
1006252,-1.6831743717193604,9.07981014251709,-2.4852840900421143,0.3048799932003021,0.36585599184036255,-0.5335400104522705,180.3000030517578,-134.10000610351562,-25.500001907348633
1006272,-1.655659794807434,8.979920387268066,-2.4015440940856934,0.26677000522613525,0.3125019967556,-0.5411620140075684,185.10000610351562,-131.70001220703125,-26.100000381469727
1006292,-1.5820881128311157,8.881226539611816,-2.43204927444458,0.3277460038661957,0.3582339882850647,-0.48018598556518555,182.70001220703125,-134.10000610351562,-24.900001525878906
1006315,-1.5904622077941895,8.964966773986816,-2.536126136779785,0.6173819899559021,0.4344539940357208,-0.48018598556518555,182.70001220703125,-136.5,-26.100000381469727
1006335,-1.6209675073623657,9.223962783813477,-2.650371551513672,0.9527499675750732,0.35061198472976685,-0.35061198472976685,185.10000610351562,-138.90000915527344,-25.500001907348633
1006356,-1.6281452178955078,9.31787109375,-2.6868581771850586,1.0823240280151367,0,-0.48018598556518555,180.3000030517578,-131.70001220703125,-23.700000762939453
1006376,-1.9971994161605835,9.245495796203613,-2.608501434326172,1.067080020904541,-0.2134159952402115,-0.5335400104522705,180.3000030517578,-129.3000030517578,-24.900001525878906
1006396,-2.3973569869995117,9.468603134155273,-2.6132867336273193,1.2118979692459106,-0.7621999979019165,-0.38109999895095825,177.90000915527344,-134.10000610351562,-24.30000114440918
1006416,-2.688652753829956,9.493724822998047,-2.4571714401245117,1.0061039924621582,-1.577754020690918,-0.22103799879550934,177.90000915527344,-134.10000610351562,-23.100000381469727
1006437,-2.813664436340332,9.17850399017334,-2.337542772293091,0.7164679765701294,-2.644834041595459,0.09146399796009064,182.70001220703125,-131.70001220703125,-24.900001525878906
1006457,-3.106156349182129,8.517556190490723,-1.7681106328964233,0.7240899801254272,-4.131124019622803,0.739333987236023,185.10000610351562,-131.70001220703125,-23.700000762939453
1006477,-3.1103434562683105,8.456544876098633,-1.0276095867156982,1.0061039924621582,-5.594547748565674,1.8140360116958618,187.5,-136.5,-24.30000114440918
1006497,-2.897404670715332,9.13364315032959,-0.9271215796470642,1.0061039924621582,-6.250040054321289,2.225623846054077,177.90000915527344,-136.5,-26.100000381469727
1006517,-3.233560800552368,8.581557273864746,-0.9731786251068115,0.9298839569091797,-8.39182186126709,1.2728739976882935,185.10000610351562,-141.3000030517578,-27.30000114440918
1006537,-3.356778383255005,7.5431809425354,-0.35410064458847046,1.9969639778137207,-11.524463653564453,1.1585439443588257,177.90000915527344,-134.10000610351562,-28.500001907348633
1006557,-3.2598791122436523,6.808063507080078,0.03768300637602806,3.445143938064575,-13.300389289855957,1.6692179441452026,180.3000030517578,-136.5,-26.700000762939453
1006641,-2.548687219619751,4.984923362731934,-1.3870935440063477,6.158576011657715,-17.492488861083984,1.021347999572754,175.5,-134.10000610351562,-29.700000762939453
1006681,-2.3746275901794434,5.577682971954346,-2.4093198776245117,5.030519962310791,-15.81564998626709,0.5411620140075684,182.70001220703125,-136.5,-30.30000114440918
1006701,-3.097184419631958,4.953221797943115,-4.654150485992432,5.724122047424316,-12.210443496704102,-1.0975680351257324,177.90000915527344,-141.3000030517578,-30.900001525878906
1006741,-1.6873613595962524,8.905152320861816,-5.140440464019775,3.4222779273986816,-17.675416946411133,1.5625100135803223,177.90000915527344,-131.70001220703125,-32.10000228881836
1006763,-2.6222589015960693,5.873165607452393,-4.255787372589111,3.147886037826538,-10.686043739318848,-2.583858013153076,189.90000915527344,-143.70001220703125,-30.900001525878906
1006784,-3.1402506828308105,8.090481758117676,-6.6902289390563965,4.725639820098877,-4.687530040740967,1.4100699424743652,182.70001220703125,-141.3000030517578,-32.70000076293945
1006804,-2.6031181812286377,12.076506614685059,-7.488749980926514,3.6890478134155273,-2.888737916946411,2.3094658851623535,177.90000915527344,-138.90000915527344,-31.500001907348633
1006866,-3.962099075317383,11.971831321716309,-11.431110382080078,4.618931770324707,9.169265747070312,-2.0122079849243164,185.10000610351562,-131.70001220703125,-27.900001525878906
1006886,-2.7741870880126953,13.559303283691406,-13.64304256439209,4.763750076293945,9.931466102600098,-0.457319974899292,173.10000610351562,-129.3000030517578,-25.500001907348633
1006906,-1.8069899082183838,14.315954208374023,-14.05755615234375,3.3308138847351074,9.14639949798584,-0.6097599864006042,177.90000915527344,-131.70001220703125,-23.700000762939453
1006926,-1.85843026638031,12.894765853881836,-12.9330472946167,-3.0792880058288574,5.647902011871338,-3.818621873855591,177.90000915527344,-136.5,-23.100000381469727
1006946,-2.295672655105591,11.656012535095215,-12.210490226745605,-4.725639820098877,6.448211669921875,-3.971061944961548,177.90000915527344,-124.50000762939453,-24.30000114440918
1006968,-2.613884687423706,10.644552230834961,-11.559112548828125,-6.387235641479492,9.214998245239258,-2.2561118602752686,180.3000030517578,-126.9000015258789,-24.30000114440918
1006988,-2.6300346851348877,10.19534683227539,-10.727694511413574,-8.544261932373047,9.07017993927002,-1.5625100135803223,180.3000030517578,-124.50000762939453,-24.30000114440918
1007009,-3.1581947803497314,8.259756088256836,-8.109024047851562,-9.405548095703125,5.7164998054504395,-1.2576299905776978,185.10000610351562,-134.10000610351562,-27.900001525878906
1007029,-3.0182294845581055,7.969058990478516,-6.93367338180542,-9.504633903503418,5.282045841217041,-0.5030519962310791,182.70001220703125,-134.10000610351562,-26.700000762939453
1007051,-2.3925719261169434,7.2028374671936035,-3.935182571411133,-8.666213989257812,8.925361633300781,-0.08384199440479279,185.10000610351562,-134.10000610351562,-28.500001907348633
1007072,-1.7896437644958496,6.669294357299805,-3.6684107780456543,-8.239381790161133,11.85221004486084,-0.5259180068969727,182.70001220703125,-134.10000610351562,-29.100000381469727
1007092,-1.7734938859939575,6.211116790771484,-3.084623336791992,-8.498529434204102,11.936051368713379,-1.1814099550247192,180.3000030517578,-138.90000915527344,-29.100000381469727
1007112,-1.9971994161605835,5.842062473297119,-2.49186372756958,-8.186027526855469,11.943674087524414,-1.6234859228134155,185.10000610351562,-136.5,-29.100000381469727
1007133,-2.0976874828338623,5.671591758728027,-2.4135069847106934,-7.545779705047607,11.707391738891602,-2.0122079849243164,182.70001220703125,-136.5,-27.900001525878906
1007154,-1.9601144790649414,5.799594402313232,-1.8811596632003784,-6.654006004333496,10.022930145263672,-2.1112940311431885,182.70001220703125,-138.90000915527344,-29.700000762939453
1007174,-2.1096503734588623,5.635703086853027,-1.4343467950820923,-6.402479648590088,9.169265747070312,-2.652456045150757,182.70001220703125,-131.70001220703125,-29.700000762939453
1007194,-1.7071000337600708,6.555646896362305,-0.9564306139945984,-5.236313819885254,8.071698188781738,-1.7759259939193726,189.90000915527344,-134.10000610351562,-30.30000114440918
1007214,-1.9918160438537598,5.859408378601074,-0.43664437532424927,-6.112843990325928,8.323224067687988,-2.743919849395752,187.5,-134.10000610351562,-30.900001525878906
1007274,-2.46195650100708,7.11191987991333,-0.48509395122528076,-3.3308138847351074,7.294253826141357,-1.4558019638061523,187.5,-131.70001220703125,-29.700000762939453
1007294,-2.536126136779785,7.098162651062012,-0.3696523606777191,-2.652456045150757,7.362851619720459,-1.5015339851379395,192.3000030517578,-131.70001220703125,-29.100000381469727
1007314,-2.837590217590332,7.939749717712402,-0.61249840259552,-2.3018438816070557,7.134191989898682,-1.0899460315704346,192.3000030517578,-129.3000030517578,-29.100000381469727
1007337,-3.3310582637786865,8.472695350646973,-0.8972144722938538,-1.8902559280395508,6.440589904785156,-1.189031958580017,187.5,-131.70001220703125,-28.500001907348633
1007357,-3.2921788692474365,8.482863426208496,-0.9636083245277405,-1.2195199728012085,5.373509883880615,-1.5396440029144287,189.90000915527344,-134.10000610351562,-28.500001907348633
1007377,-3.4417147636413574,8.708961486816406,-0.9887303113937378,-0.7088459730148315,4.53508996963501,-1.3186060190200806,187.5,-126.9000015258789,-29.100000381469727
1007397,-3.8610129356384277,9.628905296325684,-1.705305576324463,-0.39634400606155396,3.910085916519165,-0.7926880121231079,187.5,-131.70001220703125,-27.900001525878906
1007417,-3.878359079360962,9.842442512512207,-1.8321119546890259,0.2972579896450043,1.8902559280395508,-1.7454379796981812,194.70001220703125,-134.10000610351562,-26.700000762939453
1007437,-3.908266067504883,9.97523021697998,-2.181427478790283,0.2591480016708374,1.3795819282531738,-1.577754020690918,192.3000030517578,-122.10000610351562,-27.30000114440918
1007458,-3.9058735370635986,9.5272216796875,-2.2514102458953857,0.1448179930448532,0.6021379828453064,-1.3186060190200806,194.70001220703125,-131.70001220703125,-27.900001525878906
1007521,-3.0870158672332764,9.830479621887207,-2.6874563694000244,0.25152599811553955,-0.7926880121231079,1.2500079870224,189.90000915527344,-136.5,-26.100000381469727
1007583,-1.9026927947998047,9.234729766845703,-2.45896577835083,0.09908600151538849,-1.8521459102630615,2.0579400062561035,187.5,-126.9000015258789,-27.900001525878906
1007603,-1.738203525543213,8.94941520690918,-2.345916748046875,-0.2134159952402115,-1.9588539600372314,1.7149499654769897,182.70001220703125,-134.10000610351562,-27.30000114440918
1007626,-1.4576743841171265,8.981715202331543,-2.4033384323120117,-0.1448179930448532,-1.646351933479309,2.080806016921997,185.10000610351562,-136.5,-29.100000381469727
1007646,-1.1520233154296875,9.060669898986816,-2.2155215740203857,-0.06859800219535828,-1.3795819282531738,2.14178204536438,182.70001220703125,-134.10000610351562,-27.30000114440918
1007666,-0.9175513386726379,8.867469787597656,-2.086920738220215,-0.33536797761917114,-0.9222619533538818,1.8978779315948486,189.90000915527344,-141.3000030517578,-28.500001907348633
1007686,-0.92472904920578,8.730494499206543,-2.20296049118042,-0.10670799762010574,-0.5487840175628662,1.6158639192581177,185.10000610351562,-138.90000915527344,-27.900001525878906
1007706,-1.031198501586914,8.41347885131836,-2.3560850620269775,0.28201398253440857,-0.44969800114631653,1.4024479389190674,182.70001220703125,-134.10000610351562,-29.700000762939453
1007726,-0.9486547708511353,8.848328590393066,-2.592949867248535,1.0518360137939453,-0.7698220014572144,1.524399995803833,177.90000915527344,-138.90000915527344,-27.30000114440918
1007746,-0.709397554397583,9.040332794189453,-2.5947442054748535,1.0442140102386475,-1.0442140102386475,1.3033620119094849,175.5,-141.3000030517578,-28.500001907348633
1007766,-0.6041244268417358,9.249683380126953,-2.5714166164398193,0.914639949798584,-0.9070180058479309,1.0289700031280518,182.70001220703125,-138.90000915527344,-26.700000762939453
1007790,-0.8051004409790039,9.035547256469727,-2.750859498977661,0.2439039945602417,-0.49542999267578125,0.6326259970664978,175.5,-138.90000915527344,-28.500001907348633
1007810,-0.9271215796470642,9.055286407470703,-2.828618049621582,0.038109999150037766,-0.09146399796009064,0.7012239694595337,177.90000915527344,-141.3000030517578,-27.30000114440918
1007830,-0.9169531464576721,9.201831817626953,-2.899797201156616,-0.1295740008354187,0.13719600439071655,0.6554920077323914,177.90000915527344,-136.5,-29.700000762939453
1007870,-0.9707860350608826,9.000855445861816,-2.6521658897399902,-0.4725639820098877,0.4878079891204834,1.0442140102386475,175.5,-141.3000030517578,-27.30000114440918
1007892,-0.9803563356399536,9.111512184143066,-2.6874563694000244,-0.41158798336982727,0.7469559907913208,1.196653962135315,175.5,-134.10000610351562,-27.900001525878906
1007912,-1.013254165649414,8.976929664611816,-2.7532520294189453,-0.3734779953956604,0.7088459730148315,1.0442140102386475,165.90000915527344,-148.5,-29.100000381469727
1007932,-1.0144504308700562,8.906349182128906,-2.814262628555298,-0.030487999320030212,0.6021379828453064,1.3262280225753784,173.10000610351562,-148.5,-29.700000762939453
1007954,-0.9468603134155273,9.07203483581543,-2.7024099826812744,0.060975998640060425,0.41158798336982727,1.7759259939193726,161.10000610351562,-146.10000610351562,-29.100000381469727
1007974,-0.8451760411262512,9.298730850219727,-2.7341115474700928,-0.007621999830007553,0.4725639820098877,1.92836594581604,168.3000030517578,-143.70001220703125,-27.30000114440918
1007994,-1.2549039125442505,8.617445945739746,-2.9649946689605713,-1.0975680351257324,0.7774440050125122,2.4619059562683105,168.3000030517578,-141.3000030517578,-27.30000114440918
1008014,-1.0820406675338745,9.10373592376709,-3.008060932159424,-0.5792719721794128,0.6097599864006042,3.2622158527374268,161.10000610351562,-143.70001220703125,-28.500001907348633
1008036,-1.0509371757507324,9.321459770202637,-3.0212202072143555,-0.8993960022926331,0.8384199738502502,3.696669816970825,158.70001220703125,-153.3000030517578,-28.500001907348633
1008056,-0.9540380239486694,9.76109504699707,-3.0918009281158447,-1.1585439443588257,1.0594580173492432,4.2911858558654785,156.3000030517578,-150.90000915527344,-27.900001525878906
1008078,-0.7847635746002197,9.361536026000977,-2.8603196144104004,-1.6844619512557983,1.0518360137939453,4.009171962738037,151.5,-158.10000610351562,-28.500001907348633
1008099,-0.5748153924942017,9.200037002563477,-2.7030081748962402,-1.653973937034607,1.417691946029663,4.42838191986084,144.3000030517578,-153.3000030517578,-27.900001525878906
1008120,-0.2691643238067627,9.385461807250977,-2.826225519180298,-1.417691946029663,1.600619912147522,4.504601955413818,139.5,-158.10000610351562,-28.500001907348633
1008140,0.08314187079668045,9.25506591796875,-2.6186699867248535,-1.2652519941329956,1.478667974472046,4.39027214050293,137.10000610351562,-158.10000610351562,-29.700000762939453
1008160,0.4426257908344269,9.333422660827637,-2.4930598735809326,-1.1585439443588257,1.4558019638061523,3.971061944961548,134.70001220703125,-160.5,-27.30000114440918
1008180,0.6818829774856567,9.235925674438477,-2.3471131324768066,-1.0518360137939453,1.3033620119094849,3.0792880058288574,127.50000762939453,-158.10000610351562,-28.500001907348633
1008203,1.0922091007232666,9.11569881439209,-2.328570604324341,-0.6478700041770935,0.914639949798584,1.371959924697876,125.10000610351562,-158.10000610351562,-28.500001907348633
1008223,0.9510473012924194,8.96915340423584,-2.20595121383667,-0.5182960033416748,0.5564059615135193,0.28201398253440857,125.10000610351562,-160.5,-30.30000114440918
1008243,1.3422328233718872,9.264636039733887,-2.2185122966766357,-0.09146399796009064,0.060975998640060425,-0.7469559907913208,127.50000762939453,-165.3000030517578,-28.500001907348633
1008263,1.2752407789230347,8.765785217285156,-1.8129713535308838,0.28201398253440857,0.09146399796009064,-2.599102020263672,125.10000610351562,-158.10000610351562,-29.100000381469727
1008283,0.9390844702720642,8.677858352661133,-1.9487497806549072,0.5411620140075684,0.49542999267578125,-2.682943820953369,129.90000915527344,-155.70001220703125,-30.900001525878906
1008303,0.47492551803588867,9.102540016174316,-1.9726755619049072,0.35061198472976685,0.8231759667396545,-2.39330792427063,134.70001220703125,-155.70001220703125,-30.30000114440918
1008323,-0.050842151045799255,9.560118675231934,-2.184418201446533,-0.038109999150037766,0.9603719711303711,-2.385685920715332,137.10000610351562,-155.70001220703125,-29.100000381469727
1008343,-0.5778061151504517,9.47518253326416,-2.4733211994171143,-0.46494197845458984,0.8689079880714417,-2.75154185295105,134.70001220703125,-148.5,-27.30000114440918
1008367,-0.7428935766220093,9.266430854797363,-2.486480236053467,-0.22103799879550934,0.1600620001554489,-2.4085519313812256,137.10000610351562,-158.10000610351562,-27.900001525878906
1008387,-0.5646469593048096,9.236523628234863,-2.1915957927703857,-0.20579399168491364,-0.2896359860897064,-1.6692179441452026,139.5,-153.3000030517578,-27.900001525878906
1008407,-0.42767223715782166,9.264636039733887,-2.0606024265289307,-0.5868939757347107,-0.007621999830007553,-0.8460419774055481,141.90000915527344,-153.3000030517578,-28.500001907348633
1008430,-0.5353379845619202,9.15756893157959,-2.3112244606018066,-0.7469559907913208,0.26677000522613525,-0.6554920077323914,146.70001220703125,-158.10000610351562,-29.700000762939453
1008450,-0.44980350136756897,9.06605339050293,-2.1174261569976807,-0.13719600439071655,0.02286599949002266,-0.457319974899292,141.90000915527344,-155.70001220703125,-26.700000762939453
1008470,-0.3457266390323639,9.08100700378418,-2.0940985679626465,0.06859800219535828,-0.038109999150037766,-0.44969800114631653,139.5,-158.10000610351562,-28.500001907348633
1008533,-0.8613258600234985,9.243701934814453,-1.3876917362213135,1.3262280225753784,-0.10670799762010574,-0.7164679765701294,141.90000915527344,-155.70001220703125,-27.900001525878906
1008555,-0.9654027819633484,9.56789493560791,-1.2632780075073242,1.7683039903640747,-0.28201398253440857,-0.9832379817962646,141.90000915527344,-155.70001220703125,-27.900001525878906
1008575,-2.0366768836975098,8.263344764709473,-1.2136321067810059,2.2180018424987793,-1.189031958580017,-1.5472660064697266,141.90000915527344,-150.90000915527344,-29.100000381469727
1008595,-2.3148133754730225,7.175921440124512,-0.20097604393959045,2.987823963165283,-4.169233798980713,-0.342989981174469,144.3000030517578,-155.70001220703125,-27.30000114440918
1008615,-1.8608227968215942,8.144314765930176,0.9265234470367432,2.599102020263672,-5.266801834106445,0.8155539631843567,137.10000610351562,-153.3000030517578,-24.900001525878906
1008635,-2.45298433303833,7.889505863189697,0.7297344207763672,2.03507399559021,-5.068629741668701,-1.189031958580017,141.90000915527344,-150.90000915527344,-28.500001907348633
1008655,-2.843571662902832,7.372710227966309,0.0897214487195015,3.6280720233917236,-7.652487754821777,-2.0198299884796143,149.10000610351562,-155.70001220703125,-26.700000762939453
1008675,-3.1402506828308105,6.426447868347168,0.46894410252571106,4.032037734985352,-10.434517860412598,-2.1646480560302734,153.90000915527344,-148.5,-26.100000381469727
1008695,-1.516890525817871,8.543275833129883,-0.03648672252893448,5.099117755889893,-12.469592094421387,-0.05335399881005287,146.70001220703125,-146.10000610351562,-26.100000381469727
1008717,-2.0079660415649414,7.814737796783447,0.24523861706256866,3.1707520484924316,-13.452829360961914,-2.3551979064941406,158.70001220703125,-150.90000915527344,-27.30000114440918
1008737,-2.3626646995544434,6.212312698364258,-0.7327251434326172,4.131124019622803,-13.82630729675293,-2.736297845840454,158.70001220703125,-148.5,-27.900001525878906
1008757,-1.1669769287109375,7.303923606872559,0.34094148874282837,5.099117755889893,-17.599197387695312,-1.0747020244598389,161.10000610351562,-146.10000610351562,-27.30000114440918
1008779,-1.6855669021606445,6.639387130737305,0.9331030249595642,2.2561118602752686,-14.161675453186035,-2.3170878887176514,161.10000610351562,-146.10000610351562,-26.700000762939453
1008839,-3.585268974304199,6.74047327041626,-4.51059627532959,7.271388053894043,-9.542743682861328,1.021347999572754,165.90000915527344,-146.10000610351562,-29.100000381469727
1008862,-3.3753206729888916,6.2404255867004395,-6.345100402832031,6.051867961883545,-10.388785362243652,-0.2439039945602417,168.3000030517578,-143.70001220703125,-29.100000381469727
1008882,-2.804692506790161,6.130367279052734,-5.964681625366211,7.1418137550354,-8.262248039245605,2.4619059562683105,168.3000030517578,-141.3000030517578,-26.700000762939453
1008902,-2.9338912963867188,10.810237884521484,-8.1245756149292,6.509187698364258,-1.5625100135803223,5.556437969207764,163.5,-141.3000030517578,-27.900001525878906
1008924,-2.146735191345215,11.325239181518555,-10.611056327819824,7.256144046783447,2.949713945388794,2.3018438816070557,158.70001220703125,-141.3000030517578,-27.30000114440918
1008944,-1.5043295621871948,10.877229690551758,-12.130339622497559,6.234796047210693,-0.3734779953956604,0.6783579587936401,156.3000030517578,-138.90000915527344,-24.900001525878906
1008964,-0.7381084561347961,14.580931663513184,-12.9629545211792,5.007653713226318,0.19054999947547913,2.9344699382781982,156.3000030517578,-138.90000915527344,-21.900001525878906
1008984,-0.07835672795772552,14.775925636291504,-13.464198112487793,5.030519962310791,1.417691946029663,1.5701320171356201,149.10000610351562,-146.10000610351562,-21.900001525878906
1009004,0.7913431525230408,14.249560356140137,-14.265111923217773,2.4771499633789062,2.073184013366699,-0.7698220014572144,151.5,-138.90000915527344,-23.100000381469727
1009024,-0.1573116034269333,12.552030563354492,-13.785401344299316,0.06859800219535828,2.8658719062805176,-1.4634239673614502,149.10000610351562,-136.5,-21.900001525878906
1009044,-0.4181019365787506,11.950896263122559,-13.742334365844727,-1.4939119815826416,3.9939279556274414,0.09146399796009064,161.10000610351562,-141.3000030517578,-21.30000114440918
1009067,-0.20635932683944702,12.043010711669922,-12.91211223602295,-4.519845962524414,3.2241058349609375,0.7545779943466187,149.10000610351562,-136.5,-21.30000114440918
1009091,-1.0605075359344482,10.642159461975098,-10.795882225036621,-7.766818046569824,2.6600780487060547,-0.3887220025062561,156.3000030517578,-146.10000610351562,-23.100000381469727
1009112,-1.7041093111038208,9.262842178344727,-9.357348442077637,-8.597616195678711,1.7454379796981812,-0.342989981174469,146.70001220703125,-150.90000915527344,-26.100000381469727
1009132,-1.8889354467391968,8.63359546661377,-6.869073867797852,-9.710428237915039,1.0289700031280518,0.3582339882850647,149.10000610351562,-148.5,-26.700000762939453
1009172,-1.7597366571426392,7.467216968536377,-4.4250617027282715,-8.033587455749512,9.100667953491211,-0.6326259970664978,153.90000915527344,-146.10000610351562,-25.500001907348633
1009198,-1.6939408779144287,5.8049774169921875,-3.127091407775879,-7.515291690826416,7.736330032348633,-0.7088459730148315,156.3000030517578,-150.90000915527344,-28.500001907348633
1009219,-1.315914511680603,5.653647422790527,-2.024115800857544,-6.440589904785156,8.315601348876953,0.10670799762010574,151.5,-153.3000030517578,-30.30000114440918
1009259,-1.2614835500717163,6.235042095184326,-1.8368970155715942,-4.420759677886963,8.589993476867676,-0.7164679765701294,149.10000610351562,-148.5,-30.30000114440918
1009301,-0.44501838088035583,6.223677635192871,-0.4432239532470703,-3.666181802749634,6.036623954772949,-2.0579400062561035,153.90000915527344,-150.90000915527344,-29.700000762939453
1009321,-0.45279422402381897,5.991598129272461,-0.061010584235191345,-4.184477806091309,7.9497456550598145,-2.225623846054077,156.3000030517578,-155.70001220703125,-30.30000114440918
1009343,-0.9594213366508484,5.309116840362549,-0.8816627264022827,-4.222588062286377,9.03207015991211,-2.225623846054077,158.70001220703125,-146.10000610351562,-31.500001907348633
1009363,-1.2513151168823242,5.058495044708252,-0.36905422806739807,-3.3155698776245117,8.193650245666504,-1.646351933479309,158.70001220703125,-141.3000030517578,-30.30000114440918
1009383,-0.8864479064941406,6.976141452789307,-0.5251695513725281,-2.4542839527130127,8.658592224121094,-0.9451279640197754,153.90000915527344,-148.5,-29.700000762939453
1009405,-1.2315763235092163,7.084405422210693,-0.6447980999946594,-3.0869100093841553,8.68145751953125,-2.3628199100494385,161.10000610351562,-150.90000915527344,-32.10000228881836
1009425,-0.9959080219268799,7.583256721496582,-0.20516303181648254,-2.682943820953369,8.048831939697266,-2.3475759029388428,158.70001220703125,-146.10000610351562,-32.10000228881836
1009448,-1.5707234144210815,7.546770095825195,-0.7596415877342224,-2.5533699989318848,8.795787811279297,-2.339953899383545,161.10000610351562,-143.70001220703125,-30.30000114440918
1009468,-2.1269965171813965,8.788515090942383,-1.3135219812393188,-1.4634239673614502,8.033587455749512,-1.6844619512557983,158.70001220703125,-146.10000610351562,-29.700000762939453
1009488,-2.1682682037353516,9.215588569641113,-1.3847010135650635,-1.3033620119094849,6.6844940185546875,-2.126538038253784,165.90000915527344,-141.3000030517578,-27.900001525878906
1009508,-1.8931225538253784,9.327441215515137,-1.531844139099121,-0.7164679765701294,5.830830097198486,-2.126538038253784,165.90000915527344,-146.10000610351562,-27.30000114440918
1009528,-1.7896437644958496,9.402807235717773,-1.7549514770507812,-0.6021379828453064,5.076251983642578,-1.6768399477005005,161.10000610351562,-146.10000610351562,-28.500001907348633
1009548,-2.2490174770355225,8.911731719970703,-1.9906197786331177,-0.39634400606155396,4.268320083618164,-1.3414719104766846,165.90000915527344,-146.10000610351562,-29.100000381469727
1009568,-1.8943188190460205,10.269516944885254,-2.557659387588501,1.0899460315704346,3.4832539558410645,-0.4039659798145294,161.10000610351562,-148.5,-29.100000381469727
1009588,-0.9618139266967773,12.689004898071289,-3.308926820755005,1.2042759656906128,2.14178204536438,0.4344539940357208,170.70001220703125,-146.10000610351562,-27.900001525878906
1009612,-1.9792550802230835,10.570382118225098,-2.4344418048858643,-0.38109999895095825,-0.13719600439071655,-3.452765941619873,163.5,-138.90000915527344,-28.500001907348633
1009632,-2.0612006187438965,8.97932243347168,-2.104865074157715,0.114329993724823,-0.4039659798145294,-2.3475759029388428,170.70001220703125,-138.90000915527344,-27.30000114440918
1009652,-2.25978422164917,9.4793701171875,-2.2400453090667725,-1.4862899780273438,0.16768398880958557,-1.0442140102386475,170.70001220703125,-141.3000030517578,-27.30000114440918
1009672,-2.2699525356292725,9.47637939453125,-2.259186029434204,-1.577754020690918,-0.17530599236488342,-0.7774440050125122,165.90000915527344,-143.70001220703125,-27.30000114440918
1009693,-2.083332061767578,9.38067626953125,-2.0970892906188965,-1.2728739976882935,-0.6783579587936401,-0.4344539940357208,165.90000915527344,-136.5,-26.700000762939453
1009714,-1.7531570196151733,8.87464714050293,-1.8709912300109863,-1.4405579566955566,-0.7698220014572144,0.007621999830007553,170.70001220703125,-138.90000915527344,-27.30000114440918
1009734,-1.432552456855774,8.609071731567383,-1.8297193050384521,-0.9222619533538818,-0.38109999895095825,1.2118979692459106,170.70001220703125,-138.90000915527344,-28.500001907348633
1009794,-1.0294040441513062,9.311291694641113,-2.2783265113830566,0.15243999660015106,-0.342989981174469,1.4329359531402588,165.90000915527344,-146.10000610351562,-28.500001907348633
1009814,-1.1508270502090454,9.027771949768066,-2.3895812034606934,0.19817200303077698,-0.6402480006217957,0.800309956073761,156.3000030517578,-141.3000030517578,-26.700000762939453
1009834,-1.2333707809448242,8.986499786376953,-2.533135414123535,0.6707359552383423,-0.8384199738502502,0.5945159792900085,170.70001220703125,-143.70001220703125,-29.100000381469727
1009854,-1.128097653388977,9.305310249328613,-2.7149710655212402,1.0975680351257324,-0.9527499675750732,0.5335400104522705,161.10000610351562,-148.5,-29.100000381469727
1009874,-1.0766572952270508,9.22037410736084,-2.6515676975250244,0.8384199738502502,-1.0899460315704346,0.2439039945602417,158.70001220703125,-143.70001220703125,-27.900001525878906
1009894,-0.8792701959609985,9.533801078796387,-2.6790823936462402,0.6478700041770935,-0.7698220014572144,0.23628199100494385,163.5,-146.10000610351562,-28.500001907348633
1009917,-0.8738868832588196,9.04691219329834,-2.670708417892456,-0.10670799762010574,-0.4725639820098877,0.13719600439071655,161.10000610351562,-148.5,-30.900001525878906
1009938,-0.8667091727256775,8.950013160705566,-2.6216607093811035,0.20579399168491364,-0.060975998640060425,0.4725639820098877,163.5,-148.5,-28.500001907348633
1009958,-0.7261455655097961,9.057679176330566,-2.6192681789398193,0.2439039945602417,0.2591480016708374,0.5640279650688171,161.10000610351562,-153.3000030517578,-29.100000381469727
1009979,-0.6394148468971252,8.992481231689453,-2.5289485454559326,0.22103799879550934,0.4725639820098877,0.5335400104522705,156.3000030517578,-143.70001220703125,-29.100000381469727
1009999,-0.6232649683952332,9.152185440063477,-2.6120903491973877,0.19054999947547913,0.7012239694595337,0.3887220025062561,156.3000030517578,-153.3000030517578,-29.100000381469727
1010021,-0.7201641201972961,9.153980255126953,-2.7107839584350586,0.007621999830007553,0.6707359552383423,0.02286599949002266,165.90000915527344,-146.10000610351562,-27.900001525878906
1010041,-0.7608378529548645,8.968555450439453,-2.661736249923706,-0.10670799762010574,0.426831990480423,-0.17530599236488342,163.5,-146.10000610351562,-27.30000114440918
1010061,-0.7004254460334778,9.054688453674316,-2.6479790210723877,-0.114329993724823,0.3887220025062561,-0.07621999830007553,161.10000610351562,-143.70001220703125,-28.500001907348633
1010083,-0.8691017627716064,9.40340518951416,-2.7221486568450928,-0.23628199100494385,0.5792719721794128,-0.2743920087814331,158.70001220703125,-143.70001220703125,-27.30000114440918
1010103,-0.9462621808052063,9.107324600219727,-2.694634199142456,-0.457319974899292,0.4420759975910187,-0.6554920077323914,161.10000610351562,-150.90000915527344,-27.900001525878906
1010124,-0.8595314621925354,9.01521110534668,-2.629436492919922,-0.36585599184036255,0.5564059615135193,-0.4878079891204834,158.70001220703125,-150.90000915527344,-29.100000381469727
1010144,-0.7464824318885803,9.21439266204834,-2.6372122764587402,-0.35061198472976685,0.8079319596290588,-0.2439039945602417,163.5,-148.5,-27.900001525878906
1010164,-0.8475685715675354,9.186878204345703,-2.664726972579956,-0.4344539940357208,0.9527499675750732,-0.23628199100494385,158.70001220703125,-150.90000915527344,-27.900001525878906
1010188,-0.9223364591598511,9.012818336486816,-2.6701102256774902,-0.4192099869251251,0.8917739987373352,-0.2972579896450043,158.70001220703125,-150.90000915527344,-27.900001525878906
1010208,-0.7494731545448303,9.025379180908203,-2.6509697437286377,-0.17530599236488342,0.8079319596290588,-0.33536797761917114,161.10000610351562,-146.10000610351562,-26.700000762939453
1010231,-0.6866681575775146,9.017603874206543,-2.676689863204956,-0.19054999947547913,0.8384199738502502,-0.38109999895095825,163.5,-153.3000030517578,-30.30000114440918
1010251,-0.6962383985519409,9.09476375579834,-2.778374195098877,-0.060975998640060425,0.9070180058479309,-0.3582339882850647,156.3000030517578,-148.5,-27.900001525878906
1010272,-0.7907450199127197,8.94941520690918,-2.8692917823791504,0.038109999150037766,0.8612859845161438,-0.6097599864006042,161.10000610351562,-146.10000610351562,-28.500001907348633
1010292,-0.7458842992782593,9.108521461486816,-2.933293104171753,0.16768398880958557,0.8384199738502502,-0.5792719721794128,163.5,-150.90000915527344,-26.700000762939453
1010315,-0.6130965352058411,9.231739044189453,-2.877067804336548,0.04573199898004532,0.8993960022926331,-0.5411620140075684,158.70001220703125,-148.5,-28.500001907348633
1010335,-0.6872662901878357,9.242505073547363,-2.9141526222229004,-0.25152599811553955,1.0289700031280518,-0.6021379828453064,156.3000030517578,-148.5,-26.700000762939453
1010355,-0.6759015321731567,9.281384468078613,-2.813664436340332,-0.342989981174469,1.0365920066833496,-0.6326259970664978,158.70001220703125,-141.3000030517578,-26.100000381469727
1010375,-0.7494731545448303,9.13065242767334,-2.838188409805298,-0.7012239694595337,1.0975680351257324,-0.7926880121231079,163.5,-141.3000030517578,-27.30000114440918
1010398,-0.818259596824646,8.739466667175293,-2.6491751670837402,-0.7164679765701294,1.0518360137939453,-0.7240899801254272,163.5,-148.5,-27.30000114440918
1010418,-0.721360445022583,9.06007194519043,-2.679680585861206,-0.4878079891204834,1.021347999572754,-0.6097599864006042,165.90000915527344,-146.10000610351562,-27.900001525878906
1010439,-0.7512675523757935,9.01401424407959,-2.6934378147125244,-0.4725639820098877,1.0289700031280518,-0.6402480006217957,163.5,-148.5,-24.900001525878906
1010480,-0.7656229734420776,8.97513484954834,-2.6007256507873535,-0.4192099869251251,0.9832379817962646,-0.9070180058479309,161.10000610351562,-143.70001220703125,-27.30000114440918
1010516,-0.9600194692611694,9.104333877563477,-2.7520558834075928,-0.22103799879550934,1.0899460315704346,-0.7088459730148315,165.90000915527344,-148.5,-26.700000762939453
1010537,-1.0455539226531982,9.333422660827637,-2.8603196144104004,0.02286599949002266,0.853663980960846,-0.7317119836807251,168.3000030517578,-134.10000610351562,-27.900001525878906
1010577,-0.8206521272659302,8.786720275878906,-2.5534722805023193,-0.33536797761917114,0.7469559907913208,-0.5259180068969727,170.70001220703125,-136.5,-25.500001907348633
1010597,-0.7865580320358276,9.010425567626953,-2.5977349281311035,-0.16768398880958557,0.8841519951820374,-0.36585599184036255,163.5,-146.10000610351562,-27.900001525878906
1010617,-0.6507795453071594,9.297533988952637,-2.5295467376708984,-0.09908600151538849,1.1356779336929321,-0.5182960033416748,165.90000915527344,-141.3000030517578,-26.700000762939453
1010637,-0.6770978569984436,9.054688453674316,-2.5881645679473877,-0.1600620001554489,1.5167779922485352,-0.8993960022926331,165.90000915527344,-146.10000610351562,-26.100000381469727
1010657,-0.7901468873023987,8.66350269317627,-2.4039366245269775,0.015243999660015106,1.699705958366394,-1.0518360137939453,170.70001220703125,-141.3000030517578,-25.500001907348633
1010677,-0.9486547708511353,8.69640064239502,-2.2663636207580566,0.2972579896450043,2.134160041809082,-0.6478700041770935,165.90000915527344,-141.3000030517578,-25.500001907348633
1010697,-1.1879119873046875,8.929676055908203,-2.346514940261841,0.13719600439071655,2.324709892272949,-0.6936019659042358,163.5,-143.70001220703125,-27.30000114440918
1010717,-1.2489224672317505,9.05588436126709,-2.357879638671875,0.23628199100494385,2.1189160346984863,-0.8231759667396545,168.3000030517578,-146.10000610351562,-26.700000762939453
1010737,-1.499544382095337,9.06007194519043,-2.143146276473999,0.35061198472976685,1.7454379796981812,-0.9908599853515625,168.3000030517578,-141.3000030517578,-23.700000762939453
1010759,-1.5623494386672974,9.162952423095703,-1.5210776329040527,0.7240899801254272,0.6707359552383423,-0.800309956073761,168.3000030517578,-138.90000915527344,-24.30000114440918
1010780,-1.4935630559921265,9.140820503234863,-0.8744850158691406,0.6173819899559021,0.114329993724823,-0.5182960033416748,170.70001220703125,-141.3000030517578,-26.100000381469727
1010800,-1.949347972869873,8.382375717163086,-0.5574692487716675,0.3201240003108978,-0.3048799932003021,-0.7164679765701294,170.70001220703125,-143.70001220703125,-24.900001525878906
1010820,-2.45298433303833,7.112517833709717,0.05742172524333,1.0747020244598389,-1.6615959405899048,-0.5030519962310791,173.10000610351562,-138.90000915527344,-23.100000381469727
1010840,-2.540313243865967,6.974945068359375,0.28591233491897583,2.03507399559021,-2.8201398849487305,0.33536797761917114,170.70001220703125,-141.3000030517578,-25.500001907348633
1010860,-2.963200330734253,6.030477523803711,0.022729432210326195,2.3475759029388428,-4.53508996963501,0.10670799762010574,165.90000915527344,-136.5,-22.5
1010880,-2.900395154953003,5.3910627365112305,0.2428460419178009,4.1921000480651855,-6.74547004699707,1.0594580173492432,173.10000610351562,-136.5,-24.30000114440918
1010900,-2.2514102458953857,6.8128485679626465,-0.3152213394641876,4.64179801940918,-8.00309944152832,2.134160041809082,170.70001220703125,-141.3000030517578,-23.700000762939453
1010920,-2.787346363067627,5.547776222229004,-0.9899266362190247,4.375028133392334,-10.007685661315918,1.2118979692459106,170.70001220703125,-138.90000915527344,-23.700000762939453
1010940,-2.6222589015960693,4.83120059967041,-1.0605075359344482,5.472595691680908,-13.048863410949707,1.425313949584961,170.70001220703125,-141.3000030517578,-23.100000381469727
1010963,-2.24183988571167,5.633908748626709,-1.5061240196228027,4.7027740478515625,-14.29124927520752,2.9268479347229004,168.3000030517578,-143.70001220703125,-24.30000114440918
1010983,-2.390179395675659,6.086104869842529,-2.1826236248016357,4.7027740478515625,-16.044309616088867,2.225623846054077,170.70001220703125,-138.90000915527344,-25.500001907348633
1011003,-1.530647873878479,6.089693546295166,-2.077948570251465,4.718018054962158,-17.88121223449707,1.9436099529266357,168.3000030517578,-136.5,-25.500001907348633
1011063,-2.3710386753082275,6.840363025665283,-4.651757717132568,2.0579400062561035,-11.067143440246582,-0.06859800219535828,165.90000915527344,-138.90000915527344,-30.30000114440918
1011083,-2.9291062355041504,7.368523120880127,-5.5160746574401855,3.2774598598480225,-8.986337661743164,0.3582339882850647,175.5,-136.5,-28.500001907348633
1011103,-2.601922035217285,9.86457347869873,-7.015020847320557,5.243936061859131,-9.710428237915039,1.1356779336929321,168.3000030517578,-141.3000030517578,-27.900001525878906
1011123,-3.3753206729888916,11.139216423034668,-7.449272632598877,4.420759677886963,-6.562541961669922,0.38109999895095825,168.3000030517578,-141.3000030517578,-29.700000762939453
1011143,-3.2802159786224365,12.276884078979492,-9.47039794921875,5.129605770111084,-2.896359920501709,0.36585599184036255,170.70001220703125,-138.90000915527344,-28.500001907348633
1011165,-2.823234796524048,11.510663032531738,-9.811339378356934,4.725639820098877,-4.9466776847839355,-0.6097599864006042,165.90000915527344,-138.90000915527344,-26.100000381469727
1011185,-1.8446729183197021,15.553511619567871,-10.581149101257324,4.253076076507568,-1.0747020244598389,3.5442299842834473,165.90000915527344,-136.5,-27.30000114440918
1011205,-1.5653401613235474,16.1899356842041,-11.578253746032715,3.0183119773864746,4.39027214050293,-0.7850660085678101,161.10000610351562,-138.90000915527344,-26.100000381469727
1011249,-1.432552456855774,14.899741172790527,-11.182282447814941,-1.7987920045852661,0.6478700041770935,-1.646351933479309,168.3000030517578,-136.5,-24.30000114440918
1011291,-1.9936105012893677,11.350360870361328,-10.548849105834961,-3.4832539558410645,5.632658004760742,-2.987823963165283,173.10000610351562,-134.10000610351562,-25.500001907348633
1011354,-2.9081711769104004,8.321365356445312,-7.448674201965332,-6.303393840789795,10.945191383361816,-2.225623846054077,175.5,-136.5,-26.700000762939453
1011374,-3.070267915725708,7.2237725257873535,-6.5173659324646,-6.349125862121582,8.399443626403809,-0.5411620140075684,173.10000610351562,-143.70001220703125,-26.100000381469727
1011395,-3.002079486846924,7.3194756507873535,-4.465137481689453,-6.577785968780518,6.882665634155273,0.2972579896450043,177.90000915527344,-136.5,-26.700000762939453
1011415,-2.604912757873535,7.181902885437012,-3.759328603744507,-5.952781677246094,9.24548625946045,-0.49542999267578125,173.10000610351562,-141.3000030517578,-26.700000762939453
1011435,-2.531341075897217,5.801388740539551,-3.809572696685791,-5.785098075866699,9.214998245239258,-1.4939119815826416,175.5,-136.5,-26.100000381469727
1011479,-1.7950270175933838,5.645871639251709,-2.101276159286499,-4.382649898529053,8.109807968139648,-0.12195199728012085,173.10000610351562,-138.90000915527344,-26.700000762939453
1011500,-1.4744224548339844,5.958102226257324,-2.2855043411254883,-4.1387457847595215,8.582371711730957,0.26677000522613525,173.10000610351562,-134.10000610351562,-29.100000381469727
1011581,-1.6634355783462524,7.013226509094238,-1.8368970155715942,-2.682943820953369,6.432967662811279,-0.7317119836807251,163.5,-138.90000915527344,-26.700000762939453
1011601,-1.3673548698425293,6.88582181930542,-1.2519131898880005,-2.8658719062805176,6.448211669921875,-0.914639949798584,168.3000030517578,-141.3000030517578,-25.500001907348633
1011621,-1.6915483474731445,6.772174835205078,-1.2716519832611084,-3.407033920288086,7.240900039672852,-0.8689079880714417,170.70001220703125,-143.70001220703125,-25.500001907348633
1011641,-1.6861650943756104,7.04612398147583,-1.2243986129760742,-3.254593849182129,6.951263904571533,-0.6021379828453064,168.3000030517578,-143.70001220703125,-26.700000762939453
1011705,-0.9809544682502747,8.79808521270752,-0.8206521272659302,-2.591480016708374,4.527467727661133,-0.7545779943466187,168.3000030517578,-146.10000610351562,-26.700000762939453
1011725,-0.7698100209236145,8.451162338256836,-0.9612157344818115,-2.324709892272949,4.763750076293945,-0.5792719721794128,161.10000610351562,-141.3000030517578,-25.500001907348633
1011745,-0.805698573589325,9.015809059143066,-1.1956877708435059,-1.8369019031524658,4.146368026733398,-0.3125019967556,161.10000610351562,-143.70001220703125,-26.700000762939453
1011768,-0.714780867099762,9.753917694091797,-1.6131916046142578,-1.0594580173492432,3.208861827850342,-0.2439039945602417,168.3000030517578,-143.70001220703125,-24.900001525878906
1011788,-1.214828372001648,9.3477783203125,-1.6269488334655762,-1.0975680351257324,1.829279899597168,-1.021347999572754,168.3000030517578,-146.10000610351562,-27.30000114440918
1011808,-1.5886677503585815,9.417760848999023,-1.7531570196151733,-0.8384199738502502,0.5640279650688171,-0.9908599853515625,165.90000915527344,-146.10000610351562,-27.30000114440918
1011828,-1.8823559284210205,9.707859992980957,-2.077948570251465,-0.3887220025062561,-0.3277460038661957,-1.1585439443588257,168.3000030517578,-141.3000030517578,-27.900001525878906
1011851,-2.095892906188965,9.980015754699707,-2.283111810684204,-0.23628199100494385,-1.5701320171356201,-1.5929979085922241,168.3000030517578,-146.10000610351562,-27.30000114440918
1011871,-2.054023027420044,9.77305793762207,-2.2191104888916016,-0.02286599949002266,-2.538125991821289,-1.7835479974746704,173.10000610351562,-138.90000915527344,-25.500001907348633
1011891,-1.9014965295791626,8.64974594116211,-1.82254159450531,-0.44969800114631653,-2.7058098316192627,-0.9298839569091797,168.3000030517578,-141.3000030517578,-27.30000114440918
1011911,-1.942170262336731,8.417067527770996,-1.7758865356445312,-0.4192099869251251,-2.378063917160034,-0.38109999895095825,173.10000610351562,-143.70001220703125,-29.100000381469727
1011931,-1.9308055639266968,8.566603660583496,-2.139557361602783,-0.16768398880958557,-1.8902559280395508,0.7621999979019165,173.10000610351562,-138.90000915527344,-27.900001525878906
1011951,-1.539620041847229,8.96436882019043,-2.137164831161499,0.35061198472976685,-2.03507399559021,1.3033620119094849,173.10000610351562,-141.3000030517578,-28.500001907348633
1011971,-1.0054783821105957,9.42254638671875,-2.26576566696167,0.44969800114631653,-1.8597679138183594,1.3414719104766846,175.5,-141.3000030517578,-27.30000114440918
1012011,-0.7470805644989014,8.896778106689453,-2.2843079566955566,0.41158798336982727,-1.4939119815826416,0.6021379828453064,170.70001220703125,-143.70001220703125,-27.30000114440918
1012031,-0.818259596824646,9.38067626953125,-2.5941460132598877,0.7545779943466187,-1.1280559301376343,0.4039659798145294,170.70001220703125,-141.3000030517578,-27.30000114440918
1012051,-0.8338112831115723,9.580455780029297,-2.828618049621582,0.8612859845161438,-1.2652519941329956,-0.114329993724823,173.10000610351562,-141.3000030517578,-27.900001525878906
1012071,-0.8990088701248169,9.384264945983887,-2.6575491428375244,0.9298839569091797,-1.471045970916748,-0.5792719721794128,170.70001220703125,-138.90000915527344,-26.700000762939453
1012092,-0.9109717607498169,9.058277130126953,-2.599529266357422,0.7469559907913208,-0.914639949798584,-0.8307979702949524,170.70001220703125,-141.3000030517578,-29.100000381469727
1012113,-1.0036839246749878,8.83995532989502,-2.652764081954956,0.7240899801254272,-0.5564059615135193,-0.6707359552383423,173.10000610351562,-143.70001220703125,-28.500001907348633
1012133,-1.040170669555664,8.83098316192627,-2.8154590129852295,0.9527499675750732,-0.342989981174469,-0.342989981174469,170.70001220703125,-141.3000030517578,-28.500001907348633
1012217,-0.6310408115386963,8.801673889160156,-2.8800582885742188,0.6631140112876892,-0.6326259970664978,0.015243999660015106,173.10000610351562,-138.90000915527344,-26.700000762939453
1012263,-0.708799421787262,8.769373893737793,-2.9679853916168213,0.08384199440479279,-1.3795819282531738,-0.6326259970664978,170.70001220703125,-138.90000915527344,-27.900001525878906
1012283,-1.096994161605835,8.46731185913086,-2.8118700981140137,0.4192099869251251,-1.425313949584961,-0.4725639820098877,165.90000915527344,-138.90000915527344,-26.100000381469727
1012303,-0.9289160370826721,9.766478538513184,-2.939274549484253,0.8612859845161438,-1.2118979692459106,-0.4039659798145294,175.5,-141.3000030517578,-28.500001907348633
1012323,-1.1508270502090454,9.582250595092773,-2.8573288917541504,-0.04573199898004532,-1.3414719104766846,-1.5701320171356201,173.10000610351562,-143.70001220703125,-27.900001525878906
1012344,-1.5892658233642578,8.1784086227417,-2.2968690395355225,-0.44969800114631653,-1.3186060190200806,-1.9436099529266357,175.5,-138.90000915527344,-28.500001907348633
1012364,-1.5533772706985474,8.864479064941406,-2.4930598735809326,0.06859800219535828,-0.46494197845458984,-1.1128119230270386,173.10000610351562,-138.90000915527344,-25.500001907348633
1012384,-1.8835521936416626,9.016407012939453,-2.7101857662200928,-0.09146399796009064,-0.2591480016708374,-1.0975680351257324,177.90000915527344,-138.90000915527344,-28.500001907348633
1012404,-2.2394473552703857,8.450563430786133,-2.6671195030212402,-0.19817200303077698,-0.4878079891204834,-1.1204339265823364,175.5,-134.10000610351562,-26.100000381469727
1012427,-2.2346620559692383,7.988199234008789,-2.6689138412475586,0.228659987449646,-0.7774440050125122,-0.6250039935112,173.10000610351562,-134.10000610351562,-27.30000114440918
1012447,-2.27473783493042,7.439104080200195,-2.697624683380127,0.4344539940357208,-0.9222619533538818,-0.13719600439071655,175.5,-138.90000915527344,-26.700000762939453
1012467,-2.047443389892578,8.409890174865723,-2.8842453956604004,0.8689079880714417,-0.6631140112876892,0.9603719711303711,175.5,-131.70001220703125,-28.500001907348633
1012487,-1.5073202848434448,10.18936538696289,-3.419583320617676,0.7774440050125122,-0.28201398253440857,0.7469559907913208,175.5,-138.90000915527344,-26.700000762939453
1012508,-1.6359210014343262,9.670177459716797,-3.2114295959472656,-0.2972579896450043,-0.853663980960846,-1.1509219408035278,170.70001220703125,-134.10000610351562,-28.500001907348633
1012528,-1.8674023151397705,8.69340991973877,-3.0900065898895264,-0.3125019967556,-0.3125019967556,-1.2576299905776978,173.10000610351562,-141.3000030517578,-26.100000381469727
1012548,-2.0378730297088623,9.119287490844727,-3.3310582637786865,0.19817200303077698,0.02286599949002266,-0.8079319596290588,180.3000030517578,-134.10000610351562,-26.100000381469727
1012568,-2.20894193649292,9.329833984375,-3.621157646179199,0.6021379828453064,0.10670799762010574,-0.4420759975910187,170.70001220703125,-134.10000610351562,-27.30000114440918
1012592,-2.0187325477600098,9.86756420135498,-3.699514389038086,0.7926880121231079,-0.3887220025062561,-0.4192099869251251,180.3000030517578,-138.90000915527344,-26.700000762939453
1012612,-1.8632153272628784,9.29514217376709,-3.49973464012146,0.1600620001554489,-0.46494197845458984,-0.41158798336982727,177.90000915527344,-138.90000915527344,-26.100000381469727
1012632,-1.5928547382354736,9.061267852783203,-3.293973445892334,-0.15243999660015106,-0.1295740008354187,0.3048799932003021,180.3000030517578,-136.5,-27.900001525878906
1012652,-1.4845908880233765,8.77415943145752,-3.2706458568573,-0.6097599864006042,0.2743920087814331,0.7088459730148315,180.3000030517578,-143.70001220703125,-27.900001525878906
1012672,-1.3494105339050293,8.72929859161377,-3.028397798538208,-0.48018598556518555,0.4039659798145294,0.9984819889068604,182.70001220703125,-136.5,-27.30000114440918
1012692,-1.1550140380859375,8.717933654785156,-2.9368820190429688,-0.6097599864006042,0.5792719721794128,0.7240899801254272,182.70001220703125,-138.90000915527344,-26.100000381469727
1012712,-1.0455539226531982,8.719130516052246,-2.8417773246765137,-0.6554920077323914,0.853663980960846,0.5945159792900085,175.5,-141.3000030517578,-27.900001525878906
1012735,-1.0730684995651245,8.69640064239502,-3.0086591243743896,-0.7926880121231079,1.0442140102386475,0.4725639820098877,177.90000915527344,-138.90000915527344,-27.900001525878906
1012755,-1.0874239206314087,8.679054260253906,-2.9518356323242188,-0.39634400606155396,1.0899460315704346,0.6097599864006042,173.10000610351562,-141.3000030517578,-28.500001907348633
1012775,-0.9570287466049194,9.10373592376709,-3.1199138164520264,-0.08384199440479279,1.2195199728012085,0.5868939757347107,175.5,-138.90000915527344,-26.100000381469727
1012798,-0.9456640481948853,8.939247131347656,-3.090604782104492,-0.16768398880958557,1.1814099550247192,0.5564059615135193,177.90000915527344,-138.90000915527344,-26.100000381469727
1012818,-0.8912330269813538,9.012818336486816,-3.145035743713379,-0.19054999947547913,1.3872039318084717,0.5792719721794128,168.3000030517578,-134.10000610351562,-27.900001525878906
1012838,-0.9055884480476379,8.921900749206543,-3.174942970275879,-0.228659987449646,1.3948259353637695,0.4344539940357208,168.3000030517578,-136.5,-27.30000114440918
1012858,-0.9612157344818115,8.966761589050293,-3.248514413833618,-0.19817200303077698,1.2652519941329956,0.1600620001554489,173.10000610351562,-138.90000915527344,-26.700000762939453
1012882,-0.8565407395362854,9.420751571655273,-3.302347421646118,-0.10670799762010574,1.1661659479141235,-0.4039659798145294,170.70001220703125,-141.3000030517578,-26.100000381469727
1012902,-0.9988987445831299,9.01820182800293,-3.0325849056243896,-0.5411620140075684,1.0823240280151367,-0.9451279640197754,168.3000030517578,-146.10000610351562,-27.30000114440918
1012922,-1.022226333618164,8.76399040222168,-2.832206964492798,-0.7240899801254272,1.295740008354187,-1.021347999572754,173.10000610351562,-138.90000915527344,-26.700000762939453
1012943,-1.1627899408340454,8.834571838378906,-2.894413948059082,-0.7164679765701294,1.7149499654769897,-1.013725996017456,168.3000030517578,-138.90000915527344,-26.700000762939453
1012963,-1.3733363151550293,8.831581115722656,-2.8746750354766846,-0.6783579587936401,1.7606819868087769,-1.0823240280151367,173.10000610351562,-138.90000915527344,-26.700000762939453
1012983,-1.4110193252563477,8.726905822753906,-2.7341115474700928,-0.7012239694595337,1.7759259939193726,-0.914639949798584,173.10000610351562,-141.3000030517578,-26.700000762939453
1013003,-1.2668668031692505,9.025379180908203,-2.817253351211548,-0.5564059615135193,1.9969639778137207,-0.6783579587936401,175.5,-134.10000610351562,-27.900001525878906
1013023,-1.4134118556976318,8.81184196472168,-2.739494800567627,-0.6554920077323914,2.042695999145508,-0.8612859845161438,173.10000610351562,-141.3000030517578,-25.500001907348633
1013043,-1.449898600578308,8.659316062927246,-2.853142023086548,-0.44969800114631653,2.0198299884796143,-0.7698220014572144,173.10000610351562,-141.3000030517578,-24.900001525878906
1013067,-1.4690390825271606,8.737074851989746,-2.969181776046753,0.04573199898004532,1.6311079263687134,-0.5945159792900085,175.5,-131.70001220703125,-26.700000762939453
1013088,-1.3918787240982056,8.923096656799316,-2.902787923812866,0.25152599811553955,1.3643379211425781,-0.6250039935112,173.10000610351562,-138.90000915527344,-26.100000381469727
1013108,-1.3380458354949951,9.195850372314453,-3.028995990753174,0.2896359860897064,1.3338500261306763,-0.8079319596290588,177.90000915527344,-138.90000915527344,-23.100000381469727
1013128,-1.4756187200546265,8.82201099395752,-2.9913129806518555,0.02286599949002266,1.1814099550247192,-1.0899460315704346,175.5,-138.90000915527344,-24.900001525878906
1013149,-1.6897538900375366,8.737074851989746,-2.906376600265503,0.36585599184036255,1.0975680351257324,-0.8917739987373352,173.10000610351562,-138.90000915527344,-24.900001525878906
1013169,-1.8117750883102417,8.893787384033203,-2.7975146770477295,0.5411620140075684,1.0594580173492432,-0.6097599864006042,170.70001220703125,-136.5,-24.900001525878906
1013189,-1.9056835174560547,9.579259872436523,-2.4601619243621826,0.5411620140075684,0.6250039935112,-0.426831990480423,170.70001220703125,-136.5,-23.700000762939453
1013209,-1.728633165359497,9.718029022216797,-1.821345329284668,-0.2591480016708374,0.16768398880958557,-0.457319974899292,182.70001220703125,-143.70001220703125,-23.700000762939453
1013229,-1.6921464204788208,9.188074111938477,-0.5161973834037781,-1.4481799602508545,-0.739333987236023,-0.4725639820098877,180.3000030517578,-134.10000610351562,-26.700000762939453
1013253,-3.070866107940674,7.918814659118652,0.9935154914855957,-2.736297845840454,-1.1661659479141235,-1.7911700010299683,173.10000610351562,-138.90000915527344,-26.100000381469727
1013274,-4.16187858581543,6.839166641235352,0.9008033275604248,-1.0975680351257324,-1.0442140102386475,-2.9268479347229004,175.5,-141.3000030517578,-26.700000762939453
1013294,-4.313209056854248,6.77337121963501,0.2793327569961548,2.6600780487060547,-5.7698540687561035,-3.513741970062256,180.3000030517578,-134.10000610351562,-25.500001907348633
1013314,-4.3891730308532715,6.4754958152771,0.37324121594429016,3.4375219345092773,-7.942123889923096,-3.460387945175171,182.70001220703125,-131.70001220703125,-26.100000381469727
1013334,-3.3549840450286865,6.7051825523376465,0.6298445463180542,4.375028133392334,-10.983302116394043,-1.9207439422607422,187.5,-129.3000030517578,-26.700000762939453
1013354,-3.42197585105896,5.951522350311279,0.15372274816036224,2.850627899169922,-11.394889831542969,-2.5609920024871826,192.3000030517578,-131.70001220703125,-24.30000114440918
1013374,-4.301246166229248,3.6767847537994385,-1.0539278984069824,3.765267848968506,-12.248553276062012,-3.163130044937134,187.5,-129.3000030517578,-27.30000114440918
1013394,-3.654653549194336,4.117616176605225,-1.6442949771881104,5.800342082977295,-15.007718086242676,0.8384199738502502,194.70001220703125,-126.9000015258789,-27.900001525878906
1013414,-2.1676700115203857,7.14481782913208,-1.848261833190918,4.916189670562744,-15.556501388549805,2.995445966720581,197.10000610351562,-124.50000762939453,-28.500001907348633
1013454,-1.8907299041748047,5.660226821899414,-2.599529266357422,4.763750076293945,-14.679971694946289,1.6311079263687134,192.3000030517578,-131.70001220703125,-28.500001907348633
1013474,-2.0342843532562256,5.038158416748047,-3.1875038146972656,5.099117755889893,-11.082387924194336,1.5015339851379395,189.90000915527344,-126.9000015258789,-31.500001907348633
1013494,-2.602519989013672,6.054403305053711,-5.283995151519775,7.804927825927734,-7.644865989685059,2.492393970489502,189.90000915527344,-134.10000610351562,-29.700000762939453
1013518,-2.0546212196350098,9.289758682250977,-6.964776992797852,7.515291690826416,-9.474145889282227,4.169233798980713,189.90000915527344,-131.70001220703125,-29.700000762939453
1013538,-1.8004103899002075,10.055381774902344,-6.159078121185303,5.586925983428955,-9.580853462219238,1.7454379796981812,182.70001220703125,-131.70001220703125,-29.700000762939453
1013558,-2.7173635959625244,9.948911666870117,-7.175323009490967,6.814067840576172,-4.565577983856201,0.2134159952402115,182.70001220703125,-131.70001220703125,-28.500001907348633
1013599,-1.9098705053329468,13.089760780334473,-10.715731620788574,5.907049655914307,-1.4405579566955566,2.8277618885040283,182.70001220703125,-134.10000610351562,-24.900001525878906
1013639,-2.9787518978118896,12.8493070602417,-10.066147804260254,3.4298999309539795,2.6143460273742676,-1.2500079870224,180.3000030517578,-129.3000030517578,-25.500001907348633
1013660,-3.180326223373413,12.641153335571289,-11.995159149169922,3.7347798347473145,9.32170581817627,-1.021347999572754,182.70001220703125,-134.10000610351562,-23.700000762939453
1013701,-2.703606128692627,12.273893356323242,-12.899551391601562,-2.0503180027008057,3.9786839485168457,-2.995445966720581,182.70001220703125,-126.9000015258789,-23.700000762939453
1013723,-3.1348674297332764,12.160246849060059,-11.404193878173828,-4.054903984069824,3.300325870513916,-1.7911700010299683,185.10000610351562,-124.50000762939453,-24.30000114440918
1013743,-3.9238178730010986,11.502289772033691,-10.679842948913574,-5.548815727233887,8.109807968139648,-1.4481799602508545,182.70001220703125,-129.3000030517578,-23.100000381469727
1013763,-4.657141208648682,10.600289344787598,-11.050691604614258,-5.815586090087891,9.588476181030273,-0.2591480016708374,182.70001220703125,-126.9000015258789,-23.700000762939453
1013783,-3.9124531745910645,10.476473808288574,-9.24130916595459,-8.254626274108887,4.146368026733398,1.9131219387054443,177.90000915527344,-129.3000030517578,-24.900001525878906
1013803,-3.764113664627075,10.18936538696289,-7.928983211517334,-9.039691925048828,3.9405739307403564,1.7987920045852661,182.70001220703125,-136.5,-23.700000762939453
1013823,-3.45786452293396,8.375197410583496,-6.377998352050781,-8.742433547973633,9.016825675964355,1.1661659479141235,175.5,-136.5,-27.30000114440918
1013845,-3.585268974304199,6.863092422485352,-5.468821048736572,-8.902495384216309,7.637243747711182,1.3490939140319824,170.70001220703125,-138.90000915527344,-27.30000114440918
1013865,-2.9966962337493896,6.656135082244873,-3.1635782718658447,-9.626585960388184,5.556437969207764,2.294221878051758,177.90000915527344,-136.5,-27.30000114440918
1013885,-2.4458065032958984,6.456355094909668,-2.1868107318878174,-9.344572067260742,8.89487361907959,2.027451992034912,170.70001220703125,-143.70001220703125,-27.900001525878906
1013908,-2.3919737339019775,5.723629951477051,-2.4308531284332275,-8.39182186126709,10.099149703979492,2.0045859813690186,163.5,-136.5,-29.100000381469727
1013929,-2.161090612411499,5.624936580657959,-1.6299395561218262,-7.46193790435791,8.125051498413086,2.3704419136047363,165.90000915527344,-148.5,-28.500001907348633
1013949,-1.6604448556900024,5.211619853973389,-0.7082012891769409,-6.463455677032471,7.362851619720459,2.4237959384918213,161.10000610351562,-141.3000030517578,-30.30000114440918
1014012,-0.6836774349212646,4.8987908363342285,-0.4372425079345703,-4.718018054962158,9.10828971862793,1.3795819282531738,151.5,-150.90000915527344,-30.30000114440918
1014119,-0.04844957962632179,7.383476734161377,-0.0005981429712846875,-2.530503988265991,7.378095626831055,-1.3033620119094849,151.5,-150.90000915527344,-30.900001525878906
1014139,-0.3355582058429718,8.158670425415039,-0.20336860418319702,-1.5396440029144287,7.202789783477783,-1.1128119230270386,149.10000610351562,-158.10000610351562,-30.900001525878906
1014181,-0.43365365266799927,8.60368824005127,-0.47791624069213867,-0.4725639820098877,5.160093784332275,-2.4619059562683105,149.10000610351562,-155.70001220703125,-31.500001907348633
1014201,-0.6160872578620911,9.3597412109375,-0.7309306859970093,-0.26677000522613525,5.25155782699585,-1.806414008140564,156.3000030517578,-146.10000610351562,-29.100000381469727
1014241,-1.421785831451416,9.78502082824707,-1.534834861755371,0.06859800219535828,3.7424018383026123,-2.2713558673858643,158.70001220703125,-148.5,-26.700000762939453
1014261,-1.7956252098083496,10.019493103027344,-2.1120429039001465,0.6478700041770935,2.949713945388794,-1.9969639778137207,163.5,-148.5,-27.30000114440918
1014283,-1.9846383333206177,9.31607723236084,-1.9535349607467651,0.44969800114631653,0.967993974685669,-1.753059983253479,158.70001220703125,-146.10000610351562,-26.100000381469727
1014303,-1.9517405033111572,8.990687370300293,-1.83151376247406,0.6326259970664978,0.19054999947547913,-0.3201240003108978,161.10000610351562,-146.10000610351562,-27.30000114440918
1014325,-1.755549669265747,9.45843505859375,-2.119220495223999,0.571649968624115,-0.41158798336982727,0.7240899801254272,153.90000915527344,-148.5,-27.30000114440918
1014345,-1.2094451189041138,9.75032901763916,-2.149725914001465,0.3734779953956604,-1.5167779922485352,1.189031958580017,161.10000610351562,-143.70001220703125,-27.30000114440918
1014365,-0.9360937476158142,9.759899139404297,-2.0378730297088623,0.05335399881005287,-2.14178204536438,1.3186060190200806,158.70001220703125,-150.90000915527344,-28.500001907348633
1014385,-0.7010235786437988,9.574474334716797,-1.9499460458755493,-0.09146399796009064,-2.736297845840454,1.1661659479141235,153.90000915527344,-146.10000610351562,-28.500001907348633
1014408,-0.32718420028686523,9.5032958984375,-1.8721874952316284,0.12195199728012085,-2.949713945388794,1.013725996017456,153.90000915527344,-146.10000610351562,-28.500001907348633
1014428,-0.1632930338382721,9.020594596862793,-1.658650517463684,-0.05335399881005287,-2.8277618885040283,0.7926880121231079,156.3000030517578,-146.10000610351562,-29.100000381469727
1014448,-0.15073202550411224,9.306506156921387,-1.8488599061965942,0.3125019967556,-2.294221878051758,0.9070180058479309,153.90000915527344,-146.10000610351562,-29.100000381469727
1014468,-0.34632477164268494,9.456640243530273,-2.0857245922088623,0.39634400606155396,-2.0960500240325928,0.4725639820098877,156.3000030517578,-148.5,-26.700000762939453
1014488,-0.37623193860054016,9.764683723449707,-2.2932801246643066,0.6783579587936401,-2.03507399559021,0.3582339882850647,151.5,-153.3000030517578,-27.900001525878906
1014508,-0.7357158660888672,8.94642448425293,-2.25978422164917,0.3201240003108978,-2.073184013366699,-0.060975998640060425,156.3000030517578,-150.90000915527344,-30.30000114440918
1014532,-0.5478989481925964,8.996668815612793,-2.238250970840454,0.7850660085678101,-2.080806016921997,0.685979962348938,156.3000030517578,-146.10000610351562,-29.700000762939453
1014552,-0.5502915382385254,9.096558570861816,-2.4033384323120117,0.39634400606155396,-1.653973937034607,0.6097599864006042,151.5,-148.5,-29.700000762939453
1014574,-0.4856920838356018,9.31787109375,-2.501433849334717,0.4725639820098877,-1.4862899780273438,0.5487840175628662,144.3000030517578,-150.90000915527344,-27.900001525878906
1014594,-0.39656877517700195,9.263440132141113,-2.549285411834717,0.39634400606155396,-1.3643379211425781,0.2972579896450043,151.5,-155.70001220703125,-27.900001525878906
1014616,-0.2428460419178009,9.429723739624023,-2.40812349319458,0.49542999267578125,-1.1661659479141235,0.3277460038661957,153.90000915527344,-155.70001220703125,-27.900001525878906
1014636,-0.39836323261260986,9.194055557250977,-2.524761438369751,-0.04573199898004532,-0.6631140112876892,-0.060975998640060425,151.5,-146.10000610351562,-29.100000381469727
1014656,-0.48629024624824524,9.246692657470703,-2.5379207134246826,0.1600620001554489,-0.4725639820098877,-0.02286599949002266,153.90000915527344,-153.3000030517578,-30.30000114440918
1014676,-0.4521960914134979,9.51705265045166,-2.5773980617523193,0.3734779953956604,-0.3201240003108978,-0.1448179930448532,151.5,-150.90000915527344,-28.500001907348633
1014699,-0.49825310707092285,8.96915340423584,-2.6455862522125244,0.2134159952402115,0.26677000522613525,-0.2591480016708374,151.5,-146.10000610351562,-30.30000114440918
1014719,-0.4312610924243927,8.845337867736816,-2.6605398654937744,0.426831990480423,0.2972579896450043,-0.10670799762010574,149.10000610351562,-148.5,-28.500001907348633
1014739,-0.36725977063179016,9.02896785736084,-2.640801191329956,0.38109999895095825,0.4878079891204834,0.12195199728012085,151.5,-153.3000030517578,-28.500001907348633
1014759,-0.3852040767669678,9.18927001953125,-2.852543830871582,0.20579399168491364,0.6631140112876892,0.007621999830007553,141.90000915527344,-148.5,-28.500001907348633
1014779,-0.36008206009864807,9.02119255065918,-2.7676074504852295,-0.07621999830007553,0.6173819899559021,-0.20579399168491364,151.5,-150.90000915527344,-28.500001907348633
1014802,-0.3146232068538666,9.135437965393066,-2.786748170852661,-0.15243999660015106,0.7088459730148315,-0.35061198472976685,149.10000610351562,-148.5,-29.100000381469727
1014822,-0.4372425079345703,9.307703018188477,-2.8776657581329346,-0.22103799879550934,0.800309956073761,-0.685979962348938,149.10000610351562,-150.90000915527344,-29.100000381469727
1014842,-0.5921615362167358,9.251477241516113,-2.8603196144104004,-0.3887220025062561,0.7012239694595337,-0.8841519951820374,151.5,-153.3000030517578,-28.500001907348633
1014862,-0.5736191272735596,9.183887481689453,-2.7819628715515137,-0.4725639820098877,0.6554920077323914,-0.8993960022926331,149.10000610351562,-148.5,-28.500001907348633
1014883,-0.5532822608947754,9.142017364501953,-2.671306610107422,-0.5259180068969727,0.739333987236023,-0.685979962348938,156.3000030517578,-150.90000915527344,-29.100000381469727
1014903,-0.6130965352058411,9.25028133392334,-2.682671308517456,-0.49542999267578125,0.8612859845161438,-0.4725639820098877,151.5,-153.3000030517578,-29.100000381469727
1014925,-0.61548912525177,9.17850399017334,-2.5791923999786377,-0.5335400104522705,0.8689079880714417,-0.4192099869251251,153.90000915527344,-153.3000030517578,-30.30000114440918
1014945,-0.5365342497825623,9.23233699798584,-2.501433849334717,-0.36585599184036255,0.9298839569091797,-0.3125019967556,156.3000030517578,-155.70001220703125,-27.900001525878906
1014965,-0.5676376819610596,9.159363746643066,-2.513396739959717,-0.2896359860897064,1.021347999572754,-0.342989981174469,149.10000610351562,-150.90000915527344,-27.900001525878906
1014987,-0.5987411141395569,8.99606990814209,-2.5175838470458984,-0.1295740008354187,0.8917739987373352,-0.18292799592018127,151.5,-146.10000610351562,-29.700000762939453
1015027,-0.48928093910217285,9.11569881439209,-2.546294689178467,-0.030487999320030212,0.6936019659042358,-0.05335399881005287,156.3000030517578,-148.5,-27.900001525878906
1015049,-0.4426257908344269,9.243701934814453,-2.601922035217285,-0.06859800219535828,0.6478700041770935,-0.1600620001554489,158.70001220703125,-153.3000030517578,-27.30000114440918
1015069,-0.49944937229156494,9.162952423095703,-2.664726972579956,-0.25152599811553955,0.5487840175628662,-0.36585599184036255,151.5,-148.5,-26.700000762939453
1015091,-0.48748651146888733,9.344189643859863,-2.6001274585723877,-0.17530599236488342,0.426831990480423,-0.35061198472976685,149.10000610351562,-150.90000915527344,-28.500001907348633
1015132,-0.515001118183136,8.82978630065918,-2.5468928813934326,-0.48018598556518555,0.030487999320030212,-0.44969800114631653,158.70001220703125,-155.70001220703125,-27.900001525878906
1015152,-0.506028950214386,9.04691219329834,-2.6342215538024902,-0.05335399881005287,0.04573199898004532,-0.09146399796009064,144.3000030517578,-150.90000915527344,-26.700000762939453
1015173,-0.43066293001174927,9.2281494140625,-2.626445770263672,0.060975998640060425,0.12195199728012085,-0.16768398880958557,153.90000915527344,-150.90000915527344,-29.100000381469727
1015193,-0.36008206009864807,9.250879287719727,-2.629436492919922,-0.05335399881005287,0.1448179930448532,-0.3582339882850647,146.70001220703125,-148.5,-26.700000762939453
1015216,-0.46595337986946106,9.183887481689453,-2.6461844444274902,-0.18292799592018127,0.3734779953956604,-0.6554920077323914,153.90000915527344,-146.10000610351562,-28.500001907348633
1015236,-0.5730209946632385,9.120484352111816,-2.6868581771850586,-0.17530599236488342,0.4344539940357208,-0.7164679765701294,156.3000030517578,-153.3000030517578,-29.100000381469727
1015256,-0.6017318367958069,9.147400856018066,-2.700615406036377,-0.08384199440479279,0.4878079891204834,-0.6250039935112,151.5,-150.90000915527344,-26.700000762939453
1015276,-0.6358259916305542,9.251477241516113,-2.6952321529388428,-0.09146399796009064,0.510673999786377,-0.5259180068969727,149.10000610351562,-148.5,-27.900001525878906
1015296,-0.702817976474762,9.3597412109375,-2.7287282943725586,-0.25152599811553955,0.5259180068969727,-0.5259180068969727,149.10000610351562,-146.10000610351562,-26.700000762939453
1015319,-0.7476786971092224,9.191064834594727,-2.7197561264038086,-0.49542999267578125,0.4878079891204834,-0.5182960033416748,156.3000030517578,-153.3000030517578,-25.500001907348633
1015339,-0.7452861666679382,9.043323516845703,-2.6874563694000244,-0.426831990480423,0.49542999267578125,-0.36585599184036255,156.3000030517578,-148.5,-27.900001525878906
1015359,-0.6424055695533752,9.06485652923584,-2.6880545616149902,-0.36585599184036255,0.48018598556518555,-0.06859800219535828,158.70001220703125,-153.3000030517578,-26.100000381469727
1015380,-0.599937379360199,9.135437965393066,-2.6659231185913086,-0.3125019967556,0.4420759975910187,0.08384199440479279,156.3000030517578,-150.90000915527344,-28.500001907348633
1015400,-0.49227166175842285,9.29095458984375,-2.6485769748687744,-0.28201398253440857,0.46494197845458984,0.060975998640060425,151.5,-146.10000610351562,-27.900001525878906
1015440,-0.3235953450202942,9.04212760925293,-2.5020320415496826,-0.5564059615135193,0.739333987236023,-0.13719600439071655,149.10000610351562,-143.70001220703125,-27.900001525878906
1015460,-0.37623193860054016,9.017603874206543,-2.4996395111083984,-0.5182960033416748,0.9298839569091797,-0.19817200303077698,149.10000610351562,-148.5,-27.30000114440918
1015480,-0.4486072361469269,9.237720489501953,-2.593547821044922,-0.3887220025062561,1.0442140102386475,-0.35061198472976685,158.70001220703125,-148.5,-27.900001525878906
1015504,-0.47014036774635315,9.288561820983887,-2.6270439624786377,-0.3734779953956604,0.9222619533538818,-0.7545779943466187,153.90000915527344,-148.5,-28.500001907348633
1015566,-0.7692118883132935,8.981715202331543,-2.524761438369751,-0.571649968624115,1.189031958580017,-0.4878079891204834,153.90000915527344,-150.90000915527344,-27.900001525878906
1015587,-0.6812848448753357,9.309496879577637,-2.4643490314483643,-0.35061198472976685,0.9527499675750732,-0.41158798336982727,158.70001220703125,-148.5,-26.700000762939453
1015607,-0.7769877314567566,9.00324821472168,-2.3985533714294434,-0.7317119836807251,0.7469559907913208,-0.426831990480423,151.5,-150.90000915527344,-27.30000114440918
1015627,-0.9701879024505615,8.96436882019043,-2.47391939163208,-0.3125019967556,0.5182960033416748,-0.1295740008354187,151.5,-153.3000030517578,-27.30000114440918
1015647,-1.0646945238113403,8.567201614379883,-2.384796142578125,-0.17530599236488342,0.12195199728012085,0.09908600151538849,153.90000915527344,-150.90000915527344,-28.500001907348633
1015671,-0.7141827344894409,9.58583927154541,-2.3058412075042725,0.4420759975910187,-0.05335399881005287,0.6402480006217957,156.3000030517578,-148.5,-28.500001907348633
1015691,-0.8164651393890381,9.405797958374023,-2.2047550678253174,-0.38109999895095825,-0.038109999150037766,0.015243999660015106,151.5,-150.90000915527344,-26.100000381469727
1015711,-0.8362038731575012,8.820216178894043,-2.0821356773376465,-0.5030519962310791,-0.41158798336982727,0.038109999150037766,151.5,-148.5,-28.500001907348633
1015734,-0.49645867943763733,9.287365913391113,-1.396663784980774,0.09146399796009064,-1.6158639192581177,1.1280559301376343,153.90000915527344,-148.5,-27.900001525878906
1015754,-0.5849838256835938,9.522436141967773,-0.6268538236618042,-0.6631140112876892,-2.8048958778381348,1.2118979692459106,153.90000915527344,-148.5,-27.30000114440918
1015776,-1.315914511680603,8.65572738647461,0.2177240401506424,-1.196653962135315,-3.9329519271850586,0.41158798336982727,149.10000610351562,-158.10000610351562,-27.30000114440918
1015797,-1.8081861734390259,7.268035411834717,0.8655129075050354,-0.19054999947547913,-6.097599983215332,-0.09908600151538849,153.90000915527344,-146.10000610351562,-29.700000762939453
1015817,-2.006171464920044,7.007245063781738,1.628743290901184,2.042695999145508,-8.086941719055176,0.7698220014572144,149.10000610351562,-146.10000610351562,-27.900001525878906
1015837,-2.2723450660705566,7.156182289123535,1.2830166816711426,3.803377866744995,-9.52750015258789,1.3643379211425781,153.90000915527344,-143.70001220703125,-30.30000114440918
1015860,-2.0133492946624756,7.679557800292969,1.0706759691238403,5.998513698577881,-12.507701873779297,1.882633924484253,146.70001220703125,-150.90000915527344,-28.500001907348633
1015880,-1.6688188314437866,7.040740966796875,1.1436493396759033,5.7164998054504395,-15.061071395874023,1.2042759656906128,149.10000610351562,-150.90000915527344,-30.30000114440918
1015902,-2.548687219619751,5.586655139923096,0.3929799199104309,6.669250011444092,-16.722667694091797,1.753059983253479,149.10000610351562,-153.3000030517578,-29.100000381469727
1015922,-2.217315912246704,6.181209564208984,-0.6047225594520569,4.916189670562744,-16.69217872619629,2.088428020477295,149.10000610351562,-153.3000030517578,-29.700000762939453
1015986,-0.8003153204917908,4.585962295532227,-2.617473602294922,4.489357948303223,-19.077865600585938,2.8734939098358154,146.70001220703125,-153.3000030517578,-32.10000228881836
1016008,-2.0229194164276123,7.457646369934082,-5.214610576629639,7.118947982788086,-13.772953987121582,3.96343994140625,146.70001220703125,-153.3000030517578,-30.900001525878906
1016028,-1.0258152484893799,11.461615562438965,-7.149602890014648,5.495461940765381,-15.686075210571289,2.4085519313812256,141.90000915527344,-148.5,-29.700000762939453
1016048,-2.399749517440796,9.24908447265625,-6.651350021362305,2.888737916946411,-13.7119779586792,-0.8307979702949524,141.90000915527344,-150.90000915527344,-30.900001525878906
1016070,-3.416592597961426,9.523632049560547,-8.078518867492676,4.016793727874756,-8.948227882385254,1.4862899780273438,146.70001220703125,-158.10000610351562,-30.30000114440918
1016090,-2.908769369125366,12.077702522277832,-9.158764839172363,4.260697841644287,-7.6982197761535645,2.888737916946411,134.70001220703125,-158.10000610351562,-32.10000228881836
1016110,-2.244232416152954,13.44087028503418,-9.406994819641113,1.7683039903640747,-4.146368026733398,1.7911700010299683,134.70001220703125,-153.3000030517578,-29.700000762939453
1016130,-2.8477587699890137,13.03054428100586,-10.35983657836914,3.2774598598480225,0.7774440050125122,-0.15243999660015106,132.3000030517578,-153.3000030517578,-29.700000762939453
1016152,-2.607903242111206,13.035927772521973,-11.963457107543945,3.407033920288086,2.789651870727539,0.28201398253440857,137.10000610351562,-155.70001220703125,-29.100000381469727
1016172,-2.369842529296875,14.36918830871582,-11.364716529846191,0.8460419774055481,2.9649579524993896,-0.33536797761917114,139.5,-146.10000610351562,-28.500001907348633
1016195,-2.223297357559204,13.14120101928711,-11.218171119689941,-0.04573199898004532,5.7698540687561035,-3.4298999309539795,134.70001220703125,-150.90000915527344,-28.500001907348633
1016215,-2.157501697540283,11.413166046142578,-10.815023422241211,-2.28659987449646,6.699738025665283,-2.949713945388794,141.90000915527344,-148.5,-27.900001525878906
1016299,-2.115631580352783,8.689821243286133,-6.3361287117004395,-6.166197776794434,7.050349712371826,1.2576299905776978,134.70001220703125,-155.70001220703125,-29.700000762939453
1016339,-1.5796955823898315,7.362541675567627,-4.268946170806885,-6.303393840789795,12.309529304504395,-0.426831990480423,134.70001220703125,-160.5,-30.30000114440918
1016359,-1.1681731939315796,6.84395170211792,-3.6582424640655518,-5.579303741455078,11.189095497131348,-0.39634400606155396,141.90000915527344,-158.10000610351562,-29.700000762939453
1016399,-0.7010235786437988,5.986214637756348,-2.1293890476226807,-4.596065998077393,12.271419525146484,-1.5167779922485352,132.3000030517578,-155.70001220703125,-30.900001525878906
1016474,0.16568560898303986,5.742770671844482,-0.16209673881530762,-4.710395812988281,11.844587326049805,-3.8414878845214844,144.3000030517578,-155.70001220703125,-30.900001525878906
1016579,-0.0897214487195015,9.336413383483887,-0.4252796471118927,-3.9253299236297607,10.678421974182129,-3.3231918811798096,149.10000610351562,-153.3000030517578,-29.700000762939453
1016598,-0.39477434754371643,8.85969352722168,-0.6782941222190857,-4.123501777648926,10.868971824645996,-4.39027214050293,151.5,-153.3000030517578,-29.100000381469727
1016640,-1.8034011125564575,8.541481971740723,-1.0951998233795166,-1.5929979085922241,8.529017448425293,-4.054903984069824,158.70001220703125,-138.90000915527344,-28.500001907348633
1016660,-2.6150810718536377,9.069642066955566,-1.6616411209106445,-0.38109999895095825,7.286632061004639,-3.4680099487304688,156.3000030517578,-150.90000915527344,-29.100000381469727
1016683,-2.9972944259643555,9.212597846984863,-1.6777909994125366,0.19054999947547913,4.9466776847839355,-3.2317278385162354,161.10000610351562,-143.70001220703125,-27.900001525878906
1016703,-2.9314987659454346,9.64565372467041,-1.8865429162979126,0.6173819899559021,3.7728898525238037,-2.3170878887176514,165.90000915527344,-141.3000030517578,-25.500001907348633
1016723,-2.8603196144104004,10.122971534729004,-2.2765321731567383,0.426831990480423,2.2637338638305664,-1.646351933479309,170.70001220703125,-141.3000030517578,-25.500001907348633
1016743,-2.7442798614501953,9.60976505279541,-2.1054632663726807,0.5868939757347107,0.5335400104522705,-1.242385983467102,165.90000915527344,-146.10000610351562,-27.900001525878906
1016763,-2.4374325275421143,9.75930118560791,-2.122211217880249,0.5564059615135193,-0.5182960033416748,-0.17530599236488342,168.3000030517578,-141.3000030517578,-26.100000381469727
1016783,-2.0797431468963623,9.622325897216797,-2.2376527786254883,0.4420759975910187,-1.9664759635925293,0.6631140112876892,173.10000610351562,-150.90000915527344,-27.30000114440918
1016823,-1.6855669021606445,9.634288787841797,-2.527153968811035,0.48018598556518555,-3.0335559844970703,1.2500079870224,161.10000610351562,-143.70001220703125,-26.700000762939453
1016863,-0.9833470582962036,9.607970237731934,-2.3411316871643066,0.28201398253440857,-3.9405739307403564,1.425313949584961,165.90000915527344,-138.90000915527344,-27.900001525878906
